File: spectra/VLFR_01-LDPE_bio_Raman_e556cb1e.csv
nm,Intensity
528.626,1868.9
528.795,1868.5
528.963,1868.9
529.132,1869.1
529.3,1869.4
529.469,1867.3
529.637,1867.8
529.806,1868.1
529.974,1870.1
530.143,1870.2
530.311,1868.0
530.48,1870.3
530.648,1869.0
530.816,1871.4
530.985,1869.1
531.153,1871.4
531.322,1871.7
531.49,1875.0
531.658,1893.7
531.827,2129.3
531.995,3086.4
532.164,3474.3
532.332,2138.3
532.5,1874.1
532.669,1867.3
532.837,1869.4
533.006,1869.3
533.174,1870.8
533.342,1870.3
533.511,1877.7
533.679,1928.9
533.847,2034.4
534.016,2119.7
534.184,2136.3
534.352,2135.4
534.521,2142.2
534.689,2155.0
534.857,2153.1
535.025,2140.8
535.194,2147.5
535.362,2137.8
535.53,2141.1
535.699,2120.9
535.867,2130.6
536.035,2121.1
536.203,2116.8
536.372,2121.3
536.54,2117.3
536.708,2110.3
536.876,2106.7
537.044,2110.1
537.213,2112.4
537.381,2112.8
537.549,2122.0
537.717,2117.3
537.885,2120.9
538.054,2117.1
538.222,2115.2
538.39,2120.2
538.558,2118.7
538.726,2126.6
538.894,2121.0
539.063,2131.4
539.231,2120.4
539.399,2116.2
539.567,2115.6
539.735,2115.5
539.903,2134.0
540.071,2122.2
540.239,2133.6
540.408,2122.4
540.576,2122.6
540.744,2127.6
540.912,2125.5
541.08,2128.5
541.248,2129.7
541.416,2127.8
541.584,2131.7
541.752,2132.2
541.92,2135.7
542.088,2123.9
542.256,2147.3
542.424,2136.9
542.592,2141.0
542.76,2144.5
542.928,2130.9
543.096,2145.3
543.264,2160.0
543.432,2142.8
543.6,2148.7
543.768,2145.5
543.936,2158.2
544.104,2145.7
544.272,2140.9
544.44,2138.5
544.608,2151.2
544.776,2153.0
544.944,2151.2
545.112,2152.4
545.28,2168.5
545.448,2156.3
545.616,2157.7
545.784,2152.3
545.951,2163.3
546.119,2161.2
546.287,2153.0
546.455,2161.9
546.623,2162.8
546.791,2162.5
546.959,2182.0
547.127,2173.0
547.294,2173.9
547.462,2163.7
547.63,2157.9
547.798,2163.0
547.966,2160.2
548.134,2160.9
548.301,2185.2
548.469,2169.6
548.637,2171.4
548.805,2169.5
548.972,2170.3
549.14,2171.1
549.308,2181.2
549.476,2172.1
549.644,2173.1
549.811,2179.3
549.979,2170.8
550.147,2184.2
550.315,2184.5
550.482,2190.3
550.65,2182.1
550.818,2185.5
550.985,2191.3
551.153,2177.9
551.321,2208.7
551.488,2186.4
551.656,2197.7
551.824,2185.5
551.991,2196.9
552.159,2190.6
552.327,2205.9
552.494,2210.7
552.662,2193.2
552.83,2186.1
552.997,2191.0
553.165,2196.4
553.333,2198.9
553.5,2194.3
553.668,2193.7
553.835,2194.7
554.003,2205.6
554.171,2216.3
554.338,2226.5
554.506,2211.2
554.673,2231.0
554.841,2201.9
555.008,2215.9
555.176,2215.1
555.343,2239.0
555.511,2214.3
555.679,2220.9
555.846,2215.8
556.014,2227.0
556.181,2208.4
556.349,2226.7
556.516,2221.1
556.684,2238.7
556.851,2240.9
557.018,2240.2
557.186,2229.5
557.353,2236.4
557.521,2235.2
557.688,2253.9
557.856,2235.4
558.023,2249.2
558.191,2262.3
558.358,2265.0
558.525,2254.2
558.693,2255.7
558.86,2253.0
559.028,2247.9
559.195,2261.1
559.362,2244.6
559.53,2252.2
559.697,2265.0
559.864,2250.4
560.032,2246.4
560.199,2251.5
560.366,2262.8
560.534,2259.1
560.701,2273.6
560.868,2283.7
561.036,2271.2
561.203,2271.4
561.37,2286.9
561.538,2310.4
561.705,2310.6
561.872,2283.1
562.039,2293.5
562.207,2283.4
562.374,2276.4
562.541,2293.7
562.708,2283.9
562.876,2296.3
563.043,2277.8
563.21,2288.4
563.377,2308.5
563.545,2307.5
563.712,2318.4
563.879,2371.2
564.046,2385.9
564.213,2362.0
564.38,2337.7
564.548,2329.3
564.715,2335.6
564.882,2342.2
565.049,2333.1
565.216,2315.3
565.383,2321.5
565.551,2316.0
565.718,2327.7
565.885,2342.1
566.052,2384.9
566.219,2389.0
566.386,2363.4
566.553,2348.2
566.72,2314.8
566.887,2309.6
567.054,2324.1
567.221,2312.0
567.388,2328.1
567.555,2326.2
567.722,2327.6
567.889,2308.4
568.057,2318.2
568.224,2326.2
568.391,2321.3
568.558,2338.5
568.725,2326.9
568.892,2323.2
569.058,2333.9
569.225,2326.6
569.392,2323.1
569.559,2324.3
569.726,2332.0
569.893,2337.6
570.06,2333.3
570.227,2333.8
570.394,2358.6
570.561,2361.9
570.728,2348.5
570.895,2353.8
571.062,2359.0
571.229,2373.7
571.395,2466.2
571.562,2535.7
571.729,2457.3
571.896,2409.1
572.063,2400.7
572.23,2395.1
572.397,2388.4
572.563,2369.2
572.73,2376.9
572.897,2384.8
573.064,2379.4
573.231,2373.4
573.397,2371.8
573.564,2402.7
573.731,2367.9
573.898,2395.9
574.064,2374.4
574.231,2381.4
574.398,2371.0
574.565,2374.1
574.731,2383.4
574.898,2388.5
575.065,2382.6
575.232,2414.2
575.398,2396.4
575.565,2442.1
575.732,2438.2
575.898,2440.5
576.065,2509.1
576.232,2550.4
576.398,2533.2
576.565,2532.9
576.732,2494.8
576.898,2504.9
577.065,2490.6
577.232,2475.8
577.398,2459.9
577.565,2444.3
577.731,2426.7
577.898,2423.7
578.065,2404.1
578.231,2431.9
578.398,2423.0
578.564,2410.7
578.731,2411.2
578.897,2437.0
579.064,2414.0
579.23,2418.6
579.397,2436.5
579.563,2448.2
579.73,2439.6
579.896,2441.9
580.063,2456.4
580.229,2443.0
580.396,2458.3
580.562,2470.3
580.729,2448.6
580.895,2467.0
581.062,2456.2
581.228,2468.0
581.395,2466.2
581.561,2478.4
581.728,2459.4
581.894,2468.4
582.06,2481.1
582.227,2488.6
582.393,2474.8
582.56,2496.3
582.726,2492.6
582.892,2478.1
583.059,2483.1
583.225,2482.9
583.391,2494.0
583.558,2489.7
583.724,2488.9
583.89,2482.6
584.057,2517.8
584.223,2500.3
584.389,2505.2
584.556,2520.2
584.722,2525.0
584.888,2514.2
585.054,2507.8
585.221,2518.4
585.387,2510.2
585.553,2522.3
585.719,2528.3
585.886,2525.4
586.052,2550.9
586.218,2536.7
586.384,2541.3
586.55,2539.5
586.717,2566.0
586.883,2566.7
587.049,2565.7
587.215,2579.3
587.381,2554.2
587.548,2602.8
587.714,2586.6
587.88,2608.5
588.046,2612.8
588.212,2601.9
588.378,2606.0
588.544,2639.3
588.71,2611.6
588.876,2631.3
589.043,2621.0
589.209,2621.7
589.375,2643.9
589.541,2617.0
589.707,2645.9
589.873,2646.5
590.039,2650.3
590.205,2670.9
590.371,2670.0
590.537,2674.3
590.703,2685.2
590.869,2678.0
591.035,2701.6
591.201,2697.0
591.367,2715.6
591.533,2695.0
591.699,2765.7
591.865,2743.9
592.031,2750.7
592.197,2739.0
592.363,2752.1
592.529,2780.8
592.694,2781.7
592.86,2800.6
593.026,2799.3
593.192,2810.0
593.358,2798.2
593.524,2817.0
593.69,2819.9
593.856,2844.1
594.021,2834.2
594.187,2866.9
594.353,2850.3
594.519,2876.2
594.685,2879.5
594.851,2900.2
595.016,2898.2
595.182,2954.9
595.348,2984.4
595.514,2993.3
595.68,2976.8
595.845,3021.6
596.011,3013.3
596.177,3039.3
596.342,3042.4
596.508,3087.5
596.674,3095.6
596.84,3089.5
597.005,3124.3
597.171,3143.9
597.337,3136.0
597.502,3169.1
597.668,3171.9
597.834,3193.2
597.999,3220.6
598.165,3223.0
598.331,3224.3
598.496,3248.7
598.662,3263.8
598.828,3315.5
598.993,3268.3
599.159,3337.5
599.324,3319.0
599.49,3342.0
599.656,3331.2
599.821,3369.8
599.987,3403.0
600.152,3358.8
600.318,3370.5
600.483,3438.5
600.649,3396.6
600.814,3428.2
600.98,3398.3
601.145,3367.0
601.311,3419.0
601.476,3406.8
601.642,3396.9
601.807,3447.4
601.973,3440.2
602.138,3408.3
602.304,3436.6
602.469,3399.2
602.635,3383.0
602.8,3387.2
602.965,3401.7
603.131,3383.7
603.296,3394.3
603.462,3342.8
603.627,3330.5
603.792,3375.8
603.958,3320.6
604.123,3327.2
604.288,3344.5
604.454,3307.6
604.619,3305.1
604.784,3316.2
604.95,3292.8
605.115,3271.6
605.28,3219.3
605.446,3242.9
605.611,3213.9
605.776,3217.1
605.941,3200.1
606.107,3209.0
606.272,3203.9
606.437,3168.9
606.602,3151.4
606.767,3164.9
606.933,3158.4
607.098,3162.6
607.263,3141.5
607.428,3161.9
607.593,3144.9
607.759,3111.6
607.924,3107.2
608.089,3127.3
608.254,3101.5
608.419,3085.1
608.584,3096.6
608.749,3070.1
608.915,3102.2
609.08,3057.3
609.245,3056.2
609.41,3079.5
609.575,3045.2
609.74,3043.8
609.905,3075.9
610.07,3074.1
610.235,3057.8
610.4,3047.0
610.565,3047.1
610.73,3076.7
610.895,3025.8
611.06,3026.6
611.225,3003.6
611.39,3034.0
611.555,2991.7
611.72,3003.6
611.885,3018.6
612.05,2996.2
612.215,3022.1
612.38,3020.7
612.545,2998.3
612.71,3028.5
612.875,2975.8
613.04,2978.4
613.204,3004.5
613.369,2964.5
613.534,2960.8
613.699,2970.7
613.864,2957.9
614.029,2980.5
614.194,2963.4
614.358,2973.2
614.523,2973.7
614.688,2957.8
614.853,2935.5
615.018,2959.8
615.182,2951.9
615.347,2934.4
615.512,2954.8
615.677,2905.6
615.841,2964.0
616.006,2918.8
616.171,2914.2
616.336,2910.3
616.5,2917.0
616.665,2869.1
616.83,2917.8
616.994,2900.9
617.159,2916.3
617.324,2907.1
617.489,2907.8
617.653,2884.0
617.818,2885.3
617.982,2905.8
618.147,2884.3
618.312,2923.6
618.476,2891.2
618.641,2891.9
618.805,2882.9
618.97,2880.9
619.135,2903.6
619.299,2886.4
619.464,2865.6
619.628,2885.4
619.793,2849.0
619.957,2883.0
620.122,2871.7
620.286,2851.2
620.451,2853.7
620.615,2843.0
620.78,2869.6
620.944,2885.9
621.109,2852.4
621.273,2863.3
621.438,2879.4
621.602,2853.6
621.767,2856.8
621.931,2883.4
622.095,2855.6
622.26,2885.4
622.424,2880.7
622.589,2848.8
622.753,2849.8
622.917,2851.8
623.082,2831.9
623.246,2812.6
623.41,2806.3
623.575,2825.5
623.739,2827.6
623.903,2781.5
624.068,2807.8
624.232,2798.9
624.396,2779.6
624.561,2792.6
624.725,2811.2
624.889,2800.8
625.053,2781.6
625.218,2749.3
625.382,2759.0
625.546,2788.9
625.71,2782.3
625.875,2774.3
626.039,2797.1
626.203,2792.9
626.367,2830.3
626.531,2863.3
626.695,2957.8
626.86,3135.4
627.024,3344.5
627.188,3433.6
627.352,3468.0
627.516,3362.8
627.68,3268.4
627.844,3192.1
628.008,3207.5
628.172,3234.9
628.337,3386.6
628.501,3473.2
628.665,3454.6
628.829,3300.8
628.993,3207.1
629.157,3174.0
629.321,3139.4
629.485,3085.1
629.649,3079.6
629.813,3034.1
629.977,2994.6
630.141,3013.5
630.305,2985.6
630.469,2963.1
630.633,2947.6
630.797,2901.4
630.96,2817.8
631.124,2821.3
631.288,2761.3
631.452,2739.0
631.616,2741.4
631.78,2713.1
631.944,2712.2
632.108,2716.9
632.272,2683.2
632.435,2695.6
632.599,2699.8
632.763,2673.3
632.927,2670.9
633.091,2681.6
633.254,2685.8
633.418,2670.9
633.582,2656.5
633.746,2663.3
633.91,2647.6
634.073,2671.8
634.237,2650.1
634.401,2627.5
634.564,2660.3
634.728,2636.6
634.892,2652.9
635.056,2643.4
635.219,2643.8
635.383,2631.7
635.547,2638.6
635.71,2657.1
635.874,2615.4
636.038,2596.4
636.201,2626.0
636.365,2629.0
636.528,2628.1
636.692,2590.4
636.856,2626.8
637.019,2628.7
637.183,2643.6
637.346,2618.0
637.51,2613.9
637.673,2623.2
637.837,2611.3
638.0,2617.3
638.164,2625.2
638.327,2611.2
638.491,2594.0
638.654,2624.0
638.818,2601.2
638.981,2599.7
639.145,2613.5
639.308,2600.4
639.472,2588.2
639.635,2591.6
639.799,2596.8
639.962,2611.6
640.125,2603.5
640.289,2599.5
640.452,2624.5
640.616,2577.3
640.779,2583.2
640.942,2603.7
641.106,2605.0
641.269,2582.9
641.432,2606.6
641.596,2585.7
641.759,2589.9
641.922,2578.3
642.085,2565.9
642.249,2600.4
642.412,2550.3
642.575,2609.2
642.738,2615.9
642.902,2563.5
643.065,2558.5
643.228,2603.8
643.391,2590.5
643.555,2591.8
643.718,2604.4
643.881,2583.4
644.044,2590.9
644.207,2588.2
644.37,2605.8
644.534,2577.9
644.697,2580.4
644.86,2587.4
645.023,2587.2
645.186,2605.5
645.349,2594.8
645.512,2593.1
645.675,2590.8
645.838,2603.6
646.001,2592.3
646.164,2578.0
646.327,2566.5
646.49,2591.9
646.653,2586.9
646.816,2588.0
646.979,2595.6
647.142,2600.4
647.305,2595.2
647.468,2590.2
647.631,2595.4
647.794,2575.8
647.957,2561.7
648.12,2581.1
648.283,2591.4
648.446,2584.9
648.609,2589.6
648.772,2568.1
648.935,2560.2
649.098,2592.5
649.26,2586.6
649.423,2562.4
649.586,2579.4
649.749,2592.6
649.912,2605.2
650.075,2595.4
650.237,2579.0
650.4,2597.9
650.563,2597.5
650.726,2579.3
650.888,2586.2
651.051,2597.2
651.214,2575.9
651.377,2601.6
651.539,2584.7
651.702,2587.4
651.865,2560.6
652.027,2576.0
652.19,2596.0
652.353,2582.7
652.515,2569.4
652.678,2569.4
652.841,2574.4
653.003,2582.8
653.166,2549.7
653.329,2576.4
653.491,2574.6
653.654,2552.9
653.816,2562.3
653.979,2587.7
654.142,2572.5
654.304,2581.8
654.467,2552.8
654.629,2565.6
654.792,2533.5
654.954,2545.8
655.117,2560.4
655.279,2550.7
655.442,2529.2
655.604,2553.1
655.767,2564.8
655.929,2564.4
656.091,2529.6
656.254,2515.8
656.416,2534.3
656.579,2557.9
656.741,2525.7
656.904,2501.6
657.066,2524.5
657.228,2536.5
657.391,2508.7
657.553,2502.5
657.715,2510.0
657.878,2519.1
658.04,2492.1
658.202,2484.5
658.365,2452.4
658.527,2478.6
658.689,2481.1
658.851,2476.4
659.014,2459.2
659.176,2472.5
659.338,2428.4
659.5,2436.2
659.663,2462.1
659.825,2428.2
659.987,2440.3
660.149,2429.7
660.311,2451.2
660.474,2450.5
660.636,2404.0
660.798,2410.6
660.96,2421.8
661.041,2418.7