File: spectra/VLFR_07-PET_nobio_Raman_cb252e98.csv
nm,Intensity
791.377,11550.5
791.652,11232.7
791.927,11067.0
792.202,10874.8
792.477,10632.3
792.752,10371.4
793.027,10391.5
793.301,10330.4
793.576,10041.2
793.851,9918.0
794.126,9814.6
794.401,9778.7
794.676,9814.68
794.951,9705.94
795.225,9738.34
795.5,9806.82
795.775,9691.94
796.05,9595.38
796.325,9537.28
796.599,9522.52
796.874,9609.7
797.149,9651.28
797.424,9540.94
797.698,9578.02
797.973,9538.88
798.248,9445.88
798.523,9541.64
798.797,9586.36
799.072,9569.08
799.347,9557.32
799.622,9502.78
799.896,9493.74
800.171,9457.32
800.446,9441.36
800.72,9465.12
800.995,9367.56
801.27,9383.44
801.544,9375.72
801.819,9457.58
802.094,9496.5
802.368,9430.56
802.643,9277.36
802.918,9163.34
803.192,9219.18
803.467,9210.94
803.742,9194.16
804.016,9202.96
804.291,9120.1
804.565,8993.36
804.84,9042.8
805.114,9028.84
805.389,8981.02
805.664,8896.46
805.938,8934.6
806.213,8889.94
806.487,8935.06
806.762,8844.62
807.036,8861.02
807.311,8976.38
807.585,8891.02
807.86,8759.58
808.134,8834.26
808.409,8767.68
808.683,8729.08
808.958,8722.84
809.232,8808.86
809.507,8749.92
809.781,8667.96
810.056,8640.62
810.33,8639.46
810.605,8665.58
810.879,8584.32
811.153,8593.78
811.428,8627.74
811.702,8684.6
811.977,8534.04
812.251,8496.72
812.525,8609.48
812.8,8582.0
813.074,8479.72
813.349,8322.88
813.623,8389.7
813.897,8471.02
814.172,8410.5
814.446,8387.06
814.72,8349.52
814.995,8463.12
815.269,8374.56
815.543,8303.42
815.818,8408.98
816.092,8325.82
816.366,8311.44
816.64,8268.54
816.915,8243.78
817.189,8204.16
817.463,8303.22
817.737,8178.74
818.012,8073.82
818.286,8123.56
818.56,8043.14
818.834,8124.86
819.109,8177.96
819.383,8105.44
819.657,7989.88
819.931,8118.52
820.205,8129.4
820.48,8115.96
820.754,8018.2
821.028,7971.48
821.302,7959.34
821.576,7988.04
821.85,7933.94
822.125,7888.6
822.399,7901.18
822.673,7866.76
822.947,7878.42
823.221,7866.7
823.495,7881.36
823.769,7840.64
824.043,7773.68
824.317,7756.9
824.591,7780.72
824.865,7772.2
825.14,7833.28
825.414,7927.86
825.688,8087.68
825.962,8105.08
826.236,7940.86
826.51,7745.8
826.784,7620.2
827.058,7676.94
827.332,7588.88
827.606,7526.18
827.88,7604.48
828.154,7660.08
828.428,7571.52
828.702,7566.54
828.976,7493.4
829.249,7491.76
829.523,7473.08
829.797,7535.38
830.071,7541.28
830.345,7596.7
830.619,7625.68
830.893,7551.18
831.167,7551.28
831.441,7459.7
831.715,7383.34
831.988,7397.16
832.262,7376.34
832.536,7344.78
832.81,7311.16
833.084,7351.04
833.358,7317.04
833.632,7269.12
833.905,7241.48
834.179,7267.82
834.453,7272.82
834.727,7198.68
835.001,7153.96
835.274,7160.32
835.548,7236.8
835.822,7196.24
836.096,7179.2
836.369,7314.14
836.643,7268.32
836.917,7238.0
837.191,7281.38
837.464,7298.66
837.738,7313.08
838.012,7228.28
838.285,7215.94
838.559,7234.32
838.833,7345.4
839.106,7295.44
839.38,7171.3
839.654,7081.02
839.927,7151.94
840.201,7191.86
840.475,7277.1
840.748,7378.62
841.022,7589.8
841.295,7537.12
841.569,7459.6
841.843,7392.68
842.116,7256.4
842.39,7220.82
842.663,7185.62
842.937,7169.76
843.211,7150.8
843.484,7127.34
843.758,7007.2
844.031,6999.7
844.305,7004.08
844.578,6965.66
844.852,6888.56
845.125,6814.02
845.399,6843.34
845.672,6840.6
845.946,6867.16
846.219,6809.4
846.493,6775.22
846.766,6774.92
847.039,6766.28
847.313,6659.98
847.586,6682.86
847.86,6742.2
848.133,6719.4
848.407,6768.22
848.68,6749.32
848.953,6684.6
849.227,6638.1
849.5,6605.8
849.773,6643.22
850.047,6625.0
850.32,6660.82
850.593,6651.26
850.867,6649.78
851.14,6675.0
851.413,6663.16
851.687,6701.24
851.96,6708.22
852.233,6705.66
852.507,6642.64
852.78,6640.32
853.053,6646.12
853.326,6587.4
853.6,6594.3
853.873,6604.24
854.146,6563.64
854.419,6539.28
854.693,6518.32
854.966,6544.22
855.239,6531.48
855.512,6579.62
855.785,6550.82
856.059,6546.5
856.332,6545.14
856.605,6483.34
856.878,6459.82
857.151,6443.62
857.424,6452.08
857.698,6512.86
857.971,6552.38
858.244,6579.0
858.517,6568.82
858.79,6590.56
859.063,6658.7
859.336,6698.9
859.609,6700.52
859.882,6629.94
860.155,6609.42
860.428,6606.46
860.701,6575.18
860.974,6527.64
861.247,6506.9
861.52,6499.34
861.793,6461.04
862.066,6387.98
862.339,6396.3
862.612,6353.34
862.885,6296.64
863.158,6333.32
863.431,6345.4
863.704,6374.88
863.977,6366.0
864.25,6334.58
864.523,6337.06
864.796,6340.42
865.069,6316.14
865.342,6307.2
865.615,6354.7
865.888,6293.42
866.16,6223.46
866.433,6230.16
866.706,6238.46
866.979,6192.64
867.252,6188.32
867.525,6194.52
867.798,6161.0
868.07,6200.4
868.343,6182.96
868.616,6176.86
868.889,6148.46
869.162,6144.82
869.434,6169.28
869.707,6209.22
869.98,6189.82
870.253,6216.72
870.525,6286.48
870.798,6314.34
871.071,6302.2
871.344,6290.0
871.616,6353.44
871.889,6410.72
872.162,6494.16
872.434,6521.82
872.707,6559.24
872.98,6549.84
873.252,6540.9
873.525,6523.02
873.798,6458.88
874.07,6383.34
874.343,6292.1
874.615,6248.8
874.888,6225.04
875.161,6202.76
875.433,6151.72
875.706,6116.3
875.978,6062.9
876.251,6027.68
876.524,6012.54
876.796,5987.38
877.069,5956.62
877.341,5952.08
877.614,5935.9
877.886,5904.38
878.159,5933.0
878.431,6015.58
878.704,6003.92
878.976,5988.34
879.249,5952.68
879.521,5913.34
879.794,5865.7
880.066,5841.98
880.338,5890.62
880.611,5894.24
880.883,5908.86
881.156,5913.8
881.428,5883.22
881.7,5848.9
881.973,5805.96
882.245,5816.78
882.518,5863.92
882.79,5860.16
883.062,5875.6
883.335,5879.84
883.607,5793.78
883.879,5791.7
884.152,5796.86
884.424,5777.32
884.696,5809.34
884.968,5785.12
885.241,5778.06
885.513,5790.92
885.785,5823.6
886.058,5823.64
886.33,5780.72
886.602,5749.08
886.874,5718.28
887.146,5697.98
887.419,5669.92
887.691,5663.42
887.963,5649.48
888.235,5655.82
888.507,5632.3
888.78,5621.16
889.052,5604.16
889.324,5586.44
889.596,5588.72
889.868,5550.74
890.14,5561.18
890.412,5567.68
890.684,5601.12
890.957,5588.18
891.229,5615.84
891.501,5634.82
891.773,5648.34
892.045,5581.42
892.317,5533.22
892.589,5513.7
892.861,5512.24
893.133,5528.98
893.405,5534.08
893.677,5516.9
893.949,5498.88
894.221,5474.56
894.493,5473.84
894.765,5419.96
895.037,5342.9
895.309,5384.6
895.581,5422.3
895.853,5439.16
896.125,5420.26
896.397,5426.82
896.668,5467.88
896.94,5521.68
897.212,5569.78
897.484,5697.26
897.756,5867.9
898.028,6077.14
898.3,6196.96
898.571,6174.34
898.843,6107.58
899.115,5969.22
899.387,5800.8
899.659,5681.66
899.931,5529.34
900.202,5413.2
900.474,5352.96
900.746,5312.26
901.018,5260.98
901.289,5243.36
901.561,5220.72
901.833,5222.28
902.105,5213.36
902.376,5238.86
902.648,5248.7
902.92,5253.6
903.191,5229.88
903.463,5182.06
903.735,5156.52
904.006,5179.74
904.278,5208.58
904.55,5219.9
904.821,5194.74
905.093,5193.78
905.365,5218.44
905.636,5203.7
905.908,5222.7
906.179,5284.6
906.451,5380.0
906.722,5480.06
906.994,5566.54
907.266,5615.16
907.537,5595.6
907.809,5639.94
908.08,5649.02
908.352,5603.82
908.623,5562.26
908.895,5464.48
909.166,5380.38
909.438,5321.76
909.709,5229.14
909.981,5155.62
910.252,5129.5
910.523,5079.32
910.795,5039.4
911.066,5017.62
911.338,4985.36
911.609,4929.02
911.881,4925.46
912.152,4961.98
912.423,4984.38
912.695,4964.82
912.966,4938.98
913.237,4921.62
913.509,4907.68
913.78,4915.92
914.051,4934.22
914.323,4918.96
914.594,4889.54
914.865,4854.24
915.136,4843.94
915.408,4838.46
915.679,4841.28
915.95,4832.78
916.221,4846.98
916.493,4852.22
916.764,4858.94
917.035,4825.86
917.306,4807.34
917.578,4801.74
917.849,4798.84
918.12,4791.6
918.391,4786.68
918.662,4800.08
918.933,4810.26
919.204,4811.12
919.476,4747.9
919.747,4742.06
920.018,4741.38
920.289,4741.0
920.56,4721.38
920.831,4725.6
921.102,4734.64
921.373,4711.46
921.644,4716.98
921.915,4715.16
922.186,4694.4
922.457,4667.76
922.728,4679.48
922.999,4682.28
923.27,4667.68
923.541,4641.4
923.812,4642.0
924.083,4650.56
924.354,4646.9
924.625,4639.72
924.896,4617.24
925.167,4626.12
925.438,4633.16
925.709,4636.34
925.98,4624.4
926.251,4580.24
926.522,4561.96
926.792,4566.52
927.063,4581.56
927.334,4585.88
927.605,4585.22
927.876,4571.88
928.147,4556.52
928.417,4540.7
928.688,4523.1
928.959,4529.74
929.23,4531.56
929.501,4527.86
929.771,4527.8
930.042,4524.56
930.313,4498.26
930.584,4477.16
930.854,4479.02
931.125,4480.46
931.396,4496.34
931.666,4494.02
931.937,4478.78
932.208,4461.32
932.478,4453.86
932.749,4452.02
933.02,4453.24
933.29,4456.6
933.561,4445.58
933.832,4447.22
934.102,4419.98
934.373,4414.02
934.643,4416.26
934.914,4400.34
935.184,4397.76
935.455,4384.94
935.726,4383.32
935.996,4389.02
936.267,4385.54
936.537,4383.06
936.808,4375.82
937.078,4380.22
937.349,4382.08
937.619,4374.58
937.89,4363.66
938.16,4355.02
938.43,4343.46
938.701,4327.54
938.971,4324.82
939.242,4338.0
939.512,4335.82
939.782,4335.14
940.053,4346.06
940.323,4336.44
940.594,4319.78
940.864,4300.82
941.134,4298.56
941.405,4293.7
941.675,4295.86
941.945,4291.34
942.216,4288.38
942.486,4278.28
942.756,4286.0
943.026,4287.76
943.297,4284.86
943.567,4259.8
943.837,4249.18
944.107,4251.24
944.378,4246.62
944.648,4251.48
944.918,4250.62
945.188,4241.3
945.458,4236.92
945.729,4228.76
945.999,4232.0
946.269,4234.14
946.539,4235.18
946.809,4226.82
947.079,4216.04
947.349,4202.98
947.62,4199.24
947.89,4203.02
948.16,4204.92
948.43,4204.14
948.7,4205.74
948.97,4206.68
949.24,4192.82
949.51,4180.7
949.78,4183.14
950.05,4185.96
950.32,4173.28
950.59,4164.98
950.86,4167.58
951.13,4178.54
951.4,4172.68
951.67,4159.9
951.94,4155.78
952.21,4146.68
952.48,4136.1
952.75,4133.92
953.02,4128.7
953.289,4127.98
953.559,4137.32
953.829,4142.24
954.099,4140.2
954.369,4136.5
954.639,4130.56
954.909,4119.08
955.178,4117.14
955.448,4119.44
955.718,4109.16
955.988,4094.96
956.257,4085.9
956.527,4082.5
956.797,4098.86
957.067,4106.26
957.336,4106.22
957.606,4100.9
957.876,4092.12
958.146,4080.12
958.415,4079.98
958.685,4079.14
958.955,4068.44
959.224,4074.58
959.494,4078.44
959.764,4069.06
960.033,4053.04
960.303,4054.8
960.572,4058.04
960.842,4051.88
961.112,4048.12
961.381,4055.4
961.651,4046.7
961.92,4046.44
962.19,4044.34
962.459,4041.84
962.729,4038.7
962.998,4035.52
963.268,4032.04
963.537,4037.06
963.807,4036.76
964.076,4023.32
964.346,4021.32
964.615,4026.12
964.885,4029.06
965.154,4023.2
965.424,4021.72
965.693,4019.92
965.962,4004.58
966.232,3999.2
966.501,4002.38
966.771,4001.78
967.04,3999.96
967.309,3997.44
967.579,3996.64
967.848,3990.2
968.117,3992.94
968.387,3999.44
968.656,3997.62
968.925,3991.42
969.194,3982.78
969.464,3983.76
969.733,3982.26
970.002,3980.98
970.271,3979.18
970.541,3972.4
970.81,3967.04
971.079,3967.64
971.348,3970.14
971.617,3964.76
971.887,3960.26
972.156,3965.84
972.425,3967.28
972.694,3958.84
972.963,3953.64
973.232,3951.78
973.501,3951.22
973.77,3948.16
974.04,3951.28
974.309,3946.88
974.578,3949.44
974.847,3953.7
975.116,3945.92
975.385,3943.82
975.654,3944.18
975.923,3938.3
976.192,3936.06
976.461,3932.26
976.73,3932.42
976.999,3924.94
977.268,3926.14
977.537,3924.14
977.806,3925.1
978.074,3928.46
978.343,3920.06
978.612,3917.16
978.881,3919.98
979.15,3921.7
979.419,3921.78
979.688,3915.16
979.957,3917.04
980.225,3915.94
980.494,3910.44
980.763,3905.16
981.032,3905.36
981.301,3903.12
981.569,3899.64
981.838,3902.26
982.107,3901.56
982.376,3899.84
982.644,3902.22
982.913,3897.56
983.182,3894.94
983.451,3893.5
983.719,3894.58
983.988,3896.54
984.257,3894.02
984.525,3884.88
984.794,3883.52
985.063,3883.66
985.331,3889.5
985.6,3883.64
985.868,3879.94
986.137,3877.74
986.406,3880.66
986.674,3883.46
986.943,3880.86
987.211,3879.36
987.48,3877.86
987.748,3873.04
988.017,3875.66
988.285,3875.46
988.554,3873.82
988.822,3873.34
989.091,3871.08
989.359,3870.72
989.628,3865.58
989.896,3858.88
990.164,3859.4
990.433,3859.16
990.701,3858.98
990.97,3862.22
991.238,3861.72
991.506,3861.02
991.775,3859.82
992.043,3848.36
992.311,3848.5
992.58,3847.8
992.848,3848.0
993.116,3844.92
993.385,3846.18
993.653,3846.44
993.921,3844.44
994.19,3846.02
994.458,3848.62
994.726,3842.52
994.994,3841.44
995.262,3841.52
995.531,3842.38
995.799,3840.98
996.067,3838.72
996.335,3838.56
996.603,3838.96
996.872,3836.12
997.14,3830.3
997.408,3827.9
997.676,3832.42
997.944,3832.22
998.212,3831.04
998.48,3828.24
998.748,3828.68
999.016,3825.5
999.284,3825.18
999.552,3825.56
999.82,3827.18
1000.09,3825.6
1000.36,3823.5
1000.62,3822.74
1000.89,3819.72
1001.16,3817.2
1001.43,3815.86
1001.7,3819.18
1001.96,3816.58
1002.23,3815.94
1002.5,3813.76
1002.77,3813.52
1003.04,3812.96
1003.3,3814.98
1003.57,3814.44
1003.84,3814.3
1004.11,3812.94
1004.38,3811.04
1004.64,3809.92
1004.91,3812.92
1005.18,3811.8
1005.45,3810.02
1005.71,3808.68
1005.98,3804.56
1006.25,3802.46
1006.52,3803.96
1006.79,3801.12
1007.05,3801.56
1007.32,3801.72
1007.59,3799.62
1007.86,3799.36
1008.12,3799.24
1008.39,3798.86
1008.66,3798.28
1008.93,3797.92
1009.19,3797.82
1009.46,3796.56
1009.73,3793.56
1010.0,3793.26
1010.26,3793.12
1010.53,3791.02
1010.8,3790.92
1011.07,3789.86
1011.33,3790.82
1011.6,3791.2
1011.87,3791.58
1012.14,3789.12
1012.4,3788.32
1012.67,3790.02
1012.94,3789.08
1013.21,3788.22
1013.47,3786.2
1013.74,3785.4
1014.01,3786.74
1014.28,3787.58
1014.54,3785.36
1014.81,3786.34
1015.08,3784.48
1015.35,3783.58
1015.61,3785.14
1015.88,3785.34
1016.15,3784.0
1016.42,3783.72
1016.68,3782.9
1016.95,3781.84
1017.22,3782.52
1017.48,3781.12
1017.75,3782.16
1018.02,3781.52
1018.29,3780.88
1018.55,3781.68
1018.82,3779.28
1019.09,3776.14
1019.36,3776.62
1019.62,3777.76
1019.89,3775.98
1020.16,3778.52
1020.42,3777.66
1020.69,3778.44
1020.96,3780.02
1021.23,3780.58
1021.49,3782.58
1021.76,3783.18
1022.03,3784.8
1022.29,3787.58
1022.56,3786.94
1022.83,3787.18
1023.09,3784.14
1023.36,3782.26
1023.63,3783.96
1023.9,3783.32
1024.16,3781.28
1024.43,3780.84
1024.7,3778.48
1024.96,3776.04
1025.23,3775.5
1025.5,3773.88
1025.76,3772.62
1026.03,3771.16
1026.3,3769.2
1026.56,3769.78
1026.83,3770.16
1027.1,3769.1
1027.37,3767.66
1027.63,3764.24
1027.9,3763.26
1028.17,3762.42
1028.43,3761.8
1028.7,3760.8
1028.97,3760.6
1029.23,3760.88
1029.5,3760.32
1029.77,3759.7
1030.03,3760.02
1030.3,3759.2
1030.57,3758.1
1030.83,3758.7
1031.1,3757.46
1031.37,3759.62
1031.63,3758.0
1031.9,3757.92
1032.17,3757.32
1032.43,3755.6
1032.7,3757.74
1032.97,3757.94
1033.23,3759.04
1033.5,3760.64
1033.77,3760.74
1034.03,3760.74
1034.3,3761.58
1034.57,3763.22
1034.83,3763.16
1035.1,3762.56
1035.36,3762.68
1035.63,3762.56
1035.9,3762.36
1036.16,3761.66
1036.43,3760.38
1036.7,3760.3
1036.96,3757.76
1037.23,3756.08
1037.5,3755.42
1037.76,3753.04
1038.03,3752.36
1038.3,3750.64
1038.56,3750.2
1038.83,3750.14
1039.09,3749.84
1039.36,3749.86
1039.63,3749.2
1039.89,3748.04
1040.16,3749.14
1040.43,3748.74
1040.69,3748.22
1040.96,3746.74
1041.22,3746.9
1041.49,3745.92
1041.76,3745.96
1042.02,3745.36
1042.29,3747.1
1042.55,3747.0
1042.82,3745.64
1043.09,3744.1
1043.35,3745.22
1043.62,3745.06
1043.89,3744.88
1044.15,3745.76
1044.42,3745.08
1044.68,3743.18
1044.95,3744.02
1045.22,3744.24
1045.48,3743.08
1045.75,3743.3
1046.01,3741.36
1046.28,3742.94
1046.55,3741.52
1046.81,3743.88
1047.08,3742.8
1047.34,3742.12
1047.61,3741.94
1047.88,3742.14
1048.14,3742.08
1048.41,3741.32
1048.67,3742.08
1048.94,3742.16
1049.2,3741.12
1049.47,3741.14
1049.74,3741.14
1050.0,3741.76
1050.27,3741.2
1050.53,3742.06
1050.8,3741.58
1051.06,3740.98
1051.33,3741.38
1051.6,3742.22
1051.86,3741.54
1052.13,3741.48
1052.39,3740.04
1052.66,3741.16
1052.92,3740.84
1053.19,3740.6
1053.46,3741.56
1053.72,3739.62
1053.99,3740.34
1054.25,3740.7
1054.52,3739.72
1054.78,3740.46
1055.05,3738.98
1055.32,3740.58
1055.58,3739.24
1055.85,3739.56
1056.11,3739.24
1056.38,3739.32
1056.64,3739.48
1056.91,3739.96
1057.17,3739.86
1057.44,3739.0
1057.7,3738.68
1057.97,3738.18
1058.24,3738.16
1058.5,3739.4
1058.77,3737.96
1059.03,3738.36
1059.3,3738.6
1059.56,3738.78
1059.83,3738.74
1060.09,3738.32
1060.36,3738.94
1060.62,3738.64
1060.89,3738.22
1061.15,3739.08
1061.42,3738.0
1061.68,3738.68
1061.95,3739.22
1062.22,3737.86
1062.48,3738.22
1062.75,3738.06
1063.01,3737.62
1063.28,3738.46
1063.54,3737.56
1063.81,3738.14
1064.07,3738.32
1064.34,3736.64
1064.6,3736.68
1064.87,3737.48
1065.13,3737.54
1065.4,3737.8
1065.66,3737.88
1065.93,3737.62
1066.19,3736.74
1066.46,3737.6
1066.72,3737.42
1066.99,3736.78
1067.25,3736.92
1067.52,3737.1
1067.78,3736.22
1068.05,3736.04