File: spectra/VLFR_01-LDPE_bio_Raman_1605469c.csv
nm,Intensity
528.635,1834.6
528.803,1835.5
528.972,1833.4
529.14,1834.4
529.308,1833.8
529.477,1835.5
529.645,1834.2
529.814,1834.6
529.982,1834.4
530.151,1834.0
530.319,1836.1
530.487,1837.8
530.656,1835.6
530.824,1837.7
530.993,1835.5
531.161,1837.7
531.329,1838.5
531.498,1842.4
531.666,1873.1
531.835,2426.9
532.003,4830.1
532.171,4376.8
532.34,2075.2
532.508,1838.4
532.676,1837.7
532.845,1834.8
533.013,1836.2
533.181,1836.4
533.35,1838.1
533.518,1864.1
533.686,2013.3
533.854,2245.9
534.023,2383.0
534.191,2380.2
534.359,2358.2
534.528,2337.4
534.696,2312.9
534.864,2301.7
535.032,2273.7
535.201,2235.5
535.369,2228.4
535.537,2186.8
535.705,2150.9
535.874,2150.2
536.042,2127.3
536.21,2112.5
536.378,2113.9
536.546,2099.9
536.715,2112.4
536.883,2093.4
537.051,2089.3
537.219,2088.8
537.387,2086.8
537.556,2088.7
537.724,2075.5
537.892,2082.2
538.06,2082.6
538.228,2082.0
538.396,2066.4
538.565,2065.7
538.733,2059.9
538.901,2062.0
539.069,2049.4
539.237,2046.6
539.405,2032.5
539.573,2018.0
539.741,2029.1
539.909,2019.9
540.077,2022.0
540.246,2021.4
540.414,2018.3
540.582,2012.1
540.75,2006.8
540.918,1997.8
541.086,2007.4
541.254,2005.3
541.422,2005.8
541.59,2002.9
541.758,2009.4
541.926,2002.3
542.094,2005.7
542.262,2002.2
542.43,2011.7
542.598,2013.3
542.766,2000.0
542.934,2011.4
543.102,2009.4
543.27,2009.6
543.438,2002.6
543.606,1999.7
543.774,2008.5
543.942,2000.8
544.11,2000.9
544.278,2001.0
544.445,1991.0
544.613,1990.2
544.781,1991.2
544.949,1994.6
545.117,1986.2
545.285,1985.3
545.453,1981.9
545.621,1995.8
545.789,1992.0
545.957,1989.8
546.124,1988.0
546.292,1986.5
546.46,1989.9
546.628,1979.2
546.796,1997.1
546.964,1981.5
547.131,1986.3
547.299,1990.0
547.467,1986.5
547.635,1992.0
547.803,1994.6
547.97,2000.9
548.138,1984.6
548.306,1980.5
548.474,1991.2
548.642,1981.0
548.809,1979.3
548.977,1972.6
549.145,1978.3
549.313,1979.5
549.48,1985.5
549.648,1980.6
549.816,1987.5
549.983,1983.1
550.151,1977.7
550.319,1981.7
550.487,1985.3
550.654,1983.0
550.822,1977.3
550.99,1984.1
551.157,1986.2
551.325,1988.5
551.493,1982.4
551.66,1975.8
551.828,1988.8
551.996,1993.3
552.163,1982.9
552.331,1991.3
552.499,1986.6
552.666,1991.6
552.834,1985.9
553.001,2001.4
553.169,2010.1
553.337,2018.5
553.504,2027.0
553.672,2013.7
553.839,2015.1
554.007,2020.0
554.174,2023.8
554.342,2021.5
554.509,2022.8
554.677,2031.8
554.845,2026.3
555.012,2033.2
555.18,2036.3
555.347,2040.5
555.515,2043.0
555.682,2033.0
555.85,2051.8
556.017,2057.4
556.185,2064.8
556.352,2071.2
556.52,2062.5
556.687,2071.5
556.854,2089.9
557.022,2092.0
557.189,2104.1
557.357,2093.8
557.524,2114.7
557.692,2114.9
557.859,2127.6
558.026,2133.7
558.194,2136.0
558.361,2142.5
558.529,2148.8
558.696,2144.4
558.863,2130.4
559.031,2118.2
559.198,2104.9
559.365,2088.5
559.533,2098.6
559.7,2099.3
559.867,2089.1
560.035,2088.0
560.202,2079.5
560.369,2089.6
560.537,2076.0
560.704,2076.6
560.871,2077.0
561.039,2091.8
561.206,2092.5
561.373,2092.9
561.54,2098.4
561.708,2091.6
561.875,2106.8
562.042,2104.5
562.209,2125.2
562.377,2133.0
562.544,2140.7
562.711,2156.9
562.878,2153.6
563.046,2169.5
563.213,2178.3
563.38,2200.1
563.547,2247.4
563.714,2427.5
563.881,2791.7
564.049,2952.6
564.216,2684.7
564.383,2415.2
564.55,2394.6
564.717,2383.1
564.884,2315.4
565.052,2273.9
565.219,2253.7
565.386,2244.5
565.553,2255.6
565.72,2354.2
565.887,2584.2
566.054,2954.2
566.221,2917.9
566.388,2527.0
566.555,2311.9
566.722,2245.3
566.889,2205.1
567.056,2205.4
567.224,2216.6
567.391,2270.6
567.558,2253.6
567.725,2203.0
567.892,2166.6
568.059,2151.8
568.226,2142.4
568.393,2144.2
568.56,2158.9
568.727,2157.9
568.893,2154.9
569.06,2162.9
569.227,2157.5
569.394,2176.9
569.561,2175.5
569.728,2165.4
569.895,2187.5
570.062,2198.2
570.229,2216.6
570.396,2227.4
570.563,2237.5
570.73,2275.6
570.897,2308.1
571.063,2366.2
571.23,2615.7
571.397,3210.7
571.564,3703.3
571.731,3047.5
571.898,2635.7
572.064,2544.3
572.231,2469.3
572.398,2366.7
572.565,2330.9
572.732,2283.6
572.899,2280.5
573.065,2290.7
573.232,2258.4
573.399,2274.1
573.566,2296.3
573.732,2319.9
573.899,2350.0
574.066,2362.0
574.233,2280.8
574.399,2283.1
574.566,2269.4
574.733,2293.2
574.9,2302.8
575.066,2320.2
575.233,2408.9
575.4,2617.1
575.566,2843.4
575.733,2853.7
575.9,2928.4
576.066,3274.5
576.233,3666.0
576.4,3605.0
576.566,3378.1
576.733,3259.9
576.899,3227.2
577.066,3145.1
577.233,2990.1
577.399,2798.3
577.566,2632.1
577.732,2612.7
577.899,2533.4
578.066,2523.3
578.232,2566.6
578.399,2548.2
578.565,2548.2
578.732,2576.4
578.898,2579.5
579.065,2611.1
579.231,2620.9
579.398,2597.8
579.564,2602.6
579.731,2666.2
579.897,2646.4
580.064,2663.0
580.23,2702.9
580.397,2723.9
580.563,2706.3
580.73,2721.3
580.896,2764.3
581.063,2730.8
581.229,2701.9
581.396,2780.5
581.562,2776.6
581.728,2750.0
581.895,2815.3
582.061,2807.1
582.228,2777.0
582.394,2817.6
582.56,2852.9
582.727,2781.9
582.893,2805.3
583.059,2867.3
583.226,2849.0
583.392,2839.2
583.558,2836.2
583.725,2889.1
583.891,2890.2
584.057,2883.5
584.224,2910.8
584.39,2878.2
584.556,2906.5
584.722,2945.9
584.889,2910.4
585.055,2943.1
585.221,2908.4
585.387,2934.5
585.554,2943.1
585.72,2921.9
585.886,2956.3
586.052,2973.5
586.219,2953.0
586.385,3004.5
586.551,2996.5
586.717,3056.8
586.883,3029.9
587.049,3089.5
587.216,3038.5
587.382,3092.0
587.548,3105.3
587.714,3174.8
587.88,3147.8
588.046,3134.1
588.212,3161.0
588.379,3226.0
588.545,3201.7
588.711,3251.9
588.877,3224.4
589.043,3252.6
589.209,3322.9
589.375,3233.8
589.541,3320.7
589.707,3370.7
589.873,3328.4
590.039,3385.2
590.205,3361.0
590.371,3408.1
590.537,3379.1
590.703,3502.2
590.869,3482.3
591.035,3457.2
591.201,3454.7
591.367,3512.7
591.533,3504.6
591.699,3590.1
591.865,3607.1
592.031,3571.6
592.197,3658.3
592.363,3588.5
592.529,3651.3
592.695,3690.1
592.86,3706.2
593.026,3705.0
593.192,3689.7
593.358,3751.0
593.524,3736.6
593.69,3698.3
593.856,3766.9
594.022,3798.3
594.187,3793.5
594.353,3833.8
594.519,3857.7
594.685,3915.2
594.851,3874.5
595.016,3863.5
595.182,3930.4
595.348,3904.0
595.514,3986.1
595.679,3968.7
595.845,4025.4
596.011,4080.0
596.177,4031.2
596.342,4025.1
596.508,4099.3
596.674,4093.6
596.84,4138.4
597.005,4145.7
597.171,4171.5
597.337,4169.3
597.502,4213.2
597.668,4208.2
597.834,4246.7
597.999,4302.4
598.165,4263.4
598.331,4278.4
598.496,4285.4
598.662,4385.0
598.827,4344.0
598.993,4347.7
599.159,4384.8
599.324,4381.8
599.49,4371.9
599.655,4435.1
599.821,4386.0
599.987,4426.0
600.152,4489.9
600.318,4392.2
600.483,4374.2
600.649,4367.8
600.814,4429.9
600.98,4393.9
601.145,4388.3
601.311,4451.8
601.476,4301.4
601.642,4371.7
601.807,4467.4
601.973,4343.6
602.138,4314.7
602.303,4281.9
602.469,4244.4
602.634,4288.5
602.8,4170.6
602.965,4214.5
603.13,4214.9
603.296,4197.2
603.461,4136.5
603.627,4071.7
603.792,4079.1
603.957,4011.4
604.123,4000.3
604.288,4004.6
604.453,3979.2
604.619,3923.9
604.784,3916.3
604.949,3904.0
605.115,3850.3
605.28,3831.5
605.445,3793.4
605.61,3716.1
605.776,3732.4
605.941,3726.4
606.106,3677.9
606.272,3684.7
606.437,3645.0
606.602,3612.0
606.767,3607.4
606.932,3523.7
607.098,3539.2
607.263,3580.6
607.428,3487.9
607.593,3513.4
607.758,3460.4
607.923,3469.1
608.089,3413.3
608.254,3408.2
608.419,3412.6
608.584,3395.6
608.749,3353.1
608.914,3318.6
609.079,3308.6
609.244,3355.5
609.41,3266.9
609.575,3314.1
609.74,3306.0
609.905,3313.5
610.07,3236.0
610.235,3278.5
610.4,3293.7
610.565,3222.7
610.73,3237.6
610.895,3229.3
611.06,3277.0
611.225,3221.9
611.39,3250.2
611.555,3171.1
611.72,3195.9
611.885,3126.0
612.05,3204.6
612.215,3140.2
612.38,3153.2
612.545,3132.5
612.709,3109.9
612.874,3103.4
613.039,3073.1
613.204,3091.8
613.369,3119.5
613.534,3085.9
613.699,3084.3
613.864,3049.7
614.028,3031.9
614.193,3041.4
614.358,3080.4
614.523,3037.2
614.688,3028.7
614.853,3003.9
615.017,2993.4
615.182,3005.0
615.347,2971.5
615.512,3001.1
615.676,3009.2
615.841,2990.2
616.006,2976.2
616.171,2970.7
616.335,2983.0
616.5,2998.0
616.665,2973.2
616.829,2970.1
616.994,2963.8
617.159,3011.9
617.324,2997.8
617.488,2982.2
617.653,2970.7
617.818,2998.6
617.982,2979.5
618.147,2966.3
618.311,2945.9
618.476,2979.4
618.641,2946.3
618.805,2958.0
618.97,2938.0
619.134,2914.4
619.299,3029.4
619.463,2977.5
619.628,2989.9
619.793,2968.3
619.957,2972.4
620.122,2946.3
620.286,2964.8
620.451,2908.0
620.615,2978.1
620.78,2970.0
620.944,2995.8
621.109,3005.1
621.273,3029.1
621.438,3036.4
621.602,3090.5
621.766,3184.8
621.931,3211.1
622.095,3318.2
622.26,3268.1
622.424,3291.3
622.588,3188.3
622.753,3113.3
622.917,3024.3
623.082,3000.9
623.246,2915.0
623.41,2919.8
623.575,2903.0
623.739,2890.3
623.903,2888.1
624.068,2906.6
624.232,2868.6
624.396,2854.3
624.56,2903.7
624.725,2878.2
624.889,2874.4
625.053,2905.3
625.218,2885.8
625.382,2908.7
625.546,2973.3
625.71,2968.5
625.874,3021.1
626.039,3035.9
626.203,3190.5
626.367,3431.7
626.531,3905.0
626.695,4855.7
626.86,6359.4
627.024,8072.2
627.188,9299.2
627.352,8949.5
627.516,7706.2
627.68,7001.6
627.844,6771.7
628.008,6785.6
628.172,7266.6
628.337,8609.2
628.501,9640.8
628.665,9014.1
628.829,7825.2
628.993,7155.6
629.157,7008.5
629.321,6415.7
629.485,6188.7
629.649,5778.1
629.813,5506.9
629.977,5426.5
630.141,5265.0
630.305,5151.2
630.469,5070.8
630.633,4840.5
630.797,4587.5
630.961,3974.5
631.124,3614.5
631.288,3439.7
631.452,3298.7
631.616,3217.5
631.78,3129.7
631.944,3024.0
632.108,3022.3
632.272,2955.3
632.436,2939.1
632.599,2894.4
632.763,2853.1
632.927,2899.9
633.091,2842.7
633.255,2813.3
633.418,2809.2
633.582,2780.0
633.746,2821.3
633.91,2796.3
634.074,2765.8
634.237,2789.2
634.401,2744.7
634.565,2749.4
634.728,2714.0
634.892,2760.1
635.056,2769.3
635.22,2715.0
635.383,2730.8
635.547,2676.0
635.711,2676.8
635.874,2741.9
636.038,2709.7
636.202,2688.6
636.365,2694.6
636.529,2684.1
636.692,2688.2
636.856,2663.4
637.02,2675.8
637.183,2681.5
637.347,2666.4
637.51,2671.3
637.674,2658.4
637.837,2665.6
638.001,2669.9
638.164,2658.1
638.328,2703.7
638.491,2683.4
638.655,2662.1
638.818,2642.1
638.982,2650.7
639.145,2640.4
639.309,2674.8
639.472,2658.7
639.636,2684.8
639.799,2682.3
639.963,2661.5
640.126,2669.0
640.289,2656.0
640.453,2643.0
640.616,2631.7
640.78,2732.3
640.943,2685.1
641.106,2639.3
641.27,2611.4
641.433,2669.2
641.596,2657.4
641.76,2675.2
641.923,2657.2
642.086,2662.0
642.249,2683.0
642.413,2704.2
642.576,2726.9
642.739,2639.2
642.903,2672.1
643.066,2683.1
643.229,2685.9
643.392,2670.0
643.555,2673.4
643.719,2669.1
643.882,2695.3
644.045,2699.7
644.208,2701.6
644.371,2703.1
644.534,2687.7
644.698,2668.7
644.861,2735.1
645.024,2692.3
645.187,2682.4
645.35,2701.1
645.513,2694.6
645.676,2719.1
645.839,2668.3
646.002,2652.6
646.165,2711.7
646.329,2684.2
646.492,2705.3
646.655,2712.5
646.818,2692.5
646.981,2643.0
647.144,2704.7
647.307,2703.2
647.47,2725.7
647.633,2659.7
647.796,2673.1
647.958,2649.4
648.121,2737.9
648.284,2668.5
648.447,2649.0
648.61,2690.8
648.773,2686.7
648.936,2672.6
649.099,2656.2
649.262,2648.4
649.425,2663.8
649.587,2656.4
649.75,2694.7
649.913,2693.3
650.076,2642.8
650.239,2675.1
650.402,2682.1
650.564,2691.2
650.727,2659.0
650.89,2639.1
651.053,2655.3
651.215,2658.7
651.378,2677.6
651.541,2644.9
651.704,2625.0
651.866,2636.8
652.029,2626.0
652.192,2685.2
652.354,2659.0
652.517,2625.8
652.68,2642.7
652.842,2662.2
653.005,2655.4
653.168,2607.5
653.33,2626.7
653.493,2638.5
653.656,2608.7
653.818,2621.9
653.981,2622.8
654.143,2602.2
654.306,2631.9
654.468,2626.0
654.631,2597.1
654.794,2608.5
654.956,2583.4
655.119,2585.2
655.281,2576.3
655.444,2576.7
655.606,2560.6
655.769,2554.1
655.931,2574.6
656.093,2606.8
656.256,2572.7
656.418,2571.8
656.581,2554.4
656.743,2519.2
656.906,2484.7
657.068,2513.7
657.23,2489.7
657.393,2522.8
657.555,2514.0
657.718,2456.2
657.88,2451.6
658.042,2462.2
658.205,2460.8
658.367,2461.1
658.529,2429.7
658.691,2463.8
658.854,2445.7
659.016,2414.7
659.178,2385.1
659.341,2421.2
659.503,2387.5
659.665,2402.5
659.827,2393.9
659.989,2366.5
660.152,2358.5
660.314,2332.4
660.476,2347.8
660.638,2365.0
660.8,2353.9
660.963,2345.1
661.044,2347.7