File: spectra/VLFR_08-PLA_bio_Raman_c07f32cf.csv
nm,Intensity
528.626,1862.5
528.795,1862.7
528.963,1863.0
529.132,1861.8
529.3,1862.5
529.469,1862.3
529.637,1862.4
529.806,1862.0
529.974,1861.9
530.143,1860.9
530.311,1861.7
530.48,1862.1
530.648,1864.1
530.816,1862.1
530.985,1865.9
531.153,1865.4
531.322,1869.4
531.49,1873.3
531.658,1910.4
531.827,2445.7
531.995,4265.6
532.164,5149.5
532.332,2252.2
532.5,1870.1
532.669,1865.1
532.837,1863.4
533.006,1866.1
533.174,1866.0
533.342,1870.9
533.511,1904.7
533.679,2138.4
533.847,2577.4
534.016,2839.3
534.184,2926.5
534.352,2818.5
534.521,2741.3
534.689,2705.7
534.857,2650.3
535.025,2644.5
535.194,2613.2
535.362,2560.9
535.53,2538.4
535.699,2491.8
535.867,2468.9
536.035,2443.9
536.203,2472.1
536.372,2472.3
536.54,2482.5
536.708,2493.6
536.876,2461.7
537.044,2432.8
537.213,2435.2
537.381,2455.8
537.549,2458.0
537.717,2472.4
537.885,2427.6
538.054,2411.8
538.222,2376.6
538.39,2367.7
538.558,2354.5
538.726,2370.7
538.894,2370.2
539.063,2379.8
539.231,2368.6
539.399,2384.5
539.567,2348.2
539.735,2312.0
539.903,2314.1
540.071,2339.4
540.239,2362.0
540.408,2401.6
540.576,2406.5
540.744,2417.1
540.912,2426.4
541.08,2452.9
541.248,2427.3
541.416,2409.1
541.584,2405.7
541.752,2389.1
541.92,2349.4
542.088,2348.3
542.256,2355.7
542.424,2360.1
542.592,2372.1
542.76,2394.9
542.928,2399.4
543.096,2450.3
543.264,2516.7
543.432,2551.7
543.6,2586.7
543.768,2552.2
543.936,2551.4
544.104,2540.2
544.272,2435.5
544.44,2415.3
544.608,2412.2
544.776,2398.4
544.944,2391.5
545.112,2364.6
545.28,2362.3
545.448,2337.8
545.616,2339.7
545.784,2356.7
545.951,2352.1
546.119,2348.9
546.287,2337.1
546.455,2344.2
546.623,2356.8
546.791,2374.0
546.959,2378.2
547.127,2393.4
547.294,2379.8
547.462,2355.9
547.63,2378.1
547.798,2368.3
547.966,2366.9
548.134,2385.2
548.301,2365.8
548.469,2378.4
548.637,2382.0
548.805,2412.7
548.972,2384.5
549.14,2386.7
549.308,2391.7
549.476,2395.1
549.644,2391.5
549.811,2390.4
549.979,2397.7
550.147,2392.9
550.315,2394.9
550.482,2415.9
550.65,2432.9
550.818,2428.5
550.985,2448.9
551.153,2453.2
551.321,2445.4
551.488,2454.8
551.656,2462.7
551.824,2457.4
551.991,2471.7
552.159,2480.1
552.327,2473.7
552.494,2483.3
552.662,2473.2
552.83,2455.1
552.997,2473.8
553.165,2474.7
553.333,2465.1
553.5,2433.2
553.668,2476.8
553.835,2513.4
554.003,2513.3
554.171,2516.9
554.338,2487.2
554.506,2499.6
554.673,2486.2
554.841,2481.4
555.008,2458.8
555.176,2442.9
555.343,2439.3
555.511,2416.2
555.679,2432.6
555.846,2422.8
556.014,2440.1
556.181,2407.7
556.349,2418.4
556.516,2447.6
556.684,2451.7
556.851,2457.0
557.018,2501.7
557.186,2510.8
557.353,2569.3
557.521,2662.9
557.688,2851.6
557.856,3139.5
558.023,3430.4
558.191,3319.0
558.358,2930.0
558.525,2691.4
558.693,2608.8
558.86,2589.7
559.028,2575.3
559.195,2564.2
559.362,2565.6
559.53,2557.0
559.697,2545.0
559.864,2513.4
560.032,2525.6
560.199,2500.7
560.366,2513.6
560.534,2525.3
560.701,2502.4
560.868,2518.0
561.036,2501.0
561.203,2486.4
561.37,2508.4
561.538,2493.2
561.705,2510.5
561.872,2501.8
562.039,2487.6
562.207,2522.2
562.374,2505.5
562.541,2538.4
562.708,2579.3
562.876,2593.9
563.043,2676.1
563.21,2690.0
563.377,2792.7
563.545,2796.0
563.712,2720.2
563.879,2661.1
564.046,2602.2
564.213,2555.6
564.38,2589.5
564.548,2628.3
564.715,2650.1
564.882,2709.9
565.049,2724.4
565.216,2727.7
565.383,2714.8
565.551,2703.2
565.718,2774.1
565.885,2848.7
566.052,2936.0
566.219,2885.9
566.386,2819.1
566.553,2706.1
566.72,2613.3
566.887,2590.8
567.054,2570.3
567.221,2551.5
567.388,2587.4
567.555,2597.3
567.722,2613.9
567.889,2650.5
568.057,2625.6
568.224,2618.4
568.391,2605.3
568.558,2603.2
568.725,2619.1
568.892,2597.5
569.058,2627.5
569.225,2616.6
569.392,2589.9
569.559,2594.0
569.726,2567.4
569.893,2612.9
570.06,2618.0
570.227,2605.5
570.394,2606.5
570.561,2604.7
570.728,2609.3
570.895,2621.8
571.062,2607.4
571.229,2661.9
571.395,2732.9
571.562,2779.2
571.729,2821.5
571.896,2770.3
572.063,2721.0
572.23,2721.3
572.397,2723.5
572.563,2713.5
572.73,2729.0
572.897,2693.6
573.064,2705.7
573.231,2707.5
573.397,2760.5
573.564,2736.5
573.731,2708.7
573.898,2724.6
574.064,2734.4
574.231,2710.5
574.398,2743.8
574.565,2770.8
574.731,2716.5
574.898,2669.1
575.065,2639.8
575.232,2593.2
575.398,2637.0
575.565,2632.4
575.732,2644.3
575.898,2688.4
576.065,2685.1
576.232,2785.2
576.398,2909.7
576.565,3076.2
576.732,3175.4
576.898,3154.8
577.065,3035.7
577.232,2860.2
577.398,2727.4
577.565,2668.5
577.731,2653.0
577.898,2645.1
578.065,2631.0
578.231,2634.3
578.398,2616.8
578.564,2630.0
578.731,2616.4
578.897,2627.0
579.064,2619.7
579.23,2626.9
579.397,2626.7
579.563,2625.2
579.73,2626.8
579.896,2617.9
580.063,2630.3
580.229,2623.1
580.396,2634.1
580.562,2653.3
580.729,2626.1
580.895,2621.2
581.062,2607.2
581.228,2657.0
581.395,2626.4
581.561,2614.7
581.728,2654.7
581.894,2642.8
582.06,2648.3
582.227,2623.1
582.393,2623.6
582.56,2635.6
582.726,2613.3
582.892,2637.6
583.059,2616.7
583.225,2601.3
583.391,2640.0
583.558,2659.3
583.724,2617.4
583.89,2608.2
584.057,2666.3
584.223,2656.7
584.389,2626.9
584.556,2649.1
584.722,2637.9
584.888,2637.5
585.054,2625.5
585.221,2660.9
585.387,2636.2
585.553,2640.4
585.719,2651.3
585.886,2626.1
586.052,2654.6
586.218,2685.6
586.384,2726.3
586.55,2805.8
586.717,2868.3
586.883,2918.4
587.049,2981.5
587.215,3024.2
587.381,3054.7
587.548,3083.9
587.714,3023.2
587.88,2909.5
588.046,2766.9
588.212,2720.5
588.378,2664.3
588.544,2650.8
588.71,2647.3
588.876,2662.4
589.043,2622.8
589.209,2635.9
589.375,2625.0
589.541,2640.6
589.707,2618.4
589.873,2624.4
590.039,2620.3
590.205,2614.0
590.371,2633.6
590.537,2632.4
590.703,2632.2
590.869,2634.8
591.035,2622.2
591.201,2630.1
591.367,2638.8
591.533,2616.1
591.699,2631.2
591.865,2624.6
592.031,2632.7
592.197,2611.7
592.363,2640.7
592.529,2641.5
592.694,2612.5
592.86,2637.6
593.026,2615.8
593.192,2621.6
593.358,2631.2
593.524,2619.1
593.69,2597.7
593.856,2598.4
594.021,2616.4
594.187,2634.1
594.353,2627.3
594.519,2628.8
594.685,2622.4
594.851,2613.6
595.016,2629.6
595.182,2600.9
595.348,2633.2
595.514,2641.1
595.68,2613.5
595.845,2639.6
596.011,2653.9
596.177,2624.6
596.342,2639.8
596.508,2639.0
596.674,2635.2
596.84,2619.8
597.005,2625.8
597.171,2627.8
597.337,2622.5
597.502,2613.9
597.668,2612.7
597.834,2610.7
597.999,2626.6
598.165,2619.6
598.331,2626.8
598.496,2655.5
598.662,2621.1
598.828,2607.3
598.993,2632.7
599.159,2611.0
599.324,2615.8
599.49,2611.0
599.656,2600.7
599.821,2623.3
599.987,2621.0
600.152,2631.9
600.318,2628.1
600.483,2625.7
600.649,2616.8
600.814,2627.3
600.98,2621.7
601.145,2627.6
601.311,2617.4
601.476,2624.7
601.642,2608.1
601.807,2638.2
601.973,2626.3
602.138,2613.6
602.304,2591.0
602.469,2618.0
602.635,2609.4
602.8,2629.6
602.965,2626.4
603.131,2619.8
603.296,2605.4
603.462,2630.2
603.627,2600.3
603.792,2626.2
603.958,2617.2
604.123,2620.6
604.288,2620.8
604.454,2599.0
604.619,2612.9
604.784,2603.2
604.95,2611.0
605.115,2607.2
605.28,2575.7
605.446,2604.9
605.611,2606.7
605.776,2614.2
605.941,2599.0
606.107,2605.7
606.272,2603.0
606.437,2600.0
606.602,2610.2
606.767,2602.9
606.933,2598.8
607.098,2606.6
607.263,2605.5
607.428,2611.2
607.593,2586.7
607.759,2609.7
607.924,2589.4
608.089,2609.9
608.254,2609.5
608.419,2609.3
608.584,2610.0
608.749,2575.7
608.915,2597.5
609.08,2583.6
609.245,2578.4
609.41,2591.7
609.575,2605.0
609.74,2585.9
609.905,2596.8
610.07,2585.2
610.235,2583.2
610.4,2594.8
610.565,2596.1
610.73,2565.4
610.895,2598.0
611.06,2586.3
611.225,2598.6
611.39,2585.0
611.555,2579.1
611.72,2564.4
611.885,2590.5
612.05,2585.0
612.215,2561.0
612.38,2585.7
612.545,2568.1
612.71,2568.4
612.875,2580.5
613.04,2586.8
613.204,2580.6
613.369,2579.1
613.534,2580.9
613.699,2566.4
613.864,2582.3
614.029,2573.2
614.194,2585.1
614.358,2559.9
614.523,2596.2
614.688,2588.0
614.853,2570.1
615.018,2573.2
615.182,2568.6
615.347,2568.5
615.512,2561.6
615.677,2578.6
615.841,2590.5
616.006,2568.8
616.171,2576.3
616.336,2567.3
616.5,2578.0
616.665,2579.5
616.83,2556.4
616.994,2563.9
617.159,2618.6
617.324,2574.0
617.489,2571.1
617.653,2561.9
617.818,2565.8
617.982,2559.0
618.147,2569.4
618.312,2552.8
618.476,2553.7
618.641,2579.5
618.805,2570.1
618.97,2588.8
619.135,2568.1
619.299,2541.9
619.464,2568.3
619.628,2591.1
619.793,2555.5
619.957,2580.0
620.122,2567.6
620.286,2551.3
620.451,2584.7
620.615,2561.5
620.78,2574.0
620.944,2543.6
621.109,2543.5
621.273,2536.7
621.438,2534.9
621.602,2548.7
621.767,2564.6
621.931,2558.1
622.095,2590.3
622.26,2605.4
622.424,2597.2
622.589,2598.4
622.753,2621.5
622.917,2651.8
623.082,2664.0
623.246,2654.0
623.41,2630.8
623.575,2633.4
623.739,2617.6
623.903,2593.5
624.068,2590.2
624.232,2563.1
624.396,2565.7
624.561,2571.1
624.725,2547.2
624.889,2560.7
625.053,2547.1
625.218,2535.8
625.382,2537.7
625.546,2544.7
625.71,2548.0
625.875,2550.3
626.039,2552.9
626.203,2549.8
626.367,2559.3
626.531,2570.4
626.695,2550.9
626.86,2546.0
627.024,2532.9
627.188,2548.8
627.352,2571.3
627.516,2580.6
627.68,2585.6
627.844,2626.1
628.008,2709.7
628.172,2847.7
628.337,2976.5
628.501,3026.5
628.665,3013.6
628.829,2965.9
628.993,2901.2
629.157,2888.4
629.321,2934.8
629.485,2941.5
629.649,2947.9
629.813,2939.2
629.977,2952.8
630.141,3006.2
630.305,3111.2
630.469,3356.4
630.633,3764.7
630.797,4557.9
630.96,5255.7
631.124,5533.9
631.288,5005.9
631.452,4514.7
631.616,3941.6
631.78,3579.3
631.944,3385.8
632.108,3308.3
632.272,3288.1
632.435,3201.3
632.599,3314.4
632.763,3486.0
632.927,3661.8
633.091,3819.9
633.254,3830.5
633.418,3814.1
633.582,3700.0
633.746,3514.2
633.91,3313.0
634.073,3124.6
634.237,2951.3
634.401,2840.6
634.564,2720.7
634.728,2618.6
634.892,2647.3
635.056,2571.9
635.219,2559.0
635.383,2532.4
635.547,2518.7
635.71,2531.4
635.874,2491.5
636.038,2512.2
636.201,2480.2
636.365,2498.4
636.528,2465.5
636.692,2472.2
636.856,2490.5
637.019,2460.6
637.183,2468.4
637.346,2479.9
637.51,2465.3
637.673,2476.1
637.837,2457.6
638.0,2452.7
638.164,2447.5
638.327,2465.5
638.491,2465.9
638.654,2445.5
638.818,2466.3
638.981,2453.5
639.145,2449.2
639.308,2444.1
639.472,2452.9
639.635,2449.8
639.799,2436.3
639.962,2432.0
640.125,2448.0
640.289,2437.0
640.452,2455.7
640.616,2410.6
640.779,2418.1
640.942,2442.1
641.106,2434.4
641.269,2449.2
641.432,2461.8
641.596,2432.4
641.759,2409.3
641.922,2449.8
642.085,2414.5
642.249,2429.7
642.412,2435.5
642.575,2433.4
642.738,2440.8
642.902,2428.3
643.065,2421.2
643.228,2382.2
643.391,2402.7
643.555,2396.1
643.718,2410.8
643.881,2391.9
644.044,2409.8
644.207,2396.9
644.37,2402.3
644.534,2380.1
644.697,2396.7
644.86,2387.0
645.023,2394.3
645.186,2402.3
645.349,2388.8
645.512,2360.2
645.675,2369.7
645.838,2367.3
646.001,2382.0
646.164,2373.2
646.327,2355.2
646.49,2343.9
646.653,2381.0
646.816,2354.0
646.979,2386.6
647.142,2351.6
647.305,2362.7
647.468,2348.5
647.631,2343.2
647.794,2351.3
647.957,2343.3
648.12,2346.9
648.283,2356.5
648.446,2341.3
648.609,2333.2
648.772,2335.3
648.935,2353.4
649.098,2344.3
649.26,2316.5
649.423,2326.8
649.586,2328.8
649.749,2333.7
649.912,2353.0
650.075,2311.3
650.237,2324.0
650.4,2318.2
650.563,2326.8
650.726,2334.1
650.888,2310.1
651.051,2302.4
651.214,2328.4
651.377,2307.6
651.539,2304.5
651.702,2314.9
651.865,2315.3
652.027,2308.5
652.19,2316.1
652.353,2288.5
652.515,2296.1
652.678,2305.6
652.841,2288.6
653.003,2297.5
653.166,2302.3
653.329,2277.8
653.491,2280.8
653.654,2272.3
653.816,2281.0
653.979,2268.1
654.142,2277.0
654.304,2285.0
654.467,2297.9
654.629,2250.2
654.792,2265.2
654.954,2274.0
655.117,2275.6
655.279,2256.1
655.442,2271.0
655.604,2255.4
655.767,2268.7
655.929,2270.3
656.091,2266.5
656.254,2238.6
656.416,2254.5
656.579,2250.0
656.741,2257.1
656.904,2253.0
657.066,2256.5
657.228,2250.4
657.391,2265.1
657.553,2259.2
657.715,2239.0
657.878,2231.7
658.04,2248.0
658.202,2225.3
658.365,2237.7
658.527,2234.4
658.689,2241.6
658.851,2236.0
659.014,2211.4
659.176,2213.6
659.338,2217.3
659.5,2203.4
659.663,2211.4
659.825,2206.4
659.987,2212.4
660.149,2215.8
660.311,2220.8
660.474,2220.7
660.636,2220.9
660.798,2214.6
660.96,2201.4
661.041,2193.7