File: spectra/VLFR_07-PET_bio_Raman_b401a67c.csv
nm,Intensity
791.75,5614.15
792.024,5594.65
792.298,5552.05
792.572,5508.2
792.846,5540.5
793.12,5565.3
793.394,5555.65
793.668,5530.5
793.942,5527.9
794.215,5515.25
794.489,5516.2
794.763,5519.4
795.037,5546.15
795.311,5513.05
795.585,5504.45
795.859,5491.45
796.133,5487.95
796.407,5507.75
796.681,5488.25
796.955,5457.35
797.228,5481.55
797.502,5509.55
797.776,5518.5
798.05,5501.35
798.324,5518.8
798.598,5477.75
798.871,5483.9
799.145,5511.0
799.419,5488.6
799.693,5517.6
799.967,5500.9
800.241,5476.3
800.514,5476.75
800.788,5469.6
801.062,5465.0
801.336,5461.9
801.61,5467.45
801.883,5453.2
802.157,5468.3
802.431,5448.3
802.705,5451.75
802.978,5439.5
803.252,5447.25
803.526,5425.65
803.8,5400.35
804.073,5426.7
804.347,5432.35
804.621,5406.2
804.894,5441.65
805.168,5446.6
805.442,5404.3
805.715,5422.0
805.989,5416.55
806.263,5418.45
806.536,5387.95
806.81,5366.35
807.084,5368.45
807.357,5374.25
807.631,5374.2
807.905,5383.6
808.178,5334.25
808.452,5380.45
808.726,5365.55
808.999,5329.85
809.273,5330.0
809.546,5339.2
809.82,5319.1
810.094,5316.95
810.367,5288.85
810.641,5272.55
810.914,5277.85
811.188,5285.55
811.461,5272.35
811.735,5282.9
812.008,5282.55
812.282,5254.05
812.556,5241.25
812.829,5231.85
813.103,5215.95
813.376,5214.35
813.65,5196.9
813.923,5171.95
814.197,5177.95
814.47,5157.65
814.744,5169.5
815.017,5143.3
815.29,5149.05
815.564,5155.55
815.837,5122.0
816.111,5103.6
816.384,5124.9
816.658,5115.7
816.931,5129.45
817.205,5101.4
817.478,5102.55
817.751,5077.9
818.025,5074.05
818.298,5105.9
818.572,5106.85
818.845,5082.65
819.118,5063.7
819.392,5056.4
819.665,5045.25
819.938,5053.1
820.212,5082.85
820.485,5100.3
820.758,5105.05
821.032,5067.15
821.305,5039.0
821.578,5056.85
821.852,5050.85
822.125,5019.9
822.398,4995.2
822.672,4958.75
822.945,4953.3
823.218,4958.15
823.491,4980.95
823.765,4987.6
824.038,5016.4
824.311,5010.65
824.585,5021.7
824.858,5009.45
825.131,4990.2
825.404,5000.0
825.677,4990.35
825.951,4990.6
826.224,5002.35
826.497,4978.9
826.77,4976.05
827.043,4944.55
827.317,4912.95
827.59,4902.95
827.863,4909.4
828.136,4910.5
828.409,4913.3
828.682,4907.2
828.956,4897.45
829.229,4870.65
829.502,4897.05
829.775,4912.65
830.048,4895.55
830.321,4886.4
830.594,4872.4
830.867,4880.25
831.14,4863.65
831.413,4871.65
831.687,4864.65
831.96,4842.8
832.233,4834.1
832.506,4831.4
832.779,4824.15
833.052,4831.8
833.325,4820.5
833.598,4818.0
833.871,4843.1
834.144,4820.8
834.417,4806.75
834.69,4810.25
834.963,4808.45
835.236,4811.8
835.509,4812.9
835.782,4817.4
836.055,4816.65
836.328,4797.95
836.601,4783.25
836.874,4773.8
837.147,4796.85
837.419,4819.4
837.692,4786.35
837.965,4776.0
838.238,4788.0
838.511,4786.2
838.784,4785.75
839.057,4763.25
839.33,4762.5
839.603,4758.9
839.876,4760.95
840.148,4757.0
840.421,4749.05
840.694,4751.9
840.967,4770.3
841.24,4751.2
841.513,4764.95
841.785,4759.5
842.058,4755.5
842.331,4731.65
842.604,4732.05
842.877,4736.3
843.149,4714.65
843.422,4718.65
843.695,4740.9
843.968,4708.55
844.24,4689.75
844.513,4687.1
844.786,4691.65
845.059,4695.7
845.331,4694.6
845.604,4698.35
845.877,4679.25
846.15,4687.95
846.422,4683.4
846.695,4664.85
846.968,4670.4
847.24,4662.85
847.513,4658.45
847.786,4638.65
848.058,4636.75
848.331,4643.15
848.604,4645.75
848.876,4640.65
849.149,4638.7
849.421,4620.0
849.694,4604.95
849.967,4624.95
850.239,4622.25
850.512,4621.2
850.784,4627.7
851.057,4618.5
851.33,4618.5
851.602,4634.0
851.875,4651.2
852.147,4650.3
852.42,4639.85
852.692,4633.65
852.965,4611.0
853.237,4589.1
853.51,4576.95
853.782,4567.85
854.055,4564.0
854.327,4554.05
854.6,4562.8
854.872,4558.45
855.145,4556.9
855.417,4559.5
855.69,4568.2
855.962,4556.15
856.235,4552.0
856.507,4568.75
856.779,4587.65
857.052,4551.9
857.324,4550.95
857.597,4560.9
857.869,4554.0
858.142,4553.55
858.414,4543.95
858.686,4554.6
858.959,4549.3
859.231,4556.6
859.503,4561.2
859.776,4549.6
860.048,4541.95
860.32,4545.35
860.593,4544.3
860.865,4541.1
861.137,4532.2
861.41,4533.8
861.682,4517.3
861.954,4513.7
862.226,4518.25
862.499,4523.4
862.771,4503.5
863.043,4512.35
863.315,4497.3
863.588,4503.4
863.86,4518.75
864.132,4521.1
864.404,4484.55
864.677,4494.75
864.949,4488.1
865.221,4496.7
865.493,4489.35
865.765,4469.2
866.038,4473.35
866.31,4465.5
866.582,4445.9
866.854,4443.35
867.126,4461.8
867.398,4471.5
867.67,4468.15
867.943,4465.0
868.215,4459.9
868.487,4471.05
868.759,4463.75
869.031,4444.75
869.303,4439.2
869.575,4455.0
869.847,4456.15
870.119,4461.25
870.391,4453.25
870.663,4451.25
870.935,4466.95
871.207,4459.7
871.479,4454.2
871.751,4464.8
872.023,4459.05
872.295,4471.05
872.567,4462.2
872.839,4448.8
873.111,4446.25
873.383,4449.75
873.655,4444.0
873.927,4440.0
874.199,4446.75
874.471,4435.85
874.743,4421.1
875.015,4423.15
875.287,4428.45
875.559,4418.7
875.831,4407.35
876.103,4415.4
876.374,4424.55
876.646,4417.55
876.918,4408.3
877.19,4414.6
877.462,4396.6
877.734,4396.65
878.006,4402.8
878.277,4403.65
878.549,4382.4
878.821,4385.45
879.093,4375.15
879.365,4362.7
879.636,4368.65
879.908,4375.45
880.18,4371.05
880.452,4368.65
880.723,4374.65
880.995,4358.7
881.267,4354.7
881.539,4366.0
881.81,4368.4
882.082,4353.15
882.354,4378.3
882.626,4369.05
882.897,4354.75
883.169,4359.4
883.441,4362.85
883.712,4349.55
883.984,4352.65
884.256,4348.35
884.527,4348.8
884.799,4331.2
885.07,4335.15
885.342,4339.2
885.614,4328.95
885.885,4336.4
886.157,4325.85
886.428,4323.95
886.7,4316.45
886.972,4303.5
887.243,4309.95
887.515,4310.9
887.786,4311.75
888.058,4314.4
888.329,4312.65
888.601,4320.75
888.872,4317.0
889.144,4313.05
889.415,4305.65
889.687,4289.25
889.958,4282.05
890.23,4292.4
890.501,4295.95
890.773,4286.55
891.044,4277.0
891.316,4277.0
891.587,4280.45
891.859,4281.0
892.13,4266.2
892.401,4256.05
892.673,4250.7
892.944,4245.5
893.216,4240.55
893.487,4242.25
893.758,4241.5
894.03,4244.3
894.301,4237.6
894.572,4232.5
894.844,4221.65
895.115,4211.3
895.386,4215.5
895.658,4212.05
895.929,4208.15
896.2,4196.9
896.472,4188.7
896.743,4205.05
897.014,4189.2
897.285,4209.25
897.557,4213.9
897.828,4223.1
898.099,4217.8
898.37,4216.5
898.642,4217.35
898.913,4207.55
899.184,4196.4
899.455,4188.2
899.726,4179.4
899.998,4173.75
900.269,4174.4
900.54,4157.4
900.811,4146.6
901.082,4151.45
901.353,4146.9
901.625,4131.1
901.896,4129.95
902.167,4143.65
902.438,4147.5
902.709,4154.0
902.98,4153.5
903.251,4146.7
903.522,4155.45
903.793,4150.55
904.064,4153.4
904.335,4139.05
904.606,4143.8
904.877,4144.85
905.148,4139.9
905.419,4121.95
905.69,4127.75
905.961,4126.85
906.232,4136.1
906.503,4134.35
906.774,4137.15
907.045,4139.45
907.316,4137.4
907.587,4135.6
907.858,4132.05
908.129,4116.15
908.4,4121.55
908.671,4114.5
908.942,4109.55
909.213,4103.5
909.484,4100.7
909.755,4092.05
910.025,4088.1
910.296,4091.6
910.567,4089.95
910.838,4077.6
911.109,4073.35
911.38,4072.2
911.65,4074.15
911.921,4068.0
912.192,4060.85
912.463,4055.5
912.734,4059.05
913.004,4055.45
913.275,4053.55
913.546,4055.15
913.817,4052.75
914.087,4050.65
914.358,4038.9
914.629,4036.7
914.9,4041.05
915.17,4042.3
915.441,4037.35
915.712,4031.35
915.982,4026.75
916.253,4031.55
916.524,4032.2
916.794,4027.7
917.065,4034.2
917.336,4020.45
917.606,4019.9
917.877,4029.45
918.147,4024.4
918.418,4013.7
918.689,4023.2
918.959,4015.3
919.23,4024.35
919.5,4023.15
919.771,4028.1
920.042,4025.5
920.312,4012.8
920.583,4012.35
920.853,4011.3
921.124,4013.0
921.394,4011.7
921.665,4010.0
921.935,4000.75
922.206,3995.7
922.476,3993.1
922.747,3994.35
923.017,3999.25
923.287,3995.5
923.558,3988.95
923.828,3986.9
924.099,3986.25
924.369,3977.95
924.639,3977.4
924.91,3977.45
925.18,3972.35
925.451,3974.15
925.721,3983.2
925.991,3980.55
926.262,3972.65
926.532,3967.35
926.802,3963.4
927.073,3961.4
927.343,3957.45
927.613,3954.55
927.884,3952.55
928.154,3946.35
928.424,3938.95
928.694,3938.8
928.965,3938.0
929.235,3936.9
929.505,3929.0
929.775,3929.75
930.046,3925.7
930.316,3919.65
930.586,3921.25
930.856,3917.95
931.126,3920.35
931.397,3917.4
931.667,3912.7
931.937,3914.15
932.207,3912.15
932.477,3910.6
932.747,3904.05
933.017,3904.6
933.288,3906.2
933.558,3904.75
933.828,3904.3
934.098,3899.75
934.368,3899.4
934.638,3896.45
934.908,3901.05
935.178,3897.65
935.448,3894.45
935.718,3886.9
935.988,3887.95
936.258,3891.7
936.528,3888.5
936.798,3887.2
937.068,3888.45
937.338,3887.8
937.608,3885.25
937.878,3879.15
938.148,3882.55
938.418,3880.85
938.688,3884.2
938.958,3886.1
939.228,3884.15
939.498,3881.0
939.767,3879.45
940.037,3875.65
940.307,3872.65
940.577,3875.15
940.847,3873.8
941.117,3871.5
941.387,3872.05
941.656,3865.6
941.926,3864.85
942.196,3868.15
942.466,3866.3
942.736,3867.3
943.005,3868.25
943.275,3864.05
943.545,3861.1
943.815,3859.1
944.084,3861.8
944.354,3861.5
944.624,3858.9
944.894,3860.05
945.163,3858.0
945.433,3852.2
945.703,3854.5
945.972,3849.7
946.242,3852.65
946.512,3849.0
946.781,3854.0
947.051,3847.4
947.321,3850.9
947.59,3850.1
947.86,3847.85
948.13,3845.85
948.399,3844.3
948.669,3842.45
948.938,3843.4
949.208,3842.65
949.477,3839.7
949.747,3840.3
950.016,3840.4
950.286,3840.0
950.556,3837.55
950.825,3837.0
951.095,3836.25
951.364,3834.5
951.634,3837.1
951.903,3836.85
952.172,3831.85
952.442,3836.05
952.711,3836.6
952.981,3833.9
953.25,3831.45
953.52,3832.1
953.789,3832.5
954.058,3832.4
954.328,3829.55
954.597,3829.85
954.867,3826.6
955.136,3828.8
955.405,3825.1
955.675,3822.5
955.944,3823.2
956.213,3821.35
956.483,3827.1
956.752,3823.35
957.021,3823.2
957.29,3823.25
957.56,3824.5
957.829,3818.65
958.098,3818.8
958.367,3820.2
958.637,3814.2
958.906,3818.0
959.175,3815.6
959.444,3817.1
959.714,3814.9
959.983,3816.3
960.252,3815.6
960.521,3813.25
960.79,3812.6
961.059,3809.65
961.328,3813.65
961.598,3813.6
961.867,3811.95
962.136,3811.35
962.405,3812.4
962.674,3811.9
962.943,3812.35
963.212,3808.5
963.481,3810.8
963.75,3808.05
964.019,3808.45
964.288,3805.3
964.557,3808.05
964.826,3805.1
965.095,3804.75
965.364,3805.7
965.633,3809.4
965.902,3806.35
966.171,3806.6
966.44,3807.1
966.709,3807.4
966.978,3807.05
967.247,3804.35
967.516,3804.6
967.785,3804.05
968.054,3805.2
968.323,3807.2
968.591,3805.35
968.86,3804.25
969.129,3802.75
969.398,3802.35
969.667,3803.65
969.936,3802.15
970.204,3799.15
970.473,3803.8
970.742,3803.4
971.011,3800.2
971.28,3798.1
971.548,3795.0
971.817,3798.15
972.086,3800.05
972.355,3797.3
972.623,3797.0
972.892,3795.15
973.161,3796.8
973.429,3794.15
973.698,3794.0
973.967,3791.9
974.235,3790.2
974.504,3790.3
974.773,3791.7
975.041,3787.95
975.31,3791.6
975.579,3789.65
975.847,3791.8
976.116,3790.35
976.384,3790.25
976.653,3789.05
976.922,3789.25
977.19,3791.3
977.459,3791.1
977.727,3788.85
977.996,3788.65
978.264,3788.6
978.533,3786.55
978.801,3789.15
979.07,3787.4
979.338,3786.55
979.607,3786.95
979.875,3789.05
980.143,3785.3
980.412,3787.75
980.68,3784.9
980.949,3785.25
981.217,3784.9
981.486,3785.4
981.754,3785.4
982.022,3785.5
982.291,3785.3
982.559,3784.85
982.827,3783.5
983.096,3783.9
983.364,3782.5
983.632,3782.2
983.901,3782.35
984.169,3784.3
984.437,3782.15
984.705,3782.75
984.974,3780.95
985.242,3785.45
985.51,3783.65
985.778,3782.85
986.047,3782.45
986.315,3781.5
986.583,3782.75
986.851,3779.05
987.119,3782.95
987.388,3780.45
987.656,3778.9
987.924,3779.65
988.192,3777.35
988.46,3782.55
988.728,3780.7
988.996,3778.7
989.264,3776.1
989.533,3778.15
989.801,3776.25
990.069,3776.1
990.337,3776.2
990.605,3777.6
990.873,3778.7
991.141,3778.15
991.409,3774.9
991.677,3775.6
991.945,3777.65
992.213,3777.7
992.481,3774.0
992.749,3777.25
993.017,3776.35
993.285,3774.0
993.553,3773.6
993.82,3775.05
994.088,3773.25
994.356,3774.6
994.624,3772.8
994.892,3770.25
995.16,3773.45
995.428,3772.95
995.696,3773.3
995.963,3773.8
996.231,3772.95
996.499,3771.65
996.767,3771.15
997.035,3772.05
997.302,3770.85
997.57,3770.35
997.838,3769.8
998.106,3769.3
998.373,3767.65
998.641,3770.85
998.909,3771.2
999.177,3770.35
999.444,3768.9
999.712,3768.35
999.98,3768.55
1000.25,3768.3
1000.51,3766.85
1000.78,3766.3
1001.05,3766.7
1001.32,3766.0
1001.59,3766.9
1001.85,3766.7
1002.12,3766.65
1002.39,3763.55
1002.66,3765.65
1002.92,3765.4
1003.19,3763.85
1003.46,3766.1
1003.73,3764.55
1003.99,3763.75
1004.26,3763.95
1004.53,3764.6
1004.8,3764.2
1005.06,3765.65
1005.33,3761.7
1005.6,3763.3
1005.87,3761.45
1006.13,3759.8
1006.4,3761.15
1006.67,3761.0
1006.94,3762.15
1007.2,3760.85
1007.47,3761.0
1007.74,3760.3
1008.0,3763.0
1008.27,3761.55
1008.54,3760.6
1008.81,3757.85
1009.07,3758.2
1009.34,3759.6
1009.61,3761.15
1009.88,3760.8
1010.14,3758.3
1010.41,3757.95
1010.68,3759.65
1010.95,3760.0
1011.21,3757.65
1011.48,3758.6
1011.75,3759.1
1012.01,3757.35
1012.28,3760.0
1012.55,3757.85
1012.82,3758.15
1013.08,3756.75
1013.35,3757.5
1013.62,3758.55
1013.88,3756.95
1014.15,3756.6
1014.42,3755.3
1014.69,3755.65
1014.95,3756.2
1015.22,3756.0
1015.49,3755.8
1015.75,3755.55
1016.02,3757.0
1016.29,3755.45
1016.55,3754.6
1016.82,3754.6
1017.09,3755.25
1017.36,3754.25
1017.62,3755.3
1017.89,3754.9
1018.16,3754.3
1018.42,3754.75
1018.69,3754.15
1018.96,3755.75
1019.22,3754.3
1019.49,3754.2
1019.76,3753.1
1020.02,3754.15
1020.29,3753.8
1020.56,3754.6
1020.83,3753.45
1021.09,3753.3
1021.36,3753.45
1021.63,3751.95
1021.89,3752.7
1022.16,3753.5
1022.43,3752.15
1022.69,3754.5
1022.96,3750.5
1023.23,3753.0
1023.49,3750.15
1023.76,3751.0
1024.03,3750.6
1024.29,3751.9
1024.56,3752.35
1024.83,3750.95
1025.09,3751.1
1025.36,3752.25
1025.63,3752.9
1025.89,3749.65
1026.16,3752.15
1026.43,3749.25
1026.69,3749.4
1026.96,3748.35
1027.23,3751.25
1027.49,3750.95
1027.76,3749.55
1028.03,3749.45
1028.29,3749.35
1028.56,3749.4
1028.83,3748.9
1029.09,3750.45
1029.36,3748.0
1029.62,3748.25
1029.89,3748.7
1030.16,3748.8
1030.42,3749.0
1030.69,3745.7
1030.96,3747.45
1031.22,3749.0
1031.49,3747.45
1031.76,3749.15
1032.02,3748.65
1032.29,3748.35
1032.56,3748.55
1032.82,3749.9
1033.09,3748.25
1033.35,3749.2
1033.62,3748.8
1033.89,3748.35
1034.15,3748.0
1034.42,3746.6
1034.69,3748.25
1034.95,3748.6
1035.22,3748.75
1035.48,3747.05
1035.75,3748.6
1036.02,3749.35
1036.28,3747.75
1036.55,3746.45
1036.81,3748.1
1037.08,3745.7
1037.35,3747.85
1037.61,3746.7
1037.88,3746.75
1038.15,3745.25
1038.41,3746.75
1038.68,3745.9
1038.94,3745.85
1039.21,3746.0
1039.48,3747.2
1039.74,3747.8
1040.01,3745.95
1040.27,3745.25
1040.54,3745.2
1040.81,3745.4
1041.07,3746.2
1041.34,3746.25
1041.6,3746.2
1041.87,3745.3
1042.14,3745.7
1042.4,3743.9
1042.67,3746.5
1042.93,3743.5
1043.2,3744.9
1043.47,3744.5
1043.73,3745.35
1044.0,3744.9
1044.26,3744.55
1044.53,3744.85
1044.79,3744.85
1045.06,3743.5
1045.33,3744.15
1045.59,3743.55
1045.86,3744.25
1046.12,3743.5
1046.39,3745.65
1046.65,3746.1
1046.92,3745.3
1047.19,3744.65
1047.45,3745.55
1047.72,3744.15
1047.98,3744.35
1048.25,3744.25
1048.51,3744.25
1048.78,3743.55
1049.05,3743.45
1049.31,3743.95
1049.58,3743.05
1049.84,3744.0
1050.11,3743.0
1050.37,3744.1
1050.64,3743.95
1050.91,3744.15
1051.17,3743.7
1051.44,3744.1
1051.7,3742.8
1051.97,3742.75
1052.23,3743.4
1052.5,3743.85
1052.76,3742.45
1053.03,3743.95
1053.29,3744.2
1053.56,3742.8
1053.83,3743.6
1054.09,3742.4
1054.36,3742.65
1054.62,3743.1
1054.89,3743.05
1055.15,3743.85
1055.42,3742.75
1055.68,3742.8
1055.95,3744.1
1056.21,3742.9
1056.48,3743.95
1056.74,3741.95
1057.01,3744.7
1057.27,3742.35
1057.54,3742.6
1057.81,3742.55
1058.07,3742.45
1058.34,3743.65
1058.6,3743.1
1058.87,3743.2
1059.13,3742.35
1059.4,3743.7
1059.66,3743.15
1059.93,3742.15
1060.19,3742.75
1060.46,3743.15
1060.72,3742.1
1060.99,3742.9
1061.25,3743.85
1061.52,3741.8
1061.78,3741.25
1062.05,3742.55
1062.31,3743.55
1062.58,3741.65
1062.84,3743.1
1063.11,3742.25
1063.37,3741.9
1063.64,3741.65
1063.9,3743.3
1064.17,3741.45
1064.43,3742.0
1064.7,3742.8
1064.96,3741.9
1065.23,3742.85
1065.49,3742.05
1065.76,3741.6
1066.02,3740.9
1066.29,3741.05
1066.55,3743.6
1066.82,3741.15
1067.08,3741.4
1067.35,3741.05
1067.61,3741.25
1067.88,3740.35