File: spectra/VLFR_06-PET_nobio_Raman_df57789a.csv
nm,Intensity
526.486,828.1
526.622,828.2
526.759,830.0
526.896,829.4
527.033,829.4
527.169,828.4
527.306,828.1
527.443,828.1
527.579,828.1
527.716,828.0
527.853,828.5
527.989,829.2
528.126,826.0
528.263,826.7
528.399,828.3
528.536,828.0
528.672,828.1
528.809,828.4
528.946,830.0
529.082,828.1
529.219,829.0
529.355,828.0
529.492,828.3
529.628,829.0
529.765,827.8
529.901,828.7
530.038,828.1
530.174,828.0
530.311,827.5
530.447,828.3
530.584,828.9
530.72,827.4
530.857,829.1
530.993,828.8
531.13,828.1
531.266,828.5
531.403,829.0
531.539,829.5
531.676,827.7
531.812,829.5
531.948,833.5
532.085,875.7
532.221,911.1
532.358,855.4
532.494,830.8
532.63,827.9
532.767,828.7
532.903,828.5
533.039,828.0
533.176,829.6
533.312,828.5
533.448,831.0
533.585,836.0
533.721,900.8
533.857,1244.4
533.993,1890.4
534.13,2213.2
534.266,2176.6
534.402,2058.6
534.539,1945.2
534.675,1852.1
534.811,1757.0
534.947,1646.1
535.083,1552.2
535.22,1459.4
535.356,1405.9
535.492,1337.7
535.628,1282.2
535.764,1230.8
535.901,1190.3
536.037,1148.5
536.173,1115.1
536.309,1087.5
536.445,1061.9
536.581,1048.1
536.717,1036.1
536.854,1023.7
536.99,1026.2
537.126,1011.7
537.262,1009.5
537.398,1003.4
537.534,1000.2
537.67,994.1
537.806,994.5
537.942,994.4
538.078,994.3
538.214,1002.4
538.35,999.6
538.486,1000.1
538.622,998.3
538.758,1001.3
538.894,997.5
539.03,995.2
539.166,997.8
539.302,999.5
539.438,1007.5
539.574,1011.7
539.71,1020.3
539.846,1028.8
539.982,1032.4
540.118,1024.2
540.254,1018.7
540.39,998.6
540.526,989.5
540.662,978.0
540.798,973.4
540.933,967.7
541.069,968.7
541.205,959.9
541.341,960.5
541.477,961.4
541.613,958.0
541.749,958.8
541.884,960.4
542.02,961.4
542.156,959.1
542.292,958.2
542.428,959.9
542.563,958.1
542.699,956.9
542.835,959.5
542.971,958.3
543.106,953.7
543.242,960.8
543.378,957.7
543.514,955.9
543.649,958.5
543.785,963.7
543.921,967.5
544.057,967.5
544.192,966.8
544.328,962.4
544.464,955.2
544.599,962.4
544.735,960.9
544.871,963.7
545.006,967.3
545.142,964.8
545.278,965.4
545.413,963.4
545.549,962.1
545.684,964.9
545.82,966.3
545.956,965.2
546.091,964.9
546.227,967.2
546.362,968.5
546.498,966.5
546.634,963.4
546.769,971.8
546.905,970.7
547.04,967.0
547.176,971.4
547.311,966.0
547.447,968.6
547.582,970.5
547.718,971.5
547.853,967.9
547.989,971.6
548.124,970.2
548.26,972.1
548.395,975.3
548.531,972.2
548.666,970.6
548.802,970.3
548.937,974.0
549.072,973.2
549.208,968.7
549.343,973.5
549.479,972.2
549.614,972.6
549.75,973.3
549.885,976.0
550.02,973.7
550.156,970.7
550.291,979.5
550.426,986.3
550.562,1049.1
550.697,1183.2
550.832,1119.9
550.968,1010.0
551.103,981.2
551.238,979.4
551.374,979.4
551.509,985.0
551.644,986.3
551.78,976.4
551.915,977.4
552.05,985.0
552.185,987.0
552.321,985.3
552.456,985.0
552.591,991.3
552.726,1018.3
552.862,1053.8
552.997,1048.8
553.132,1010.2
553.267,991.6
553.403,992.9
553.538,991.9
553.673,989.0
553.808,994.3
553.943,993.2
554.078,990.2
554.214,993.4
554.349,993.8
554.484,992.1
554.619,988.7
554.754,998.5
554.889,996.3
555.024,999.3
555.16,1003.9
555.295,999.9
555.43,1024.0
555.565,1056.7
555.7,1079.4
555.835,1065.3
555.97,1061.2
556.105,1062.5
556.24,1064.3
556.375,1071.9
556.51,1081.6
556.645,1077.5
556.78,1077.3
556.915,1083.2
557.05,1094.2
557.185,1119.5
557.32,1159.6
557.455,1222.5
557.59,1290.6
557.725,1258.3
557.86,1173.1
557.995,1115.0
558.13,1097.0
558.265,1103.6
558.4,1106.5
558.535,1104.0
558.67,1091.1
558.805,1076.2
558.94,1064.1
559.075,1051.1
559.21,1039.3
559.345,1026.0
559.479,1024.9
559.614,1016.1
559.749,1022.8
559.884,1022.3
560.019,1026.0
560.154,1018.9
560.289,1021.4
560.424,1018.1
560.558,1017.7
560.693,1024.7
560.828,1023.8
560.963,1027.4
561.098,1028.2
561.232,1030.6
561.367,1024.5
561.502,1028.1
561.637,1030.2
561.772,1034.4
561.906,1034.2
562.041,1043.9
562.176,1058.7
562.311,1055.5
562.445,1046.0
562.58,1052.9
562.715,1056.3
562.85,1065.8
562.984,1063.6
563.119,1070.1
563.254,1069.3
563.388,1066.3
563.523,1064.4
563.658,1052.0
563.792,1059.4
563.927,1049.6
564.062,1049.1
564.196,1052.2
564.331,1053.3
564.466,1062.3
564.6,1071.8
564.735,1084.8
564.87,1094.7
565.004,1112.2
565.139,1138.9
565.273,1156.3
565.408,1169.2
565.543,1186.7
565.677,1204.3
565.812,1216.6
565.946,1226.3
566.081,1194.3
566.215,1164.8
566.35,1126.8
566.485,1104.9
566.619,1090.5
566.754,1076.0
566.888,1073.5
567.023,1070.9
567.157,1068.7
567.292,1075.0
567.426,1091.2
567.561,1130.1
567.695,1159.7
567.83,1160.8
567.964,1124.3
568.099,1098.0
568.233,1090.6
568.368,1076.6
568.502,1075.5
568.636,1079.9
568.771,1078.4
568.905,1075.3
569.04,1084.5
569.174,1081.2
569.309,1089.3
569.443,1085.0
569.577,1101.0
569.712,1107.4
569.846,1109.1
569.98,1119.0
570.115,1133.2
570.249,1138.7
570.384,1161.6
570.518,1196.8
570.652,1238.4
570.787,1264.5
570.921,1303.2
571.055,1359.0
571.19,1410.2
571.324,1449.8
571.458,1439.7
571.592,1392.6
571.727,1331.5
571.861,1278.0
571.995,1270.0
572.13,1241.4
572.264,1194.0
572.398,1166.7
572.532,1151.5
572.667,1135.2
572.801,1125.1
572.935,1120.3
573.069,1118.3
573.204,1116.1
573.338,1111.4
573.472,1115.8
573.606,1117.0
573.74,1129.7
573.875,1137.7
574.009,1141.2
574.143,1148.3
574.277,1141.4
574.411,1141.9
574.545,1132.9
574.68,1126.6
574.814,1135.8
574.948,1138.9
575.082,1145.0
575.216,1161.9
575.35,1189.3
575.484,1196.5
575.619,1161.0
575.753,1142.6
575.887,1137.1
576.021,1140.4
576.155,1158.9
576.289,1169.6
576.423,1178.9
576.557,1181.7
576.691,1189.1
576.825,1188.8
576.959,1185.5
577.093,1181.3
577.227,1168.1
577.361,1149.3
577.495,1147.7
577.629,1150.5
577.763,1147.5
577.897,1137.4
578.031,1143.3
578.165,1136.5
578.299,1141.7
578.433,1143.0
578.567,1147.6
578.701,1151.3
578.835,1149.8
578.969,1149.1
579.103,1140.8
579.237,1146.4
579.371,1148.5
579.505,1151.5
579.639,1152.6
579.773,1156.2
579.907,1152.2
580.041,1153.8
580.175,1161.8
580.309,1157.0
580.442,1168.4
580.576,1159.2
580.71,1168.4
580.844,1178.8
580.978,1189.6
581.112,1187.8
581.246,1189.4
581.38,1197.4
581.513,1216.4
581.647,1270.7
581.781,1363.0
581.915,1574.5
582.049,2033.1
582.183,2576.9
582.316,2430.2
582.45,1736.3
582.584,1360.3
582.718,1254.4
582.852,1215.1
582.985,1199.5
583.119,1201.5
583.253,1180.8
583.387,1191.5
583.52,1188.0
583.654,1181.5
583.788,1185.4
583.922,1191.4
584.055,1190.6
584.189,1191.7
584.323,1201.8
584.456,1202.1
584.59,1207.6
584.724,1212.7
584.858,1215.5
584.991,1218.0
585.125,1230.4
585.259,1258.1
585.392,1312.8
585.526,1429.1
585.66,1613.6
585.793,1791.9
585.927,1913.2
586.061,1928.2
586.194,1887.6
586.328,1783.2
586.462,1649.8
586.595,1515.7
586.729,1389.7
586.862,1317.8
586.996,1269.1
587.13,1253.5
587.263,1229.2
587.397,1229.1
587.53,1225.2
587.664,1219.1
587.797,1208.9
587.931,1215.2
588.065,1210.8
588.198,1212.7
588.332,1214.4
588.465,1204.9
588.599,1202.7
588.732,1209.0
588.866,1208.8
588.999,1209.3
589.133,1209.0
589.266,1202.8
589.4,1207.1
589.533,1202.8
589.667,1207.7
589.8,1204.8
589.934,1207.6
590.067,1207.8
590.201,1202.8
590.334,1200.2
590.468,1204.0
590.601,1202.7
590.735,1210.4
590.868,1202.2
591.001,1208.8
591.135,1215.0
591.268,1213.4
591.402,1209.2
591.535,1208.5
591.669,1199.6
591.802,1217.7
591.935,1205.1
592.069,1207.0
592.202,1215.8
592.335,1211.4
592.469,1211.6
592.602,1201.2
592.736,1212.1
592.869,1208.7
593.002,1204.6
593.136,1208.5
593.269,1202.2
593.402,1207.1
593.536,1209.6
593.669,1215.1
593.802,1215.4
593.936,1210.5
594.069,1214.6
594.202,1213.2
594.336,1214.4
594.469,1218.3
594.602,1220.5
594.735,1218.7
594.869,1214.1
595.002,1217.2
595.135,1218.1
595.268,1222.7
595.402,1228.0
595.535,1225.9
595.668,1223.3
595.801,1218.1
595.935,1221.9
596.068,1226.6
596.201,1219.9
596.334,1218.5
596.468,1228.6
596.601,1227.8
596.734,1224.5
596.867,1227.3
597.0,1228.1
597.133,1229.6
597.267,1228.6
597.4,1225.9
597.533,1227.8
597.666,1224.0
597.799,1226.6
597.932,1227.0
598.066,1231.4
598.199,1235.9
598.332,1231.8
598.465,1239.0
598.598,1236.1
598.731,1234.3
598.864,1230.8
598.998,1235.8
599.131,1230.5
599.264,1239.0
599.397,1235.7
599.53,1242.0
599.663,1235.2
599.796,1237.6
599.929,1240.0
600.062,1235.9
600.195,1237.3
600.328,1240.0
600.461,1231.5
600.594,1234.5
600.727,1232.5
600.86,1231.7
600.994,1234.6
601.127,1243.0
601.26,1232.7
601.393,1234.5
601.526,1227.3
601.659,1232.7
601.792,1224.4
601.925,1234.9
602.058,1236.2
602.191,1227.9
602.324,1236.2
602.457,1238.4
602.589,1237.9
602.722,1232.8
602.855,1238.8
602.988,1236.5
603.121,1243.3
603.254,1237.2
603.387,1235.2
603.52,1250.5
603.653,1240.9
603.786,1243.2
603.919,1238.7
604.052,1235.2
604.185,1244.2
604.318,1250.1
604.451,1235.6
604.583,1235.3
604.716,1235.1
604.849,1239.9
604.982,1243.6
605.115,1235.6
605.248,1234.0
605.381,1227.2
605.514,1238.6
605.646,1228.5
605.779,1239.4
605.912,1232.4
606.045,1232.8
606.178,1235.5
606.311,1236.0
606.443,1230.9
606.576,1230.6
606.709,1229.3
606.842,1234.6
606.975,1237.5
607.107,1233.9
607.24,1235.3
607.373,1234.5
607.506,1234.4
607.639,1235.6
607.771,1230.1
607.904,1235.0
608.037,1240.4
608.17,1242.0
608.302,1243.3
608.435,1240.1
608.568,1246.5
608.701,1239.4
608.833,1252.0
608.966,1236.6
609.099,1244.8
609.232,1247.5
609.364,1241.0
609.497,1239.8
609.63,1242.1
609.762,1243.5
609.895,1244.3
610.028,1235.1
610.161,1242.4
610.293,1239.6
610.426,1238.6
610.559,1240.5
610.691,1245.6
610.824,1238.9
610.957,1242.6
611.089,1239.5
611.222,1246.3
611.355,1240.9
611.487,1240.3
611.62,1244.8
611.752,1239.6
611.885,1241.8
612.018,1252.9
612.15,1252.2
612.283,1246.8
612.416,1254.9
612.548,1252.4
612.681,1251.3
612.813,1258.7
612.946,1254.1
613.078,1269.3
613.211,1260.7
613.344,1267.8
613.476,1268.2
613.609,1261.3
613.741,1267.2
613.874,1263.5
614.006,1273.1
614.139,1258.6
614.272,1272.9
614.404,1264.1
614.537,1267.8
614.669,1275.1
614.802,1270.7
614.934,1260.5
615.067,1267.6
615.199,1267.1
615.332,1270.1
615.464,1264.8
615.597,1271.7
615.729,1270.3
615.862,1265.4
615.994,1265.4
616.127,1267.9
616.259,1269.8
616.392,1268.9
616.524,1268.0
616.657,1277.2
616.789,1271.5
616.922,1282.2
617.054,1284.0
617.186,1278.0
617.319,1281.1
617.451,1280.9
617.584,1280.4
617.716,1283.3
617.849,1282.7
617.981,1290.6
618.113,1291.9
618.246,1290.3
618.378,1290.4
618.511,1296.8
618.643,1292.3
618.775,1287.8
618.908,1301.3
619.04,1285.1
619.173,1291.7
619.305,1286.2
619.437,1292.1
619.57,1285.5
619.702,1282.4
619.834,1282.6
619.967,1278.8
620.099,1287.3
620.231,1290.1
620.364,1286.5
620.496,1277.9
620.628,1290.1
620.761,1284.0
620.893,1280.6
621.025,1287.2
621.158,1291.1
621.29,1294.7
621.422,1287.8
621.555,1283.0
621.687,1276.8
621.819,1293.1
621.952,1282.5
622.084,1290.0
622.216,1298.7
622.348,1296.9
622.481,1302.5
622.613,1300.1
622.745,1303.3
622.878,1301.9
623.01,1311.1
623.142,1319.5
623.274,1305.5
623.407,1302.0
623.539,1305.3
623.671,1317.6
623.803,1307.8
623.935,1309.0
624.068,1314.4
624.2,1314.1
624.332,1317.3
624.464,1319.3
624.597,1319.4
624.729,1333.6
624.861,1325.9
624.993,1321.6
625.125,1328.7
625.258,1328.1
625.39,1317.4
625.522,1328.7
625.654,1323.9
625.786,1327.0
625.918,1328.1
626.051,1323.4
626.183,1321.0
626.315,1326.6
626.447,1327.3
626.579,1331.9
626.711,1334.8
626.844,1328.1
626.976,1328.9
627.108,1330.8
627.24,1330.4
627.372,1333.5
627.504,1339.5
627.636,1335.4
627.768,1340.0
627.901,1337.7
628.033,1342.7
628.165,1344.8
628.297,1353.1
628.429,1358.5
628.561,1371.9
628.693,1373.6
628.825,1383.1
628.957,1393.1
629.089,1395.0
629.221,1400.8
629.354,1388.8
629.486,1400.7
629.618,1391.9
629.75,1394.3
629.882,1393.8
630.014,1382.8
630.146,1386.0
630.278,1381.8
630.41,1394.2
630.542,1384.7
630.674,1391.0
630.806,1408.3
630.938,1422.2
631.07,1453.8
631.202,1480.4
631.334,1528.4
631.466,1570.3
631.598,1616.9
631.73,1625.3
631.862,1629.3
631.994,1619.5
632.126,1581.1
632.258,1565.8
632.39,1545.8
632.522,1523.3
632.654,1509.3
632.786,1497.8
632.918,1486.5
633.05,1486.5
633.182,1481.1
633.314,1481.8
633.446,1482.9
633.578,1476.0
633.71,1478.9
633.842,1472.6
633.974,1450.5
634.106,1433.4
634.237,1434.2
634.369,1431.4
634.501,1432.2
634.633,1424.5
634.765,1426.3
634.897,1424.3
635.029,1424.8
635.161,1432.7
635.293,1440.7
635.425,1442.3
635.557,1462.2
635.689,1479.1
635.82,1492.6
635.952,1531.1
636.084,1572.3
636.216,1594.5
636.348,1637.8
636.48,1688.7
636.612,1728.0
636.744,1697.0
636.875,1650.2
637.007,1595.9
637.139,1549.8
637.271,1506.0
637.403,1495.9
637.535,1482.4
637.667,1481.4
637.798,1470.3
637.93,1472.9
638.062,1452.9
638.194,1456.5
638.326,1442.2
638.458,1460.4
638.589,1458.7
638.721,1457.3
638.853,1454.7
638.985,1461.7
639.117,1461.6
639.248,1458.8
639.38,1453.8
639.512,1458.8
639.644,1458.8
639.776,1477.4
639.907,1473.0
640.039,1456.9
640.171,1462.1
640.303,1470.7
640.435,1463.5
640.566,1452.0
640.698,1460.8
640.83,1463.4
640.962,1470.5
641.093,1473.1
641.225,1485.0
641.357,1471.4
641.489,1474.0
641.62,1470.4
641.752,1469.5
641.884,1474.3
642.016,1481.6
642.147,1481.2
642.279,1496.7
642.411,1496.1
642.543,1497.2
642.674,1494.9
642.806,1495.5
642.938,1487.3
643.069,1490.7
643.201,1485.2
643.333,1484.7
643.465,1481.6
643.596,1475.2
643.728,1484.4
643.86,1477.0
643.991,1481.7
644.123,1468.8
644.255,1480.5
644.386,1479.9
644.518,1477.4
644.65,1474.5
644.781,1471.3
644.913,1483.5
645.045,1483.4
645.176,1485.2
645.308,1489.8
645.44,1487.0
645.571,1488.5
645.703,1485.2
645.835,1488.3
645.966,1485.2
646.098,1484.8
646.23,1492.7
646.361,1499.5
646.493,1500.2
646.625,1494.0
646.756,1505.2
646.888,1504.6
647.019,1506.8
647.151,1506.7
647.283,1510.5
647.414,1500.8
647.546,1504.0
647.678,1504.2
647.809,1515.1
647.941,1518.3
648.072,1510.0
648.204,1505.0
648.336,1496.1
648.467,1512.9
648.599,1511.3
648.73,1500.3
648.862,1512.3
648.993,1501.7
649.125,1501.7
649.257,1506.9
649.388,1509.0
649.52,1502.0
649.651,1508.6
649.783,1508.1
649.914,1504.8
650.046,1511.1
650.178,1501.6
650.309,1507.0
650.441,1506.4
650.572,1513.5
650.704,1505.6
650.835,1505.7
650.967,1515.2
651.098,1504.5
651.23,1510.2
651.361,1512.7
651.493,1509.1
651.625,1517.4
651.756,1514.1
651.888,1520.5
652.019,1514.4
652.151,1526.1
652.282,1523.6
652.414,1516.9
652.545,1525.7
652.677,1519.5
652.808,1525.8
652.94,1531.5
653.071,1525.5
653.203,1527.1
653.334,1521.1
653.466,1518.7
653.597,1526.0
653.729,1523.3
653.86,1525.6
653.992,1526.6
654.123,1522.4
654.255,1531.0
654.386,1527.9
654.518,1531.6
654.649,1522.0
654.78,1530.4
654.912,1523.4
655.043,1524.2
655.175,1525.9
655.306,1515.8
655.438,1523.3
655.569,1531.1
655.701,1525.3
655.832,1532.6
655.964,1520.5
656.095,1523.4
656.226,1527.4
656.358,1525.6
656.489,1530.4
656.621,1529.1
656.752,1527.1
656.884,1543.9
657.015,1535.9
657.146,1530.5
657.278,1526.8
657.409,1529.5
657.541,1524.2
657.672,1534.5
657.804,1545.5
657.935,1529.0
658.066,1537.2
658.198,1535.6
658.329,1540.5
658.461,1533.6
658.592,1537.5
658.723,1540.9
658.855,1533.0
658.986,1536.5
659.118,1535.8
659.249,1534.2
659.38,1525.3
659.512,1534.3
659.643,1525.8
659.774,1534.5
659.906,1543.5
660.037,1536.4
660.169,1528.2
660.3,1538.5
660.431,1540.2
660.563,1540.7
660.694,1515.1
660.825,1531.2
660.957,1530.3
661.088,1532.1
661.22,1529.8
661.351,1521.5
661.482,1525.5
661.614,1525.4
661.745,1529.3
661.876,1530.6
662.008,1518.2
662.139,1529.1
662.27,1526.2
662.402,1514.6
662.533,1509.6
662.664,1532.1
662.796,1509.6
662.927,1509.9
663.058,1522.6