File: spectra/VLFR_02-HDPE_bio_Raman_7efea7c1.csv
nm,Intensity
528.629,1850.2
528.797,1850.1
528.965,1850.5
529.134,1850.95
529.302,1850.2
529.471,1849.35
529.639,1850.05
529.808,1849.55
529.976,1850.1
530.145,1850.4
530.313,1849.3
530.481,1850.05
530.65,1850.35
530.818,1850.7
530.987,1849.65
531.155,1851.2
531.323,1852.15
531.492,1855.4
531.66,1875.0
531.829,2286.6
531.997,3377.9
532.165,2933.75
532.334,1931.9
532.502,1852.45
532.67,1850.7
532.839,1851.4
533.007,1850.1
533.175,1851.45
533.344,1852.0
533.512,1858.05
533.68,1893.65
533.848,1965.05
534.017,1996.8
534.185,2008.5
534.353,1990.0
534.522,2000.95
534.69,2006.65
534.858,1992.55
535.026,1987.45
535.195,1982.1
535.363,1958.5
535.531,1941.15
535.699,1924.65
535.868,1918.4
536.036,1915.65
536.204,1909.55
536.372,1912.95
536.54,1905.95
536.709,1903.95
536.877,1905.95
537.045,1908.4
537.213,1902.9
537.381,1904.85
537.55,1901.25
537.718,1899.15
537.886,1904.5
538.054,1898.45
538.222,1899.1
538.39,1895.85
538.558,1892.7
538.727,1888.7
538.895,1887.75
539.063,1885.85
539.231,1886.35
539.399,1883.6
539.567,1883.9
539.735,1887.75
539.903,1882.6
540.071,1882.6
540.239,1882.2
540.408,1883.8
540.576,1881.55
540.744,1881.3
540.912,1882.4
541.08,1880.1
541.248,1878.95
541.416,1879.7
541.584,1878.05
541.752,1883.25
541.92,1879.6
542.088,1879.9
542.256,1881.3
542.424,1880.95
542.592,1880.8
542.76,1878.1
542.928,1880.95
543.096,1878.85
543.264,1877.65
543.432,1878.75
543.6,1880.45
543.768,1879.95
543.936,1878.3
544.104,1880.75
544.271,1879.45
544.439,1877.45
544.607,1877.15
544.775,1880.6
544.943,1878.35
545.111,1876.8
545.279,1877.6
545.447,1876.9
545.615,1876.45
545.783,1880.7
545.95,1877.8
546.118,1876.4
546.286,1880.55
546.454,1879.55
546.622,1879.5
546.79,1879.7
546.957,1877.9
547.125,1879.65
547.293,1878.85
547.461,1879.15
547.629,1878.1
547.797,1879.85
547.964,1880.65
548.132,1877.7
548.3,1877.25
548.468,1877.55
548.635,1878.65
548.803,1877.15
548.971,1877.5
549.139,1875.45
549.306,1877.75
549.474,1876.05
549.642,1878.65
549.81,1877.9
549.977,1882.6
550.145,1881.55
550.313,1879.6
550.48,1878.9
550.648,1876.35
550.816,1880.2
550.983,1880.65
551.151,1879.05
551.319,1879.15
551.486,1879.5
551.654,1880.9
551.822,1879.7
551.989,1880.15
552.157,1882.55
552.325,1882.45
552.492,1882.35
552.66,1882.15
552.828,1882.7
552.995,1881.85
553.163,1885.4
553.33,1887.55
553.498,1888.8
553.665,1893.25
553.833,1886.25
554.001,1888.3
554.168,1885.5
554.336,1888.1
554.503,1885.8
554.671,1890.4
554.838,1889.9
555.006,1892.85
555.173,1893.2
555.341,1891.05
555.508,1889.85
555.676,1894.85
555.843,1897.25
556.011,1896.65
556.178,1897.0
556.346,1896.15
556.513,1899.4
556.681,1899.3
556.848,1903.85
557.016,1900.5
557.183,1907.65
557.35,1906.85
557.518,1902.95
557.685,1912.35
557.853,1909.8
558.02,1915.55
558.188,1908.75
558.355,1912.95
558.522,1917.8
558.69,1919.15
558.857,1911.5
559.024,1909.5
559.192,1904.4
559.359,1908.0
559.526,1907.25
559.694,1905.9
559.861,1907.85
560.028,1904.2
560.196,1901.05
560.363,1900.95
560.53,1902.25
560.698,1900.95
560.865,1899.0
561.032,1900.0
561.2,1902.3
561.367,1899.9
561.534,1907.6
561.701,1902.35
561.869,1904.95
562.036,1907.0
562.203,1908.75
562.37,1913.2
562.538,1913.1
562.705,1913.9
562.872,1918.95
563.039,1914.95
563.206,1923.3
563.374,1926.25
563.541,1955.75
563.708,2040.8
563.875,2218.0
564.042,2272.4
564.209,2095.0
564.376,1984.45
564.544,1976.4
564.711,1976.95
564.878,1963.4
565.045,1957.4
565.212,1952.3
565.379,1956.8
565.546,1959.8
565.713,2002.35
565.881,2137.75
566.048,2358.5
566.215,2434.7
566.382,2142.15
566.549,1968.95
566.716,1931.6
566.883,1932.7
567.05,1928.1
567.217,1943.0
567.384,1968.2
567.551,1953.6
567.718,1925.9
567.885,1922.6
568.052,1917.3
568.219,1914.5
568.386,1914.55
568.553,1913.9
568.72,1913.0
568.887,1917.9
569.054,1914.75
569.221,1921.45
569.388,1919.95
569.555,1914.1
569.722,1919.55
569.888,1916.7
570.055,1916.6
570.222,1924.7
570.389,1929.95
570.556,1941.1
570.723,1949.0
570.89,1952.9
571.057,1967.9
571.224,2089.0
571.39,2399.0
571.557,2534.2
571.724,2238.45
571.891,2028.05
572.058,1981.1
572.225,1953.3
572.391,1945.7
572.558,1933.8
572.725,1919.25
572.892,1914.85
573.059,1913.65
573.225,1916.55
573.392,1913.75
573.559,1916.45
573.726,1934.0
573.892,1949.6
574.059,1939.7
574.226,1916.45
574.393,1909.9
574.559,1910.3
574.726,1908.7
574.893,1915.4
575.059,1928.05
575.226,2002.65
575.393,2172.75
575.559,2248.45
575.726,2125.85
575.893,2112.8
576.059,2182.7
576.226,2276.4
576.393,2269.5
576.559,2186.35
576.726,2141.1
576.893,2141.05
577.059,2128.9
577.226,2078.2
577.392,2007.05
577.559,1966.6
577.726,1943.85
577.892,1928.8
578.059,1923.35
578.225,1916.3
578.392,1911.9
578.558,1908.5
578.725,1908.75
578.891,1906.5
579.058,1905.95
579.224,1909.9
579.391,1907.2
579.557,1899.8
579.724,1908.7
579.89,1908.5
580.057,1907.0
580.223,1903.05
580.39,1904.55
580.556,1902.65
580.723,1904.85
580.889,1903.1
581.056,1904.9
581.222,1899.2
581.388,1901.2
581.555,1904.85
581.721,1900.5
581.888,1903.7
582.054,1902.55
582.22,1900.95
582.387,1899.3
582.553,1900.95
582.719,1900.5
582.886,1900.7
583.052,1900.8
583.219,1898.25
583.385,1897.1
583.551,1896.4
583.717,1896.3
583.884,1894.65
584.05,1896.5
584.216,1894.15
584.383,1897.9
584.549,1898.05
584.715,1900.0
584.881,1894.4
585.048,1891.85
585.214,1895.8
585.38,1895.15
585.546,1894.8
585.713,1892.45
585.879,1894.3
586.045,1898.05
586.211,1898.05
586.377,1896.35
586.544,1892.6
586.71,1895.5
586.876,1894.95
587.042,1893.9
587.208,1898.3
587.374,1898.1
587.541,1895.9
587.707,1893.45
587.873,1895.25
588.039,1899.1
588.205,1899.8
588.371,1893.8
588.537,1897.25
588.703,1896.85
588.869,1895.65
589.035,1895.05
589.201,1897.5
589.368,1891.9
589.534,1895.65
589.7,1896.45
589.866,1892.85
590.032,1894.3
590.198,1892.8
590.364,1895.05
590.53,1895.4
590.696,1896.55
590.862,1894.25
591.028,1898.95
591.194,1896.45
591.36,1893.55
591.525,1892.9
591.691,1898.85
591.857,1893.75
592.023,1896.15
592.189,1897.7
592.355,1898.05
592.521,1897.75
592.687,1894.4
592.853,1897.3
593.019,1899.25
593.185,1897.4
593.35,1896.05
593.516,1900.05
593.682,1897.95
593.848,1895.75
594.014,1897.75
594.18,1900.95
594.345,1900.8
594.511,1898.35
594.677,1899.65
594.843,1893.35
595.009,1899.4
595.174,1899.1
595.34,1895.8
595.506,1898.5
595.672,1899.2
595.837,1904.35
596.003,1900.25
596.169,1897.4
596.335,1899.2
596.5,1897.95
596.666,1899.4
596.832,1901.5
596.997,1897.95
597.163,1903.1
597.329,1899.0
597.494,1900.0
597.66,1901.55
597.826,1900.0
597.991,1900.9
598.157,1899.5
598.323,1906.15
598.488,1905.3
598.654,1904.05
598.819,1903.6
598.985,1901.25
599.151,1901.05
599.316,1908.05
599.482,1909.25
599.647,1907.4
599.813,1909.65
599.978,1910.4
600.144,1905.6
600.309,1904.15
600.475,1901.95
600.641,1904.75
600.806,1901.85
600.972,1904.05
601.137,1911.75
601.302,1903.95
601.468,1905.0
601.633,1912.55
601.799,1912.75
601.964,1911.9
602.13,1915.85
602.295,1912.75
602.461,1907.8
602.626,1905.95
602.791,1906.05
602.957,1906.0
603.122,1901.95
603.288,1908.5
603.453,1903.8
603.618,1908.45
603.784,1913.4
603.949,1909.45
604.114,1901.85
604.28,1907.65
604.445,1907.05
604.61,1905.3
604.776,1905.7
604.941,1904.05
605.106,1902.35
605.272,1902.8
605.437,1906.25
605.602,1901.65
605.767,1905.6
605.933,1905.3
606.098,1899.55
606.263,1899.65
606.428,1905.15
606.593,1902.45
606.759,1904.15
606.924,1902.65
607.089,1898.85
607.254,1906.0
607.419,1902.5
607.585,1899.2
607.75,1900.55
607.915,1902.4
608.08,1901.75
608.245,1903.9
608.41,1899.25
608.575,1904.65
608.74,1903.55
608.906,1905.35
609.071,1904.6
609.236,1902.3
609.401,1901.25
609.566,1902.9
609.731,1900.5
609.896,1905.9
610.061,1905.45
610.226,1904.35
610.391,1907.15
610.556,1910.85
610.721,1909.25
610.886,1912.55
611.051,1915.0
611.216,1914.55
611.381,1910.1
611.546,1908.0
611.711,1909.65
611.876,1901.05
612.041,1901.95
612.206,1906.15
612.371,1895.85
612.536,1902.95
612.7,1903.1
612.865,1902.05
613.03,1900.8
613.195,1902.9
613.36,1900.95
613.525,1898.5
613.69,1900.35
613.855,1899.75
614.019,1902.6
614.184,1902.45
614.349,1905.7
614.514,1902.0
614.679,1903.3
614.843,1904.9
615.008,1904.8
615.173,1905.15
615.338,1906.5
615.503,1907.05
615.667,1905.95
615.832,1911.8
615.997,1914.45
616.161,1905.9
616.326,1914.3
616.491,1915.9
616.656,1913.1
616.82,1918.7
616.985,1926.35
617.15,1935.0
617.314,1930.85
617.479,1923.55
617.644,1930.65
617.808,1931.2
617.973,1942.55
618.137,1935.5
618.302,1934.0
618.467,1932.7
618.631,1930.55
618.796,1932.55
618.96,1928.95
619.125,1940.9
619.289,1938.7
619.454,1946.45
619.619,1948.8
619.783,1949.2
619.948,1941.25
620.112,1943.85
620.277,1943.8
620.441,1950.0
620.606,1946.8
620.77,1953.8
620.935,1958.9
621.099,1968.3
621.263,1981.4
621.428,1989.3
621.592,2028.95
621.757,2035.85
621.921,2061.95
622.086,2081.15
622.25,2092.7
622.414,2074.5
622.579,2043.85
622.743,2001.25
622.907,1980.9
623.072,1968.75
623.236,1965.1
623.401,1948.55
623.565,1953.5
623.729,1942.55
623.893,1950.75
624.058,1943.7
624.222,1945.25
624.386,1947.4
624.551,1945.15
624.715,1946.1
624.879,1950.8
625.043,1960.4
625.208,1959.3
625.372,1963.85
625.536,1974.3
625.7,2000.0
625.864,2001.75
626.029,2031.15
626.193,2081.5
626.357,2183.6
626.521,2371.7
626.685,2735.65
626.849,3372.15
627.014,4114.4
627.178,4170.25
627.342,4140.8
627.506,3641.4
627.67,3516.05
627.834,3303.55
627.998,3326.95
628.162,3578.9
628.326,3991.95
628.49,4343.7
628.654,3881.55
628.818,3337.95
628.983,3090.55
629.147,3012.15
629.311,2940.85
629.475,2898.1
629.639,2734.9
629.803,2647.9
629.966,2599.65
630.13,2611.7
630.294,2576.45
630.458,2539.9
630.622,2462.9
630.786,2330.05
630.95,2219.9
631.114,2113.1
631.278,2048.65
631.442,2015.3
631.606,2012.3
631.77,1984.5
631.933,1976.4
632.097,1960.15
632.261,1954.6
632.425,1955.3
632.589,1948.0
632.753,1945.1
632.916,1939.9
633.08,1927.5
633.244,1932.75
633.408,1927.6
633.572,1929.4
633.735,1921.2
633.899,1923.25
634.063,1920.65
634.227,1916.4
634.39,1918.6
634.554,1909.65
634.718,1909.75
634.881,1911.0
635.045,1911.75
635.209,1908.95
635.372,1907.4
635.536,1896.35
635.7,1908.05
635.863,1905.4
636.027,1904.35
636.191,1902.9
636.354,1902.75
636.518,1906.85
636.681,1903.45
636.845,1898.1
637.009,1899.6
637.172,1891.15
637.336,1893.7
637.499,1888.1
637.663,1890.25
637.826,1890.15
637.99,1891.0
638.153,1888.1
638.317,1886.25
638.48,1891.85
638.644,1892.15
638.807,1887.6
638.971,1884.4
639.134,1887.5
639.298,1886.6
639.461,1886.15
639.625,1887.7
639.788,1884.9
639.951,1889.2
640.115,1884.95
640.278,1881.4
640.441,1882.95
640.605,1883.55
640.768,1884.8
640.932,1881.05
641.095,1885.55
641.258,1881.05
641.422,1881.35
641.585,1884.05
641.748,1882.7
641.911,1884.25
642.075,1881.0
642.238,1882.5
642.401,1885.45
642.565,1881.9
642.728,1881.25
642.891,1880.1
643.054,1883.3
643.217,1880.5
643.381,1878.65
643.544,1884.1
643.707,1880.9
643.87,1881.35
644.033,1882.55
644.197,1881.85
644.36,1883.0
644.523,1884.65
644.686,1879.55
644.849,1881.55
645.012,1878.85
645.175,1878.6
645.338,1880.7
645.501,1882.4
645.664,1880.05
645.828,1880.05
645.991,1878.9
646.154,1879.95
646.317,1879.15
646.48,1876.65
646.643,1883.85
646.806,1879.15
646.969,1879.25
647.132,1878.2
647.295,1881.45
647.458,1878.1
647.621,1878.6
647.783,1880.25
647.946,1880.15
648.109,1880.6
648.272,1880.75
648.435,1879.95
648.598,1879.1
648.761,1877.5
648.924,1878.35
649.087,1879.2
649.25,1880.5
649.412,1877.35
649.575,1878.45
649.738,1877.45
649.901,1877.1
650.064,1878.8
650.226,1877.75
650.389,1879.5
650.552,1876.8
650.715,1877.15
650.878,1882.2
651.04,1879.45
651.203,1876.3
651.366,1878.45
651.528,1875.7
651.691,1875.7
651.854,1875.45
652.017,1877.45
652.179,1876.85
652.342,1874.2
652.505,1876.3
652.667,1876.3
652.83,1877.1
652.992,1878.3
653.155,1874.2
653.318,1876.1
653.48,1877.3
653.643,1873.95
653.805,1876.25
653.968,1876.05
654.131,1873.1
654.293,1874.15
654.456,1875.4
654.618,1875.9
654.781,1876.45
654.943,1876.0
655.106,1874.75
655.268,1876.0
655.431,1873.95
655.593,1877.3
655.756,1873.75
655.918,1875.35
656.081,1871.8
656.243,1870.5
656.405,1876.4
656.568,1874.65
656.73,1874.45
656.893,1871.75
657.055,1873.4
657.217,1873.35
657.38,1873.55
657.542,1874.0
657.704,1874.5
657.867,1872.95
658.029,1874.3
658.191,1875.75
658.354,1872.7
658.516,1870.3
658.678,1872.05
658.84,1876.1
659.003,1873.3
659.165,1873.5
659.327,1874.6
659.489,1871.9
659.652,1874.15
659.814,1874.35
659.976,1878.25
660.138,1875.6
660.3,1874.95
660.463,1875.4
660.625,1874.7
660.787,1873.7
660.949,1870.25
661.03,1871.25