File: spectra/VLFR_01-LDPE_nobio_Raman_f2fdd988.csv
nm,Intensity
526.532,830.467
526.669,830.2
526.805,829.8
526.942,830.4
527.079,829.8
527.216,830.733
527.352,829.367
527.489,830.267
527.625,829.2
527.762,830.833
527.899,830.333
528.035,830.233
528.172,830.1
528.309,830.067
528.445,830.533
528.582,829.667
528.718,830.033
528.855,830.133
528.992,830.433
529.128,830.1
529.265,830.133
529.401,830.2
529.538,830.067
529.674,829.833
529.811,829.833
529.947,830.0
530.084,829.567
530.22,830.0
530.357,830.367
530.493,830.3
530.63,830.333
530.766,830.0
530.903,830.867
531.039,829.3
531.176,830.467
531.312,830.733
531.449,829.5
531.585,830.433
531.721,830.167
531.858,830.433
531.994,836.7
532.131,863.533
532.267,856.2
532.403,835.067
532.54,829.833
532.676,830.233
532.812,829.467
532.949,829.767
533.085,829.633
533.221,830.633
533.358,830.367
533.494,830.667
533.63,832.3
533.767,841.3
533.903,876.0
534.039,912.667
534.176,920.6
534.312,917.767
534.448,912.233
534.584,905.5
534.721,904.467
534.857,903.0
534.993,897.5
535.129,891.4
535.266,889.033
535.402,885.3
535.538,884.7
535.674,881.933
535.81,878.333
535.947,877.133
536.083,875.467
536.219,872.433
536.355,872.633
536.491,872.4
536.627,870.6
536.764,868.433
536.9,869.333
537.036,868.2
537.172,867.767
537.308,869.267
537.444,868.9
537.58,868.267
537.716,868.867
537.852,869.267
537.988,868.1
538.125,868.233
538.261,867.1
538.397,866.567
538.533,866.133
538.669,866.233
538.805,865.233
538.941,866.4
539.077,866.3
539.213,865.4
539.349,862.9
539.485,861.833
539.621,859.967
539.757,860.3
539.893,858.133
540.029,859.567
540.165,858.233
540.301,857.5
540.437,856.533
540.572,857.5
540.708,858.033
540.844,857.467
540.98,857.667
541.116,856.633
541.252,855.9
541.388,855.1
541.524,856.067
541.66,854.567
541.795,854.4
541.931,855.233
542.067,856.667
542.203,854.5
542.339,857.3
542.475,855.5
542.611,855.867
542.746,856.9
542.882,856.867
543.018,855.067
543.154,855.967
543.289,855.133
543.425,855.367
543.561,854.467
543.697,855.9
543.833,854.733
543.968,854.4
544.104,855.333
544.24,854.133
544.375,853.6
544.511,853.8
544.647,852.7
544.783,852.733
544.918,854.1
545.054,853.767
545.19,853.7
545.325,853.2
545.461,852.833
545.597,852.667
545.732,852.833
545.868,854.133
546.004,854.4
546.139,852.367
546.275,851.967
546.41,853.133
546.546,853.767
546.682,852.3
546.817,852.133
546.953,852.9
547.088,852.733
547.224,853.633
547.36,853.1
547.495,852.433
547.631,851.367
547.766,852.267
547.902,851.567
548.037,851.267
548.173,851.833
548.308,852.3
548.444,850.267
548.579,851.433
548.715,850.533
548.85,850.767
548.986,851.367
549.121,851.833
549.257,852.433
549.392,851.733
549.528,849.967
549.663,851.333
549.798,851.1
549.934,851.067
550.069,851.4
550.205,851.267
550.34,850.9
550.475,851.867
550.611,850.467
550.746,852.367
550.882,853.133
551.017,851.033
551.152,851.533
551.288,850.8
551.423,851.5
551.558,851.333
551.694,850.167
551.829,852.367
551.964,852.167
552.1,852.167
552.235,852.167
552.37,852.1
552.505,851.767
552.641,851.133
552.776,850.9
552.911,851.5
553.047,852.467
553.182,852.9
553.317,853.4
553.452,854.9
553.588,856.433
553.723,855.733
553.858,854.4
553.993,855.133
554.128,855.1
554.264,853.733
554.399,855.267
554.534,854.667
554.669,854.4
554.804,854.267
554.939,856.0
555.075,856.4
555.21,856.933
555.345,856.667
555.48,855.233
555.615,858.267
555.75,856.433
555.885,857.1
556.02,858.0
556.155,858.333
556.291,857.967
556.426,859.133
556.561,859.1
556.696,859.867
556.831,861.233
556.966,861.667
557.101,861.1
557.236,862.0
557.371,862.9
557.506,863.2
557.641,863.3
557.776,865.5
557.911,864.767
558.046,865.4
558.181,867.2
558.316,866.933
558.451,864.767
558.586,866.733
558.721,866.367
558.856,865.033
558.991,864.467
559.126,863.333
559.261,862.1
559.396,861.867
559.531,861.4
559.665,861.133
559.8,862.433
559.935,861.1
560.07,860.867
560.205,860.9
560.34,859.933
560.475,859.533
560.61,861.867
560.745,859.267
560.879,859.633
561.014,860.0
561.149,859.133
561.284,859.7
561.419,860.533
561.553,859.3
561.688,860.033
561.823,861.6
561.958,863.7
562.093,861.0
562.227,862.4
562.362,863.667
562.497,864.567
562.632,864.967
562.767,865.333
562.901,866.833
563.036,867.767
563.171,870.533
563.305,869.833
563.44,871.733
563.575,875.2
563.71,880.633
563.844,901.567
563.979,945.8
564.114,976.333
564.248,932.833
564.383,900.567
564.518,893.633
564.652,893.067
564.787,890.8
564.922,888.167
565.056,884.867
565.191,880.3
565.325,878.8
565.46,878.3
565.595,879.633
565.729,880.433
565.864,890.9
565.999,924.7
566.133,972.367
566.268,967.067
566.402,917.867
566.537,891.133
566.671,880.733
566.806,876.567
566.94,875.433
567.075,872.733
567.21,873.5
567.344,874.633
567.479,878.533
567.613,878.167
567.748,871.1
567.882,869.567
568.017,868.5
568.151,866.933
568.285,866.433
568.42,867.7
568.554,867.233
568.689,866.033
568.823,868.7
568.958,867.567
569.092,868.267
569.227,869.833
569.361,868.7
569.495,870.167
569.63,870.533
569.764,870.7
569.899,870.3
570.033,872.733
570.167,872.267
570.302,874.833
570.436,876.633
570.571,877.1
570.705,880.2
570.839,880.5
570.974,883.667
571.108,886.4
571.242,896.433
571.377,926.433
571.511,1026.1
571.645,1048.97
571.78,963.0
571.914,929.367
572.048,912.8
572.182,906.433
572.317,897.533
572.451,892.667
572.585,888.967
572.719,883.767
572.854,882.467
572.988,881.1
573.122,883.333
573.256,881.9
573.391,882.333
573.525,882.567
573.659,882.8
573.793,887.467
573.927,891.333
574.062,895.367
574.196,889.067
574.33,884.6
574.464,884.133
574.598,879.467
574.733,883.567
574.867,882.933
575.001,885.733
575.135,886.933
575.269,889.4
575.403,903.1
575.537,938.6
575.671,953.0
575.806,941.533
575.94,942.767
576.074,965.667
576.208,1007.3
576.342,1033.5
576.476,1019.0
576.61,990.6
576.744,983.7
576.878,982.5
577.012,981.7
577.146,973.233
577.28,957.233
577.414,940.433
577.548,926.167
577.682,917.7
577.817,915.367
577.951,911.1
578.085,911.133
578.219,908.433
578.353,909.433
578.486,910.033
578.62,912.8
578.754,914.033
578.888,914.233
579.022,916.733
579.156,917.067
579.29,918.8
579.424,919.533
579.558,920.8
579.692,922.133
579.826,924.4
579.96,924.8
580.094,924.6
580.228,925.7
580.362,928.533
580.496,930.533
580.629,931.233
580.763,932.233
580.897,935.867
581.031,935.633
581.165,938.367
581.299,939.333
581.433,937.967
581.566,942.767
581.7,944.9
581.834,944.5
581.968,945.133
582.102,947.567
582.236,951.2
582.369,951.6
582.503,952.767
582.637,953.9
582.771,955.867
582.905,957.833
583.038,958.0
583.172,960.767
583.306,959.9
583.44,960.767
583.573,962.3
583.707,963.833
583.841,964.4
583.975,966.833
584.108,966.467
584.242,969.533
584.376,968.367
584.509,971.767
584.643,969.1
584.777,973.367
584.911,974.6
585.044,976.0
585.178,977.633
585.312,978.2
585.445,981.467
585.579,979.767
585.713,982.433
585.846,984.167
585.98,985.367
586.113,986.6
586.247,989.767
586.381,990.233
586.514,994.333
586.648,993.133
586.782,997.333
586.915,998.233
587.049,995.6
587.182,999.167
587.316,1000.37
587.45,1002.07
587.583,1006.23
587.717,1004.33
587.85,1006.57
587.984,1004.33
588.117,1010.27
588.251,1008.67
588.384,1009.73
588.518,1014.4
588.651,1012.3
588.785,1013.2
588.919,1012.4
589.052,1013.63
589.186,1017.87
589.319,1018.8
589.453,1023.07
589.586,1021.4
589.72,1022.07
589.853,1027.97
589.986,1024.27
590.12,1031.33
590.253,1026.6
590.387,1030.57
590.52,1032.53
590.654,1036.2
590.787,1037.13
590.921,1038.6
591.054,1039.83
591.187,1042.23
591.321,1040.6
591.454,1040.27
591.588,1042.17
591.721,1040.6
591.854,1045.53
591.988,1043.63
592.121,1044.13
592.255,1045.23
592.388,1045.27
592.521,1045.03
592.655,1046.77
592.788,1047.87
592.921,1047.4
593.055,1048.6
593.188,1047.07
593.321,1047.93
593.455,1048.27
593.588,1048.83
593.721,1048.67
593.855,1048.47
593.988,1049.03
594.121,1051.17
594.255,1052.13
594.388,1048.97
594.521,1051.17
594.654,1054.23
594.788,1052.97
594.921,1051.23
595.054,1058.97
595.187,1056.87
595.321,1060.37
595.454,1061.13
595.587,1058.17
595.72,1061.8
595.854,1059.5
595.987,1061.13
596.12,1063.13
596.253,1062.27
596.387,1062.57
596.52,1064.9
596.653,1065.53
596.786,1061.73
596.919,1068.37
597.052,1070.97
597.186,1072.2
597.319,1073.3
597.452,1072.4
597.585,1073.4
597.718,1071.13
597.851,1078.8
597.985,1077.83
598.118,1083.83
598.251,1084.6
598.384,1085.4
598.517,1084.27
598.65,1086.17
598.783,1089.13
598.916,1090.9
599.049,1090.73
599.183,1092.53
599.316,1093.77
599.449,1094.53
599.582,1095.97
599.715,1097.7
599.848,1097.5
599.981,1096.27
600.114,1092.4
600.247,1093.1
600.38,1092.0
600.513,1091.23
600.646,1093.7
600.779,1095.63
600.912,1092.77
601.045,1091.8
601.178,1093.57
601.311,1094.63
601.444,1089.9
601.577,1090.17
601.71,1089.73
601.843,1089.7
601.976,1091.87
602.109,1091.4
602.242,1088.27
602.375,1087.3
602.508,1088.63
602.641,1083.8
602.774,1080.63
602.907,1080.93
603.04,1078.13
603.173,1079.0
603.306,1078.17
603.439,1075.57
603.572,1075.17
603.705,1075.1
603.838,1071.47
603.971,1066.67
604.103,1065.27
604.236,1063.47
604.369,1065.9
604.502,1054.3
604.635,1052.27
604.768,1052.67
604.901,1050.43
605.034,1046.7
605.167,1043.87
605.299,1040.1
605.432,1038.9
605.565,1037.0
605.698,1035.77
605.831,1030.2
605.964,1028.0
606.096,1027.3
606.229,1023.53
606.362,1022.0
606.495,1020.73
606.628,1021.03
606.761,1019.07
606.893,1014.27
607.026,1012.73
607.159,1012.63
607.292,1010.33
607.425,1008.4
607.557,1007.53
607.69,1002.57
607.823,1005.73
607.956,1003.03
608.088,1001.67
608.221,1000.37
608.354,999.667
608.487,999.167
608.619,997.4
608.752,995.867
608.885,995.233
609.018,994.267
609.15,994.2
609.283,988.967
609.416,988.067
609.548,988.733
609.681,985.767
609.814,986.833
609.947,985.2
610.079,986.333
610.212,981.667
610.345,984.867
610.477,982.533
610.61,983.2
610.743,981.267
610.875,979.033
611.008,980.467
611.141,978.2
611.273,979.167
611.406,977.967
611.539,974.8
611.671,972.7
611.804,972.233
611.936,971.667
612.069,972.3
612.202,972.033
612.334,970.767
612.467,971.933
612.6,971.267
612.732,967.1
612.865,966.4
612.997,968.267
613.13,967.467
613.263,966.367
613.395,968.733
613.528,967.767
613.66,964.033
613.793,963.867
613.925,963.033
614.058,964.6
614.19,961.933
614.323,961.833
614.456,959.767
614.588,960.9
614.721,960.3
614.853,958.0
614.986,959.267
615.118,957.567
615.251,958.6
615.383,954.833
615.516,954.833
615.648,956.833
615.781,951.667
615.913,954.1
616.046,951.9
616.178,953.1
616.311,953.3
616.443,952.033
616.576,952.5
616.708,953.767
616.841,952.033
616.973,953.933
617.106,955.8
617.238,954.833
617.37,955.267
617.503,953.7
617.635,955.267
617.768,952.633
617.9,951.833
618.033,952.4
618.165,952.267
618.297,951.4
618.43,953.167
618.562,949.567
618.695,950.4
618.827,949.733
618.96,953.467
619.092,949.167
619.224,950.467
619.357,952.0
619.489,952.467
619.621,952.533
619.754,954.367
619.886,952.967
620.019,952.067
620.151,951.233
620.283,952.5
620.416,952.0
620.548,950.767
620.68,951.467
620.813,950.8
620.945,952.433
621.077,952.633
621.21,955.967
621.342,957.833
621.474,961.7
621.607,964.3
621.739,967.467
621.871,972.833
622.004,978.833
622.136,985.167
622.268,989.067
622.401,989.867
622.533,987.4
622.665,977.0
622.797,972.3
622.93,963.667
623.062,960.167
623.194,956.733
623.326,950.633
623.459,950.0
623.591,951.2
623.723,948.1
623.856,948.067
623.988,944.4
624.12,946.2
624.252,945.8
624.384,947.6
624.517,946.933
624.649,945.467
624.781,949.1
624.913,947.7
625.046,949.367
625.178,950.667
625.31,949.033
625.442,954.267
625.574,955.733
625.707,955.2
625.839,959.433
625.971,964.067
626.103,969.2
626.235,978.067
626.368,983.867
626.5,1007.27
626.632,1045.5
626.764,1112.43
626.896,1233.63
627.028,1414.47
627.161,1607.3
627.293,1690.33
627.425,1624.87
627.557,1535.17
627.689,1457.83
627.821,1400.83
627.953,1371.07
628.086,1357.2
628.218,1376.9
628.35,1458.93
628.482,1662.8
628.614,1825.9
628.746,1693.17
628.878,1536.83
629.01,1481.0
629.143,1448.93
629.275,1426.13
629.407,1393.27
629.539,1355.8
629.671,1323.07
629.803,1282.97
629.935,1263.33
630.067,1254.23
630.199,1248.53
630.331,1242.83
630.463,1242.3
630.596,1221.3
630.728,1197.93
630.86,1165.53
630.992,1117.4
631.124,1077.67
631.256,1041.7
631.388,1025.5
631.52,1013.7
631.652,1004.93
631.784,997.8
631.916,993.133
632.048,985.7
632.18,975.9
632.312,973.5
632.444,966.567
632.576,965.767
632.708,963.333
632.84,961.233
632.972,961.233
633.104,957.367
633.236,956.733
633.368,955.167
633.5,953.567
633.632,955.967
633.764,951.967
633.896,953.367
634.028,952.7
634.16,949.967
634.292,951.967
634.424,951.633
634.556,951.467
634.688,952.1
634.82,951.633
634.952,949.6
635.084,950.333
635.216,948.533
635.348,949.733
635.48,951.1
635.612,952.467
635.744,947.967
635.876,951.3
636.007,950.233
636.139,950.467
636.271,951.9
636.403,950.533
636.535,952.233
636.667,950.0
636.799,949.3
636.931,950.6
637.063,950.333
637.195,949.6
637.327,948.933
637.459,946.8
637.59,948.733
637.722,949.967
637.854,948.2
637.986,948.467
638.118,946.633
638.25,947.933
638.382,949.4
638.514,947.0
638.645,948.567
638.777,949.7
638.909,949.8
639.041,952.433
639.173,948.5
639.305,950.0
639.437,948.833
639.568,953.433
639.7,952.933
639.832,950.633
639.964,949.867
640.096,953.3
640.228,952.333
640.36,952.067
640.491,954.0
640.623,950.533
640.755,953.533
640.887,952.767
641.019,951.333
641.15,952.333
641.282,954.1
641.414,956.067
641.546,952.467
641.678,953.367
641.81,954.333
641.941,955.367
642.073,956.767
642.205,954.467
642.337,953.8
642.468,956.4
642.6,956.5
642.732,955.1
642.864,956.067
642.996,955.0
643.127,954.8
643.259,953.667
643.391,952.3
643.523,957.767
643.654,953.033
643.786,953.833
643.918,951.167
644.05,952.633
644.181,954.2
644.313,954.367
644.445,954.6
644.577,952.967
644.708,953.2
644.84,953.467
644.972,953.9
645.104,951.5
645.235,952.267
645.367,953.3
645.499,954.467
645.631,953.433
645.762,951.033
645.894,952.233
646.026,952.6
646.157,952.0
646.289,951.333
646.421,951.4
646.553,951.967
646.684,952.7
646.816,951.167
646.948,952.567
647.079,952.333
647.211,952.4
647.343,951.5
647.474,951.6
647.606,950.467
647.738,955.067
647.869,951.567
648.001,953.6
648.133,950.667
648.265,949.867
648.396,951.5
648.528,951.5
648.66,948.7
648.791,952.7
648.923,948.967
649.054,948.533
649.186,949.867
649.318,949.533
649.449,948.0
649.581,948.467
649.713,949.0
649.844,951.0
649.976,949.2
650.108,950.0
650.239,950.367
650.371,947.3
650.503,947.2
650.634,948.433
650.766,949.8
650.897,947.2
651.029,950.167
651.161,949.0
651.292,947.867
651.424,947.333
651.556,950.533
651.687,948.7
651.819,948.233
651.95,947.0
652.082,949.867
652.214,948.167
652.345,948.067
652.477,947.9
652.608,949.9
652.74,950.367
652.872,949.633
653.003,952.5
653.135,948.2
653.266,949.067
653.398,952.633
653.529,949.6
653.661,949.667
653.793,949.933
653.924,953.733
654.056,950.133
654.187,950.733
654.319,949.767
654.45,948.5
654.582,951.167
654.714,949.5
654.845,946.833
654.977,947.667
655.108,947.133
655.24,945.867
655.371,948.967
655.503,946.6
655.634,946.967
655.766,944.967
655.897,945.167
656.029,943.4
656.161,945.133
656.292,941.567
656.424,941.1
656.555,941.433
656.687,941.467
656.818,942.2
656.95,942.033
657.081,941.967
657.213,939.3
657.344,943.667
657.476,939.333
657.607,939.2
657.739,940.133
657.87,940.7
658.002,937.433
658.133,937.667
658.265,935.767
658.396,934.767
658.528,934.633
658.659,935.567
658.791,935.633
658.922,934.433
659.054,932.233
659.185,934.467
659.317,930.433
659.448,931.333
659.58,930.967
659.711,929.133
659.843,927.933
659.974,929.533
660.106,927.967
660.237,927.867
660.368,929.3
660.5,924.967
660.631,924.567
660.763,923.233
660.894,920.3
661.026,919.933
661.157,919.667
661.289,919.3
661.42,917.3
661.552,917.833
661.683,919.0
661.815,917.333
661.946,916.533
662.077,913.533
662.209,913.433
662.34,913.9
662.472,913.2
662.603,909.033
662.735,910.233
662.866,909.3
662.997,909.567
663.129,907.567