File: spectra/VLFR_08-PLA_bio_Raman_237b0b6f.csv
nm,Intensity
528.65,1828.9
528.819,1828.8
528.987,1827.25
529.155,1829.3
529.324,1828.15
529.492,1828.35
529.66,1829.45
529.829,1828.85
529.997,1829.1
530.165,1826.8
530.334,1829.2
530.502,1828.4
530.67,1830.3
530.839,1829.75
531.007,1829.45
531.175,1832.25
531.344,1832.75
531.512,1839.55
531.68,1873.05
531.848,2360.3
532.017,3989.4
532.185,3462.75
532.353,2060.0
532.521,1833.75
532.69,1830.55
532.858,1829.7
533.026,1831.25
533.194,1830.9
533.363,1832.25
533.531,1853.0
533.699,1971.3
533.867,2217.4
534.036,2353.55
534.204,2379.35
534.372,2362.15
534.54,2347.3
534.708,2341.6
534.877,2340.25
535.045,2332.15
535.213,2325.2
535.381,2328.2
535.549,2331.15
535.717,2290.3
535.886,2296.2
536.054,2281.6
536.222,2294.25
536.39,2292.4
536.558,2307.5
536.726,2301.45
536.894,2300.8
537.062,2288.05
537.231,2292.8
537.399,2300.2
537.567,2297.6
537.735,2322.75
537.903,2302.45
538.071,2301.1
538.239,2288.75
538.407,2289.7
538.575,2298.95
538.743,2290.75
538.911,2291.0
539.079,2301.65
539.247,2293.4
539.415,2312.95
539.583,2300.4
539.751,2293.85
539.919,2292.15
540.087,2295.45
540.255,2318.9
540.423,2323.65
540.591,2344.5
540.759,2345.5
540.927,2342.0
541.095,2351.55
541.263,2354.75
541.431,2336.6
541.599,2339.5
541.767,2339.4
541.935,2343.2
542.103,2346.6
542.271,2347.9
542.439,2352.7
542.607,2349.55
542.775,2349.85
542.943,2365.05
543.111,2382.7
543.279,2386.0
543.446,2414.1
543.614,2425.2
543.782,2425.7
543.95,2431.8
544.118,2425.1
544.286,2415.7
544.454,2385.65
544.622,2381.6
544.789,2377.6
544.957,2388.8
545.125,2388.25
545.293,2393.95
545.461,2399.5
545.629,2395.25
545.796,2407.45
545.964,2412.55
546.132,2404.2
546.3,2406.65
546.468,2408.2
546.635,2413.7
546.803,2417.55
546.971,2409.65
547.139,2420.0
547.306,2414.55
547.474,2413.2
547.642,2416.8
547.81,2420.45
547.977,2436.25
548.145,2445.1
548.313,2437.75
548.481,2432.45
548.648,2454.6
548.816,2440.35
548.984,2440.25
549.151,2462.7
549.319,2465.95
549.487,2446.0
549.655,2448.8
549.822,2450.45
549.99,2454.9
550.158,2469.1
550.325,2453.35
550.493,2460.35
550.66,2487.95
550.828,2486.8
550.996,2508.15
551.163,2499.45
551.331,2501.3
551.499,2520.4
551.666,2512.05
551.834,2516.8
552.001,2517.6
552.169,2510.0
552.337,2530.8
552.504,2506.6
552.672,2521.05
552.839,2516.9
553.007,2509.9
553.174,2514.75
553.342,2523.2
553.509,2520.1
553.677,2513.05
553.844,2539.6
554.012,2540.45
554.179,2558.9
554.347,2542.3
554.514,2561.75
554.682,2528.55
554.849,2535.5
555.017,2527.15
555.184,2534.15
555.352,2538.65
555.519,2545.75
555.687,2537.65
555.854,2534.65
556.022,2544.05
556.189,2541.5
556.357,2528.7
556.524,2557.6
556.691,2540.45
556.859,2534.15
557.026,2551.8
557.194,2574.65
557.361,2608.8
557.528,2612.1
557.696,2686.75
557.863,2782.35
558.031,2863.7
558.198,2867.0
558.365,2714.25
558.533,2629.5
558.7,2624.35
558.867,2604.3
559.035,2618.8
559.202,2624.35
559.369,2598.85
559.537,2604.95
559.704,2588.4
559.871,2610.35
560.038,2604.35
560.206,2590.05
560.373,2603.7
560.54,2612.4
560.708,2599.45
560.875,2615.1
561.042,2600.75
561.209,2614.55
561.377,2600.25
561.544,2613.45
561.711,2651.4
561.878,2650.1
562.045,2664.55
562.213,2694.4
562.38,2734.15
562.547,2713.15
562.714,2668.35
562.881,2688.75
563.049,2666.85
563.216,2681.3
563.383,2721.35
563.55,2702.75
563.717,2709.15
563.884,2673.95
564.052,2674.0
564.219,2670.7
564.386,2677.1
564.553,2664.4
564.72,2703.45
564.887,2721.85
565.054,2724.55
565.221,2729.6
565.388,2719.75
565.556,2714.1
565.723,2728.7
565.89,2741.5
566.057,2772.3
566.224,2775.5
566.391,2767.2
566.558,2721.15
566.725,2681.25
566.892,2688.7
567.059,2701.85
567.226,2681.25
567.393,2677.25
567.56,2679.75
567.727,2701.1
567.894,2708.7
568.061,2686.8
568.228,2692.2
568.395,2695.9
568.562,2722.4
568.729,2717.8
568.896,2716.6
569.063,2712.35
569.23,2725.9
569.396,2696.85
569.563,2698.55
569.73,2703.7
569.897,2713.9
570.064,2713.95
570.231,2716.65
570.398,2703.45
570.565,2726.85
570.732,2722.65
570.898,2725.85
571.065,2728.55
571.232,2737.1
571.399,2758.65
571.566,2780.55
571.733,2803.6
571.9,2782.55
572.066,2775.75
572.233,2750.05
572.4,2775.05
572.567,2777.45
572.734,2771.1
572.9,2791.6
573.067,2768.4
573.234,2780.35
573.401,2773.2
573.567,2758.55
573.734,2800.4
573.901,2747.35
574.068,2775.05
574.234,2763.8
574.401,2770.6
574.568,2795.55
574.734,2787.45
574.901,2739.75
575.068,2751.15
575.235,2742.2
575.401,2755.1
575.568,2753.4
575.735,2765.85
575.901,2783.3
576.068,2790.4
576.235,2779.8
576.401,2871.65
576.568,2910.65
576.734,2916.65
576.901,2916.05
577.068,2864.7
577.234,2824.15
577.401,2793.75
577.567,2772.75
577.734,2780.45
577.901,2726.4
578.067,2763.5
578.234,2763.3
578.4,2739.6
578.567,2766.6
578.733,2748.3
578.9,2762.75
579.066,2774.55
579.233,2755.95
579.399,2759.5
579.566,2768.5
579.732,2766.8
579.899,2759.9
580.065,2742.35
580.232,2765.75
580.398,2774.05
580.565,2756.4
580.731,2754.0
580.898,2762.85
581.064,2780.9
581.231,2758.5
581.397,2775.75
581.563,2786.2
581.73,2763.3
581.896,2757.3
582.063,2766.3
582.229,2775.25
582.395,2790.55
582.562,2746.25
582.728,2757.75
582.895,2747.8
583.061,2756.1
583.227,2769.0
583.394,2773.5
583.56,2777.55
583.726,2773.9
583.893,2770.35
584.059,2763.95
584.225,2776.85
584.391,2775.2
584.558,2774.45
584.724,2767.05
584.89,2766.45
585.057,2767.7
585.223,2767.05
585.389,2766.55
585.555,2765.0
585.722,2749.0
585.888,2745.45
586.054,2750.35
586.22,2797.9
586.386,2811.25
586.553,2816.25
586.719,2853.75
586.885,2820.15
587.051,2864.65
587.217,2898.65
587.384,2919.5
587.55,2935.15
587.716,2912.3
587.882,2841.25
588.048,2814.75
588.214,2778.2
588.38,2795.8
588.546,2760.2
588.713,2762.8
588.879,2770.8
589.045,2768.45
589.211,2766.8
589.377,2747.15
589.543,2751.25
589.709,2753.6
589.875,2743.45
590.041,2748.05
590.207,2751.75
590.373,2769.8
590.539,2768.05
590.705,2744.95
590.871,2747.85
591.037,2750.3
591.203,2756.95
591.369,2780.25
591.535,2734.05
591.701,2744.3
591.867,2759.7
592.033,2761.6
592.199,2752.95
592.365,2745.9
592.531,2772.2
592.697,2756.2
592.863,2750.4
593.029,2761.7
593.195,2746.15
593.361,2767.4
593.526,2736.55
593.692,2755.75
593.858,2757.55
594.024,2742.7
594.19,2751.7
594.356,2735.35
594.522,2742.0
594.687,2751.45
594.853,2732.5
595.019,2742.55
595.185,2756.0
595.351,2750.1
595.516,2752.2
595.682,2763.8
595.848,2759.25
596.014,2741.55
596.18,2751.75
596.345,2754.85
596.511,2758.1
596.677,2743.0
596.843,2737.0
597.008,2736.15
597.174,2747.55
597.34,2739.05
597.505,2766.9
597.671,2745.8
597.837,2748.0
598.002,2737.65
598.168,2736.25
598.334,2760.15
598.499,2730.9
598.665,2743.1
598.831,2719.6
598.996,2755.85
599.162,2753.35
599.328,2764.45
599.493,2740.1
599.659,2729.05
599.824,2775.45
599.99,2740.6
600.156,2733.9
600.321,2750.15
600.487,2731.1
600.652,2746.7
600.818,2731.0
600.983,2739.05
601.149,2734.4
601.314,2738.55
601.48,2742.95
601.645,2736.45
601.811,2733.95
601.976,2758.55
602.142,2721.15
602.307,2736.65
602.473,2732.6
602.638,2767.4
602.804,2730.3
602.969,2737.65
603.135,2735.65
603.3,2737.65
603.466,2745.0
603.631,2734.85
603.796,2738.95
603.962,2742.85
604.127,2723.8
604.293,2736.65
604.458,2722.0
604.623,2732.25
604.789,2722.6
604.954,2721.45
605.119,2719.9
605.285,2723.15
605.45,2727.75
605.615,2723.35
605.781,2706.4
605.946,2728.75
606.111,2717.8
606.277,2721.6
606.442,2738.65
606.607,2739.9
606.772,2707.95
606.938,2716.5
607.103,2740.15
607.268,2712.75
607.433,2718.9
607.599,2722.05
607.764,2725.35
607.929,2695.55
608.094,2700.55
608.259,2728.15
608.425,2721.9
608.59,2704.8
608.755,2715.75
608.92,2712.3
609.085,2692.4
609.25,2717.0
609.415,2715.4
609.581,2708.7
609.746,2736.25
609.911,2701.05
610.076,2696.1
610.241,2703.15
610.406,2727.65
610.571,2712.2
610.736,2708.75
610.901,2720.7
611.066,2717.55
611.231,2725.8
611.396,2713.4
611.561,2720.15
611.727,2700.05
611.892,2684.0
612.057,2690.65
612.222,2720.9
612.386,2685.25
612.551,2701.0
612.716,2699.05
612.881,2688.9
613.046,2691.15
613.211,2703.15
613.376,2702.6
613.541,2675.75
613.706,2682.8
613.871,2690.95
614.036,2702.4
614.201,2711.85
614.366,2664.2
614.531,2687.4
614.695,2694.7
614.86,2687.7
615.025,2696.0
615.19,2674.3
615.355,2715.2
615.52,2675.75
615.684,2681.85
615.849,2694.85
616.014,2698.05
616.179,2678.75
616.344,2654.0
616.508,2675.9
616.673,2680.3
616.838,2671.85
617.003,2678.4
617.168,2669.9
617.332,2666.5
617.497,2673.05
617.662,2683.05
617.826,2689.1
617.991,2672.25
618.156,2672.3
618.32,2652.25
618.485,2664.6
618.65,2668.1
618.814,2658.95
618.979,2689.85
619.144,2683.2
619.308,2659.6
619.473,2641.4
619.638,2685.8
619.802,2672.95
619.967,2655.45
620.131,2651.35
620.296,2655.05
620.461,2636.9
620.625,2673.3
620.79,2656.9
620.954,2650.2
621.119,2663.3
621.283,2658.2
621.448,2644.55
621.612,2646.05
621.777,2661.65
621.941,2656.85
622.106,2640.75
622.27,2664.45
622.435,2665.35
622.599,2673.05
622.764,2671.45
622.928,2667.65
623.093,2674.65
623.257,2685.8
623.422,2647.05
623.586,2675.6
623.75,2669.1
623.915,2675.55
624.079,2634.1
624.244,2645.2
624.408,2652.1
624.572,2640.35
624.737,2627.4
624.901,2611.25
625.065,2622.95
625.23,2654.2
625.394,2628.75
625.558,2627.55
625.723,2620.15
625.887,2627.55
626.051,2610.9
626.215,2637.9
626.38,2616.1
626.544,2614.6
626.708,2632.7
626.872,2618.35
627.037,2607.85
627.201,2599.25
627.365,2628.0
627.529,2628.55
627.693,2634.45
627.858,2644.3
628.022,2678.8
628.186,2756.95
628.35,2786.6
628.514,2790.95
628.678,2768.6
628.843,2768.65
629.007,2756.0
629.171,2737.85
629.335,2773.6
629.499,2752.9
629.663,2740.45
629.827,2751.65
629.991,2746.25
630.155,2806.55
630.319,2806.2
630.483,2919.0
630.647,3091.1
630.812,3365.5
630.976,3727.5
631.14,3753.2
631.304,3573.95
631.468,3272.95
631.632,3071.65
631.796,2991.85
631.959,2898.6
632.123,2852.6
632.287,2834.1
632.451,2827.1
632.615,2843.45
632.779,2899.75
632.943,2938.3
633.107,2997.1
633.271,3008.75
633.435,2991.55
633.599,2969.7
633.763,2877.45
633.926,2817.55
634.09,2768.7
634.254,2698.5
634.418,2665.3
634.582,2640.35
634.746,2613.7
634.909,2582.15
635.073,2571.85
635.237,2583.5
635.401,2562.3
635.564,2538.2
635.728,2562.75
635.892,2542.15
636.056,2551.25
636.219,2535.55
636.383,2534.55
636.547,2540.15
636.711,2535.65
636.874,2552.6
637.038,2527.9
637.202,2521.4
637.365,2522.65
637.529,2506.85
637.693,2518.3
637.856,2524.85
638.02,2529.95
638.184,2523.65
638.347,2507.35
638.511,2517.15
638.674,2527.45
638.838,2523.15
639.002,2511.55
639.165,2499.55
639.329,2511.7
639.492,2484.9
639.656,2488.35
639.819,2496.7
639.983,2516.75
640.146,2500.65
640.31,2478.2
640.473,2505.1
640.637,2474.35
640.8,2472.35
640.964,2496.35
641.127,2499.3
641.291,2471.9
641.454,2517.55
641.618,2475.85
641.781,2473.7
641.944,2481.1
642.108,2481.05
642.271,2475.6
642.435,2473.75
642.598,2477.6
642.761,2470.0
642.925,2477.05
643.088,2470.35
643.251,2461.9
643.415,2470.05
643.578,2484.3
643.741,2474.15
643.905,2455.4
644.068,2453.1
644.231,2452.3
644.394,2469.45
644.558,2455.4
644.721,2452.5
644.884,2445.45
645.047,2459.2
645.211,2453.25
645.374,2453.75
645.537,2454.95
645.7,2440.1
645.863,2427.5
646.027,2445.65
646.19,2460.7
646.353,2452.4
646.516,2427.65
646.679,2435.25
646.842,2426.75
647.005,2439.45
647.169,2438.55
647.332,2454.05
647.495,2441.55
647.658,2426.7
647.821,2423.05
647.984,2428.75
648.147,2436.5
648.31,2424.3
648.473,2400.8
648.636,2431.6
648.799,2425.25
648.962,2419.15
649.125,2397.75
649.288,2416.55
649.451,2411.65
649.614,2432.75
649.777,2419.85
649.94,2401.8
650.103,2418.25
650.266,2409.35
650.429,2416.25
650.592,2395.45
650.755,2398.15
650.918,2405.75
651.08,2394.3
651.243,2405.1
651.406,2405.75
651.569,2387.7
651.732,2378.0
651.895,2383.5
652.058,2384.75
652.22,2370.2
652.383,2375.1
652.546,2369.2
652.709,2389.15
652.872,2373.5
653.034,2347.3
653.197,2371.35
653.36,2355.95
653.523,2353.0
653.685,2340.9
653.848,2367.65
654.011,2363.05
654.173,2332.55
654.336,2319.4
654.499,2330.95
654.662,2335.5
654.824,2313.85
654.987,2327.4
655.149,2331.05
655.312,2311.8
655.475,2321.35
655.637,2324.55
655.8,2333.05
655.963,2323.85
656.125,2310.75
656.288,2317.2
656.45,2294.65
656.613,2330.25
656.775,2304.45
656.938,2285.7
657.1,2288.5
657.263,2279.6
657.425,2293.35
657.588,2286.0
657.75,2283.95
657.913,2290.7
658.075,2283.55
658.238,2273.4
658.4,2263.8
658.563,2260.75
658.725,2268.2
658.888,2256.4
659.05,2251.35
659.212,2254.8
659.375,2237.65
659.537,2244.35
659.7,2249.8
659.862,2258.2
660.024,2252.05
660.187,2226.55
660.349,2229.55
660.511,2233.1
660.674,2227.1
660.836,2231.0
660.998,2223.25
661.079,2227.1