File: spectra/VLFR_08-PLA_nobio_Raman_c3fd4e2f.csv
cm-1,Intensity
-123.878,1854.5
-117.855,1854.7
-111.836,1852.8
-105.821,1854.3
-99.8104,1852.6
-93.8036,1853.45
-87.8007,1853.3
-81.8019,1853.65
-75.807,1853.05
-69.8161,1854.05
-63.8293,1854.05
-57.8464,1853.1
-51.8675,1852.7
-45.8926,1854.3
-39.9216,1853.05
-33.9547,1856.2
-27.9917,1856.4
-22.0326,1861.05
-16.0776,1891.3
-10.1265,2425.15
-4.17932,4058.1
1.76388,3836.5
7.70313,2015.85
13.6384,1856.45
19.5698,1855.45
25.4972,1855.55
31.4207,1855.65
37.3403,1855.35
43.256,1858.75
49.1677,1890.5
55.0755,2070.1
60.9794,2382.55
66.8794,2547.15
72.7754,2528.9
78.6676,2460.05
84.5559,2421.45
90.4402,2407.05
96.3207,2404.6
102.197,2383.3
108.07,2377.35
113.939,2385.25
119.804,2348.15
125.665,2313.3
131.522,2271.1
137.375,2269.4
143.225,2282.4
149.07,2290.4
154.912,2320.0
160.75,2300.65
166.584,2259.75
172.414,2252.4
178.241,2252.25
184.063,2265.9
189.882,2263.85
195.697,2277.1
201.508,2274.3
207.315,2270.2
213.119,2256.45
218.918,2237.75
224.714,2231.4
230.506,2230.65
236.294,2241.1
242.078,2275.35
247.859,2263.2
253.636,2226.0
259.409,2188.3
265.178,2180.05
270.943,2170.7
276.705,2190.95
282.463,2216.7
288.217,2240.7
293.967,2280.15
299.713,2282.7
305.456,2289.55
311.195,2278.7
316.93,2265.3
322.662,2245.3
328.389,2229.4
334.113,2214.1
339.834,2210.55
345.55,2209.45
351.263,2209.1
356.972,2219.6
362.677,2209.3
368.379,2222.6
374.077,2243.7
379.771,2274.35
385.461,2313.85
391.148,2390.6
396.831,2415.15
402.51,2411.35
408.186,2404.6
413.858,2366.65
419.526,2287.85
425.19,2246.5
430.851,2225.0
436.508,2213.75
442.162,2212.3
447.811,2203.4
453.458,2202.2
459.1,2201.8
464.739,2202.1
470.374,2196.55
476.005,2205.0
481.633,2201.9
487.257,2202.4
492.878,2199.95
498.494,2219.45
504.107,2226.5
509.717,2222.75
515.323,2230.1
520.925,2235.2
526.524,2223.8
532.119,2223.3
537.71,2228.15
543.298,2223.45
548.882,2238.3
554.462,2228.4
560.039,2223.5
565.613,2242.95
571.182,2239.6
576.748,2249.7
582.311,2247.75
587.87,2249.25
593.425,2258.7
598.977,2249.15
604.525,2250.95
610.069,2256.95
615.61,2252.1
621.148,2264.3
626.682,2279.2
632.212,2263.7
637.739,2292.95
643.262,2286.65
648.781,2295.65
654.297,2298.1
659.81,2307.35
665.319,2306.25
670.824,2310.4
676.326,2326.3
681.824,2329.05
687.319,2304.35
692.81,2324.15
698.298,2319.05
703.782,2331.15
709.262,2345.15
714.739,2317.3
720.213,2307.35
725.683,2309.1
731.15,2323.25
736.613,2356.3
742.072,2360.6
747.528,2340.95
752.981,2308.55
758.43,2308.7
763.875,2299.1
769.317,2298.7
774.756,2291.95
780.191,2275.3
785.623,2276.25
791.051,2270.95
796.475,2270.25
801.897,2270.95
807.314,2271.35
812.729,2265.2
818.139,2273.9
823.547,2273.7
828.951,2280.4
834.351,2289.3
839.748,2304.65
845.142,2305.75
850.532,2334.75
855.918,2429.1
861.302,2578.15
866.681,2844.85
872.058,3072.65
877.431,2960.75
882.8,2632.0
888.166,2445.75
893.529,2382.05
898.888,2381.25
904.244,2351.4
909.596,2338.8
914.945,2351.3
920.291,2356.45
925.633,2357.6
930.972,2344.9
936.308,2324.5
941.64,2310.55
946.968,2309.55
952.294,2319.05
957.615,2320.1
962.934,2324.5
968.249,2302.2
973.561,2297.25
978.869,2311.85
984.174,2309.8
989.476,2307.75
994.774,2315.6
1000.07,2313.65
1005.36,2313.65
1010.65,2303.1
1015.93,2344.1
1021.22,2358.9
1026.49,2370.45
1031.77,2412.9
1037.04,2490.6
1042.31,2566.6
1047.57,2519.7
1052.83,2472.1
1058.09,2420.15
1063.35,2385.0
1068.6,2366.05
1073.85,2377.35
1079.09,2411.35
1084.33,2452.8
1089.57,2501.15
1094.81,2503.65
1100.04,2482.8
1105.27,2465.95
1110.49,2464.85
1115.71,2503.15
1120.93,2569.5
1126.15,2615.3
1131.36,2614.6
1136.57,2539.9
1141.77,2473.05
1146.98,2413.05
1152.18,2386.95
1157.37,2365.85
1162.56,2355.4
1167.75,2379.05
1172.94,2400.7
1178.12,2424.95
1183.3,2427.05
1188.48,2412.1
1193.65,2412.2
1198.82,2377.0
1203.99,2416.4
1209.15,2418.0
1214.31,2419.45
1219.46,2423.2
1224.62,2404.25
1229.77,2419.7
1234.92,2382.55
1240.06,2395.75
1245.2,2401.85
1250.34,2404.25
1255.47,2390.9
1260.6,2397.1
1265.73,2412.2
1270.85,2410.45
1275.97,2405.65
1281.09,2448.75
1286.21,2499.75
1291.32,2578.85
1296.43,2600.25
1301.53,2587.7
1306.63,2525.1
1311.73,2511.2
1316.83,2510.05
1321.92,2494.6
1327.01,2471.2
1332.1,2483.05
1337.18,2477.2
1342.26,2481.2
1347.34,2484.55
1352.41,2511.05
1357.48,2503.55
1362.55,2500.85
1367.61,2501.05
1372.67,2490.75
1377.73,2490.75
1382.78,2534.0
1387.84,2547.05
1392.88,2508.25
1397.93,2452.65
1402.97,2437.35
1408.01,2418.05
1413.05,2410.35
1418.08,2426.25
1423.11,2436.45
1428.14,2446.5
1433.16,2469.9
1438.18,2537.7
1443.2,2636.45
1448.21,2751.75
1453.22,2823.65
1458.23,2759.15
1463.23,2684.8
1468.23,2582.75
1473.23,2483.85
1478.23,2433.85
1483.22,2435.7
1488.21,2431.6
1493.2,2408.35
1498.18,2400.55
1503.16,2433.2
1508.14,2407.2
1513.11,2402.9
1518.08,2408.25
1523.05,2407.0
1528.01,2382.95
1532.97,2415.2
1537.93,2409.05
1542.89,2404.4
1547.84,2405.3
1552.79,2398.9
1557.73,2402.6
1562.68,2405.4
1567.62,2407.9
1572.56,2413.3
1577.49,2392.75
1582.42,2398.3
1587.35,2401.95
1592.27,2409.45
1597.19,2398.6
1602.11,2406.8
1607.03,2408.6
1611.94,2407.05
1616.85,2397.05
1621.76,2409.2
1626.66,2393.8
1631.56,2406.15
1636.46,2388.95
1641.36,2400.5
1646.25,2420.1
1651.14,2404.7
1656.02,2416.1
1660.9,2411.95
1665.78,2397.4
1670.66,2407.6
1675.54,2409.45
1680.41,2411.7
1685.27,2393.25
1690.14,2390.85
1695.0,2406.3
1699.86,2397.35
1704.71,2389.8
1709.57,2397.3
1714.42,2397.25
1719.26,2397.4
1724.11,2391.25
1728.95,2410.6
1733.79,2424.95
1738.62,2438.9
1743.46,2498.0
1748.28,2573.55
1753.11,2595.65
1757.93,2660.95
1762.75,2732.3
1767.57,2772.95
1772.39,2752.25
1777.2,2709.45
1782.01,2585.9
1786.81,2512.45
1791.62,2443.25
1796.41,2430.1
1801.21,2411.4
1806.01,2410.7
1810.8,2405.15
1815.59,2393.65
1820.37,2402.65
1825.15,2396.7
1829.93,2385.0
1834.71,2374.9
1839.48,2383.45
1844.25,2369.85
1849.02,2385.2
1853.79,2407.45
1858.55,2385.3
1863.31,2386.9
1868.06,2382.55
1872.82,2364.75
1877.57,2401.15
1882.31,2388.2
1887.06,2381.6
1891.8,2391.5
1896.54,2393.65
1901.28,2377.3
1906.01,2393.0
1910.74,2382.65
1915.47,2384.4
1920.19,2385.55
1924.91,2375.45
1929.63,2390.85
1934.35,2398.6
1939.06,2383.2
1943.77,2373.5
1948.48,2382.3
1953.19,2374.7
1957.89,2375.6
1962.59,2374.1
1967.28,2386.15
1971.98,2394.3
1976.67,2369.75
1981.35,2391.75
1986.04,2383.3
1990.72,2393.3
1995.4,2388.35
2000.08,2381.15
2004.75,2379.1
2009.42,2399.85
2014.09,2397.7
2018.75,2389.9
2023.42,2381.55
2028.08,2394.1
2032.73,2390.3
2037.39,2381.85
2042.04,2382.45
2046.69,2384.3
2051.33,2374.45
2055.97,2387.65
2060.61,2375.05
2065.25,2401.6
2069.88,2403.85
2074.52,2383.35
2079.15,2387.5
2083.77,2390.75
2088.39,2390.8
2093.01,2375.05
2097.63,2386.05
2102.25,2393.9
2106.86,2377.1
2111.47,2382.15
2116.08,2381.7
2120.68,2395.35
2125.28,2398.4
2129.88,2382.35
2134.47,2394.1
2139.07,2373.95
2143.66,2395.85
2148.24,2387.7
2152.83,2401.65
2157.41,2392.1
2161.99,2378.7
2166.57,2378.45
2171.14,2394.9
2175.71,2383.05
2180.28,2395.7
2184.84,2393.7
2189.41,2389.35
2193.97,2386.7
2198.52,2382.65
2203.08,2412.5
2207.63,2385.75
2212.18,2385.45
2216.73,2390.75
2221.27,2387.9
2225.81,2383.8
2230.35,2382.85
2234.89,2376.15
2239.42,2380.7
2243.95,2382.3
2248.48,2381.1
2253.0,2395.65
2257.52,2379.85
2262.04,2387.05
2266.56,2378.5
2271.07,2373.75
2275.58,2381.6
2280.09,2383.95
2284.6,2369.85
2289.1,2369.55
2293.6,2395.15
2298.1,2377.7
2302.6,2380.75
2307.09,2383.3
2311.58,2377.0
2316.07,2381.95
2320.55,2386.15
2325.03,2382.05
2329.51,2368.25
2333.99,2382.65
2338.46,2384.2
2342.93,2383.2
2347.4,2369.55
2351.87,2390.1
2356.33,2373.45
2360.79,2379.7
2365.25,2371.15
2369.71,2378.6
2374.16,2375.4
2378.61,2367.75
2383.06,2386.9
2387.5,2378.15
2391.94,2382.55
2396.38,2387.25
2400.82,2379.2
2405.26,2387.05
2409.69,2370.75
2414.12,2379.35
2418.54,2385.95
2422.97,2379.1
2427.39,2371.7
2431.81,2381.95
2436.22,2399.7
2440.64,2356.8
2445.05,2366.8
2449.46,2371.5
2453.86,2380.65
2458.27,2375.1
2462.67,2369.25
2467.06,2349.0
2471.46,2370.45
2475.85,2368.65
2480.24,2367.15
2484.63,2366.85
2489.02,2362.4
2493.4,2374.65
2497.78,2370.45
2502.16,2382.2
2506.53,2374.1
2510.9,2378.2
2515.27,2386.8
2519.64,2362.5
2524.0,2366.6
2528.37,2370.9
2532.73,2383.75
2537.08,2365.5
2541.44,2361.75
2545.79,2368.6
2550.14,2378.1
2554.48,2378.2
2558.83,2356.85
2563.17,2378.9
2567.51,2352.0
2571.85,2381.65
2576.18,2367.7
2580.51,2361.2
2584.84,2364.6
2589.17,2384.45
2593.49,2368.25
2597.81,2358.45
2602.13,2354.9
2606.45,2379.55
2610.76,2358.35
2615.07,2367.35
2619.38,2369.6
2623.69,2353.95
2627.99,2357.85
2632.29,2368.95
2636.59,2358.95
2640.89,2339.35
2645.18,2367.4
2649.47,2367.65
2653.76,2348.1
2658.05,2379.35
2662.33,2354.0
2666.61,2366.25
2670.89,2367.2
2675.17,2353.1
2679.44,2340.7
2683.71,2344.9
2687.98,2355.9
2692.25,2359.1
2696.51,2362.35
2700.77,2350.6
2705.03,2357.35
2709.29,2357.1
2713.54,2362.3
2717.79,2362.75
2722.04,2379.7
2726.29,2391.3
2730.53,2406.8
2734.77,2412.35
2739.01,2433.9
2743.25,2419.55
2747.48,2411.5
2751.71,2427.15
2755.94,2388.45
2760.17,2394.3
2764.39,2385.95
2768.61,2376.45
2772.83,2380.0
2777.05,2381.25
2781.27,2352.45
2785.48,2357.15
2789.69,2345.05
2793.89,2340.85
2798.1,2352.3
2802.3,2347.0
2806.5,2336.6
2810.7,2337.0
2814.89,2339.45
2819.09,2349.0
2823.28,2345.35
2827.46,2348.4
2831.65,2328.9
2835.83,2348.75
2840.01,2340.6
2844.19,2342.15
2848.37,2337.3
2852.54,2356.9
2856.71,2365.55
2860.88,2377.8
2865.05,2428.15
2869.21,2490.85
2873.37,2632.55
2877.53,2749.75
2881.69,2778.85
2885.84,2764.65
2889.99,2696.15
2894.14,2669.6
2898.29,2674.55
2902.43,2696.6
2906.58,2710.7
2910.72,2683.3
2914.85,2671.35
2918.99,2715.65
2923.12,2744.85
2927.25,2878.55
2931.38,3079.7
2935.5,3556.45
2939.63,4239.35
2943.75,5002.95
2947.87,5143.65
2951.98,4740.1
2956.1,4163.25
2960.21,3625.05
2964.32,3330.0
2968.42,3162.8
2972.53,3009.15
2976.63,2940.6
2980.73,2888.35
2984.83,2920.4
2988.92,3018.45
2993.01,3188.5
2997.1,3392.65
3001.19,3518.1
3005.28,3397.55
3009.36,3253.45
3013.44,3120.15
3017.52,2967.75
3021.6,2784.4
3025.67,2646.25
3029.74,2538.7
3033.81,2449.3
3037.88,2398.65
3041.94,2399.05
3046.01,2354.4
3050.07,2330.45
3054.12,2330.0
3058.18,2303.65
3062.23,2317.55
3066.28,2294.05
3070.33,2283.9
3074.38,2296.5
3078.42,2282.25
3082.46,2290.2
3086.5,2286.8
3090.54,2288.4
3094.57,2258.35
3098.6,2270.2
3102.63,2279.1
3106.66,2260.45
3110.69,2258.55
3114.71,2263.25
3118.73,2267.3
3122.75,2255.0
3126.77,2265.95
3130.78,2269.2
3134.79,2262.95
3138.8,2241.05
3142.81,2258.75
3146.81,2248.95
3150.82,2242.55
3154.82,2250.9
3158.81,2237.95
3162.81,2253.45
3166.8,2240.15
3170.79,2242.25
3174.78,2234.85
3178.77,2240.0
3182.75,2238.95
3186.74,2225.15
3190.72,2232.25
3194.69,2245.15
3198.67,2233.7
3202.64,2237.2
3206.61,2234.4
3210.58,2240.1
3214.55,2248.45
3218.51,2237.6
3222.47,2237.65
3226.43,2242.35
3230.39,2233.85
3234.35,2230.6
3238.3,2222.5
3242.25,2218.3
3246.2,2219.8
3250.15,2223.75
3254.09,2216.4
3258.03,2216.45
3261.97,2211.9
3265.91,2211.3
3269.84,2211.35
3273.78,2198.9
3277.71,2205.25
3281.64,2198.0
3285.56,2205.1
3289.49,2194.15
3293.41,2199.45
3297.33,2205.85
3301.25,2195.75
3305.16,2196.0
3309.07,2187.25
3312.99,2187.0
3316.89,2180.3
3320.8,2187.55
3324.7,2182.25
3328.61,2170.75
3332.51,2189.3
3336.4,2177.1
3340.3,2175.25
3344.19,2180.55
3348.08,2173.7
3351.97,2182.35
3355.86,2190.35
3359.74,2176.45
3363.63,2173.4
3367.51,2180.7
3371.39,2168.9
3375.26,2152.85
3379.13,2158.4
3383.01,2177.75
3386.88,2166.0
3390.74,2159.25
3394.61,2149.1
3398.47,2156.4
3402.33,2156.55
3406.19,2152.15
3410.05,2153.0
3413.9,2150.45
3417.75,2163.1
3421.6,2152.25
3425.45,2146.3
3429.3,2153.8
3433.14,2147.55
3436.98,2146.05
3440.82,2144.1
3444.66,2146.2
3448.49,2143.8
3452.32,2144.0
3456.15,2139.2
3459.98,2147.2
3463.81,2137.0
3467.63,2134.05
3471.46,2148.2
3475.28,2126.65
3479.09,2125.45
3482.91,2134.4
3486.72,2130.7
3490.53,2129.45
3494.34,2129.35
3498.15,2131.3
3501.96,2135.8
3505.76,2127.15
3509.56,2118.3
3513.36,2134.75
3517.15,2129.7
3520.95,2103.05
3524.74,2117.8
3528.53,2118.1
3532.32,2118.95
3536.11,2125.85
3539.89,2116.75
3543.67,2119.7
3547.45,2115.2
3551.23,2108.05
3555.0,2109.45
3558.78,2112.05
3562.55,2113.95
3566.32,2105.7
3570.09,2111.05
3573.85,2105.85
3577.61,2113.05
3581.37,2106.75
3585.13,2100.65
3588.89,2109.6
3592.64,2112.6
3596.4,2090.45
3600.15,2099.2
3603.9,2106.15
3607.64,2095.25
3611.39,2103.7
3615.13,2096.9
3618.87,2078.25
3622.61,2076.1
3626.34,2095.6
3630.08,2091.45
3633.81,2076.25
3637.54,2087.6
3641.27,2081.4
3644.99,2080.95
3648.72,2074.25
3652.44,2098.3
3656.16,2067.15
3659.87,2083.75
3663.59,2092.95
3665.45,2079.6