File: spectra/VLFR_06-PET_bio_Raman_711b8232.csv
nm,Intensity
528.626,1867.0
528.795,1865.6
528.963,1867.8
529.132,1867.6
529.3,1866.3
529.469,1865.7
529.637,1868.1
529.806,1867.0
529.974,1869.0
530.143,1866.6
530.311,1868.9
530.48,1866.7
530.648,1867.4
530.816,1868.4
530.985,1870.5
531.153,1867.6
531.322,1870.4
531.49,1875.1
531.658,1907.2
531.827,2503.9
531.995,4844.6
532.164,4477.2
532.332,2237.2
532.5,1874.2
532.669,1871.2
532.837,1869.7
533.006,1871.0
533.174,1875.6
533.342,1884.4
533.511,1968.5
533.679,2554.0
533.847,3925.6
534.016,4651.8
534.184,4815.5
534.352,4505.2
534.521,4232.2
534.689,3990.1
534.857,3853.1
535.025,3643.9
535.194,3386.4
535.362,3173.3
535.53,3031.3
535.699,2850.2
535.867,2717.3
536.035,2631.5
536.203,2535.2
536.372,2508.3
536.54,2448.9
536.708,2441.4
536.876,2424.4
537.044,2413.4
537.213,2410.1
537.381,2401.8
537.549,2369.7
537.717,2369.4
537.885,2363.8
538.054,2371.0
538.222,2378.1
538.39,2394.7
538.558,2407.1
538.726,2384.6
538.894,2386.9
539.063,2405.1
539.231,2410.8
539.399,2430.0
539.567,2462.7
539.735,2449.3
539.903,2476.8
540.071,2454.2
540.239,2410.9
540.408,2371.3
540.576,2336.7
540.744,2320.0
540.912,2320.7
541.08,2318.0
541.248,2318.3
541.416,2314.3
541.584,2300.9
541.752,2297.8
541.92,2321.3
542.088,2303.4
542.256,2313.8
542.424,2321.5
542.592,2328.2
542.76,2329.7
542.928,2328.8
543.096,2322.7
543.264,2312.3
543.432,2345.8
543.6,2375.3
543.768,2367.8
543.936,2368.6
544.104,2342.4
544.272,2342.9
544.44,2330.4
544.608,2329.2
544.776,2348.0
544.944,2338.0
545.112,2363.8
545.28,2368.4
545.448,2373.1
545.616,2358.1
545.784,2357.7
545.951,2342.7
546.119,2348.2
546.287,2348.8
546.455,2358.2
546.623,2361.5
546.791,2388.0
546.959,2373.3
547.127,2371.4
547.294,2407.7
547.462,2403.9
547.63,2395.3
547.798,2392.4
547.966,2400.9
548.134,2401.7
548.301,2392.5
548.469,2410.7
548.637,2393.8
548.805,2428.6
548.972,2403.1
549.14,2407.1
549.308,2437.6
549.476,2398.4
549.644,2415.2
549.811,2418.1
549.979,2414.1
550.147,2432.3
550.315,2474.6
550.482,2666.1
550.65,2876.7
550.818,2733.5
550.985,2501.7
551.153,2446.9
551.321,2472.7
551.488,2469.2
551.656,2493.6
551.824,2482.6
551.991,2490.2
552.159,2484.3
552.327,2482.3
552.494,2512.3
552.662,2619.5
552.83,2661.5
552.997,2613.2
553.165,2558.1
553.333,2527.4
553.5,2514.6
553.668,2536.4
553.835,2541.6
554.003,2514.6
554.171,2529.0
554.338,2528.7
554.506,2539.8
554.673,2549.8
554.841,2552.2
555.008,2566.3
555.176,2606.6
555.343,2614.4
555.511,2754.5
555.679,2809.1
555.846,2810.3
556.014,2860.9
556.181,2883.3
556.349,2836.3
556.516,2826.2
556.684,2838.8
556.851,2891.1
557.018,2929.9
557.186,3055.6
557.353,3193.4
557.521,3343.1
557.688,3277.9
557.856,3034.1
558.023,2909.3
558.191,2870.5
558.358,2905.1
558.525,2879.2
558.693,2857.6
558.86,2810.5
559.028,2777.8
559.195,2720.2
559.362,2720.3
559.53,2684.0
559.697,2682.3
559.864,2688.9
560.032,2677.3
560.199,2676.4
560.366,2670.6
560.534,2662.2
560.701,2678.8
560.868,2715.8
561.036,2742.0
561.203,2785.0
561.37,2770.2
561.538,2736.8
561.705,2715.9
561.872,2758.8
562.039,2812.5
562.207,2815.3
562.374,2790.5
562.541,2818.3
562.708,2836.1
562.876,2862.7
563.043,2865.8
563.21,2873.9
563.377,2865.1
563.545,2818.7
563.712,2808.5
563.879,2806.4
564.046,2765.0
564.213,2806.3
564.38,2804.7
564.548,2843.5
564.715,2905.8
564.882,2978.3
565.049,3003.6
565.216,3093.5
565.383,3149.6
565.551,3247.2
565.718,3267.6
565.885,3291.6
566.052,3234.4
566.219,3120.3
566.386,2989.9
566.553,2934.1
566.72,2914.7
566.887,2946.2
567.054,2956.1
567.221,2962.4
567.388,3053.6
567.555,3166.6
567.722,3115.5
567.889,3067.5
568.057,3005.4
568.224,2939.1
568.391,2932.5
568.558,2916.6
568.725,2913.8
568.892,2937.0
569.058,2958.5
569.225,2974.8
569.392,2971.9
569.559,2978.1
569.726,3034.5
569.893,3053.8
570.06,3103.7
570.227,3189.0
570.394,3252.7
570.561,3353.9
570.728,3556.9
570.895,3672.7
571.062,3886.8
571.229,4019.6
571.395,4021.4
571.562,3960.3
571.729,3706.9
571.896,3580.4
572.063,3432.1
572.23,3304.5
572.397,3267.6
572.563,3246.4
572.73,3167.5
572.897,3143.6
573.064,3104.5
573.231,3117.7
573.397,3095.6
573.564,3116.5
573.731,3143.3
573.898,3159.9
574.064,3198.2
574.231,3169.6
574.398,3094.8
574.565,3115.0
574.731,3122.0
574.898,3148.4
575.065,3200.6
575.232,3247.1
575.398,3293.0
575.565,3194.3
575.732,3178.4
575.898,3184.8
576.065,3261.3
576.232,3321.1
576.398,3354.5
576.565,3347.9
576.732,3396.2
576.898,3423.3
577.065,3385.5
577.232,3314.2
577.398,3225.4
577.565,3183.7
577.731,3189.6
577.898,3169.3
578.065,3155.5
578.231,3165.8
578.398,3174.5
578.564,3187.4
578.731,3154.9
578.897,3168.6
579.064,3173.5
579.23,3168.6
579.397,3187.1
579.563,3199.3
579.73,3169.9
579.896,3224.8
580.063,3202.9
580.229,3235.4
580.396,3222.0
580.562,3287.3
580.729,3288.9
580.895,3305.8
581.062,3313.1
581.228,3369.1
581.395,3414.8
581.561,3568.4
581.728,4080.0
581.894,5083.3
582.06,6520.4
582.227,6784.6
582.393,5235.2
582.56,3854.6
582.726,3432.5
582.892,3331.2
583.059,3318.5
583.225,3305.4
583.391,3307.9
583.558,3287.8
583.724,3307.2
583.89,3319.6
584.057,3318.6
584.223,3299.6
584.389,3331.4
584.556,3390.1
584.722,3331.6
584.888,3409.0
585.054,3443.2
585.221,3526.7
585.387,3826.4
585.553,4354.2
585.719,4916.2
585.886,5225.6
586.052,5401.1
586.218,5021.5
586.384,4587.5
586.55,4125.3
586.717,3766.3
586.883,3565.3
587.049,3482.2
587.215,3420.0
587.381,3380.2
587.548,3361.6
587.714,3333.4
587.88,3369.9
588.046,3332.2
588.212,3359.7
588.378,3363.4
588.544,3310.4
588.71,3342.7
588.876,3324.0
589.043,3310.5
589.209,3308.5
589.375,3313.1
589.541,3339.4
589.707,3313.9
589.873,3295.9
590.039,3316.2
590.205,3289.2
590.371,3328.6
590.537,3332.0
590.703,3303.7
590.869,3322.9
591.035,3299.8
591.201,3335.8
591.367,3325.9
591.533,3328.4
591.699,3349.2
591.865,3344.1
592.031,3333.4
592.197,3338.8
592.363,3347.0
592.529,3327.4
592.694,3333.7
592.86,3331.3
593.026,3329.4
593.192,3308.2
593.358,3332.9
593.524,3354.9
593.69,3334.2
593.856,3315.2
594.021,3289.0
594.187,3368.6
594.353,3335.9
594.519,3328.7
594.685,3332.0
594.851,3329.2
595.016,3355.5
595.182,3363.7
595.348,3372.2
595.514,3350.1
595.68,3350.2
595.845,3392.4
596.011,3368.3
596.177,3326.0
596.342,3365.2
596.508,3349.6
596.674,3349.9
596.84,3359.1
597.005,3389.4
597.171,3372.7
597.337,3355.9
597.502,3374.0
597.668,3374.9
597.834,3382.8
597.999,3334.8
598.165,3356.5
598.331,3371.5
598.496,3375.4
598.662,3338.0
598.828,3361.7
598.993,3375.3
599.159,3374.6
599.324,3405.9
599.49,3357.0
599.656,3383.2
599.821,3338.5
599.987,3395.5
600.152,3401.5
600.318,3401.8
600.483,3397.9
600.649,3370.2
600.814,3383.0
600.98,3363.8
601.145,3394.9
601.311,3367.0
601.476,3384.3
601.642,3374.5
601.807,3405.8
601.973,3373.1
602.138,3419.0
602.304,3398.7
602.469,3405.3
602.635,3378.2
602.8,3438.1
602.965,3379.8
603.131,3420.3
603.296,3382.9
603.462,3384.5
603.627,3388.7
603.792,3415.5
603.958,3420.9
604.123,3341.0
604.288,3382.8
604.454,3414.8
604.619,3406.6
604.784,3428.8
604.95,3388.8
605.115,3375.6
605.28,3402.7
605.446,3387.9
605.611,3392.9
605.776,3387.4
605.941,3377.8
606.107,3409.1
606.272,3442.9
606.437,3385.9
606.602,3419.3
606.767,3411.1
606.933,3441.1
607.098,3422.8
607.263,3382.5
607.428,3427.6
607.593,3468.8
607.759,3394.7
607.924,3421.1
608.089,3448.1
608.254,3421.8
608.419,3428.3
608.584,3381.0
608.749,3430.2
608.915,3402.5
609.08,3427.8
609.245,3427.3
609.41,3424.5
609.575,3412.9
609.74,3445.7
609.905,3450.6
610.07,3446.8
610.235,3416.1
610.4,3396.9
610.565,3401.6
610.73,3439.1
610.895,3455.1
611.06,3446.7
611.225,3442.5
611.39,3460.2
611.555,3442.2
611.72,3396.6
611.885,3463.0
612.05,3390.6
612.215,3439.7
612.38,3448.8
612.545,3465.7
612.71,3450.0
612.875,3424.1
613.04,3404.7
613.204,3399.7
613.369,3406.7
613.534,3451.1
613.699,3464.9
613.864,3448.7
614.029,3481.9
614.194,3465.7
614.358,3467.9
614.523,3494.9
614.688,3422.6
614.853,3485.0
615.018,3428.7
615.182,3480.2
615.347,3490.4
615.512,3474.0
615.677,3489.1
615.841,3470.1
616.006,3482.2
616.171,3445.6
616.336,3458.7
616.5,3460.1
616.665,3519.6
616.83,3497.8
616.994,3472.9
617.159,3492.2
617.324,3491.8
617.489,3472.2
617.653,3539.1
617.818,3525.7
617.982,3506.9
618.147,3541.3
618.312,3515.2
618.476,3586.3
618.641,3509.7
618.805,3481.1
618.97,3533.3
619.135,3545.7
619.299,3526.6
619.464,3529.0
619.628,3529.4
619.793,3513.7
619.957,3521.0
620.122,3534.9
620.286,3532.0
620.451,3517.6
620.615,3539.0
620.78,3520.6
620.944,3542.1
621.109,3538.5
621.273,3554.5
621.438,3548.1
621.602,3509.0
621.767,3550.5
621.931,3575.1
622.095,3564.1
622.26,3556.0
622.424,3586.3
622.589,3573.5
622.753,3644.3
622.917,3586.1
623.082,3579.7
623.246,3558.3
623.41,3622.1
623.575,3550.0
623.739,3536.4
623.903,3552.9
624.068,3623.5
624.232,3583.8
624.396,3627.5
624.561,3595.8
624.725,3665.7
624.889,3622.6
625.053,3623.8
625.218,3607.4
625.382,3603.5
625.546,3630.6
625.71,3673.4
625.875,3630.6
626.039,3630.7
626.203,3617.3
626.367,3615.1
626.531,3700.9
626.695,3802.3
626.86,3713.2
627.024,3814.4
627.188,3769.3
627.352,3735.4
627.516,3719.0
627.68,3800.7
627.844,3842.5
628.008,3996.9
628.172,4060.5
628.337,4081.9
628.501,4197.0
628.665,4145.5
628.829,4113.6
628.993,4068.2
629.157,4155.4
629.321,4143.2
629.485,4116.1
629.649,4056.1
629.813,3990.2
629.977,3988.7
630.141,3996.0
630.305,4011.2
630.469,3919.3
630.633,3955.6
630.797,3968.3
630.96,4046.0
631.124,4167.2
631.288,4315.3
631.452,4573.8
631.616,4599.3
631.78,4608.0
631.944,4507.2
632.108,4425.1
632.272,4282.4
632.435,4100.9
632.599,4112.2
632.763,4079.5
632.927,4065.9
633.091,4068.3
633.254,4029.4
633.418,3999.3
633.582,3988.0
633.746,3973.3
633.91,3921.1
634.073,3908.7
634.237,3819.3
634.401,3872.9
634.564,3857.1
634.728,3790.8
634.892,3759.4
635.056,3836.3
635.219,3922.2
635.383,3844.7
635.547,3914.9
635.71,3973.1
635.874,4048.2
636.038,4155.6
636.201,4315.9
636.365,4465.8
636.528,4512.2
636.692,4471.6
636.856,4298.4
637.019,4051.4
637.183,4036.8
637.346,4032.6
637.51,3897.2
637.673,3904.1
637.837,3849.5
638.0,3830.5
638.164,3805.2
638.327,3850.6
638.491,3853.3
638.654,3838.3
638.818,3791.1
638.981,3800.6
639.145,3838.4
639.308,3840.0
639.472,3801.5
639.635,3835.3
639.799,3811.2
639.962,3697.8
640.125,3782.2
640.289,3801.5
640.452,3822.1
640.616,3769.6
640.779,3816.8
640.942,3765.9
641.106,3780.2
641.269,3692.4
641.432,3809.3
641.596,3841.3
641.759,3814.5
641.922,3732.7
642.085,3746.0
642.249,3873.9
642.412,3819.2
642.575,3751.3
642.738,3827.1
642.902,3882.4
643.065,3706.1
643.228,3715.0
643.391,3775.9
643.555,3813.3
643.718,3828.4
643.881,3781.4
644.044,3797.0
644.207,3821.0
644.37,3736.6
644.534,3707.7
644.697,3750.2
644.86,3755.8
645.023,3797.1
645.186,3753.3
645.349,3806.2
645.512,3799.2
645.675,3749.7
645.838,3719.8
646.001,3761.4
646.164,3748.5
646.327,3796.7
646.49,3774.1
646.653,3784.9
646.816,3721.1
646.979,3749.7
647.142,3718.9
647.305,3776.2
647.468,3719.6
647.631,3703.0
647.794,3746.7
647.957,3788.5
648.12,3733.4
648.283,3704.8
648.446,3729.0
648.609,3686.7
648.772,3690.0
648.935,3729.0
649.098,3658.8
649.26,3672.2
649.423,3689.9
649.586,3622.9
649.749,3644.4
649.912,3729.7
650.075,3677.9
650.237,3628.6
650.4,3691.7
650.563,3687.5
650.726,3746.1
650.888,3709.3
651.051,3652.6
651.214,3660.6
651.377,3611.4
651.539,3692.6
651.702,3669.0
651.865,3633.4
652.027,3591.8
652.19,3631.5
652.353,3598.3
652.515,3646.5
652.678,3652.1
652.841,3585.8
653.003,3570.2
653.166,3585.2
653.329,3608.9
653.491,3602.2
653.654,3552.3
653.816,3552.7
653.979,3508.4
654.142,3547.7
654.304,3474.3
654.467,3517.5
654.629,3494.6
654.792,3486.3
654.954,3565.0
655.117,3599.5
655.279,3523.4
655.442,3499.3
655.604,3519.3
655.767,3520.6
655.929,3511.2
656.091,3477.3
656.254,3539.8
656.416,3537.1
656.579,3472.8
656.741,3466.5
656.904,3471.1
657.066,3471.0
657.228,3465.3
657.391,3411.2
657.553,3416.7
657.715,3429.4
657.878,3378.7
658.04,3368.5
658.202,3379.7
658.365,3369.7
658.527,3440.1
658.689,3388.2
658.851,3365.0
659.014,3327.0
659.176,3361.4
659.338,3334.4
659.5,3330.7
659.663,3346.0
659.825,3292.9
659.987,3375.0
660.149,3333.5
660.311,3282.8
660.474,3336.6
660.636,3357.0
660.798,3290.4
660.96,3328.1
661.041,3324.0