File: spectra/VLFR_06-PET_nobio_Raman_31789562.csv
nm,Intensity
526.508,830.933
526.645,830.767
526.782,830.233
526.919,830.533
527.055,829.867
527.192,830.267
527.329,830.1
527.465,830.8
527.602,830.7
527.739,830.133
527.875,830.467
528.012,830.333
528.149,830.967
528.285,830.3
528.422,829.7
528.558,830.633
528.695,830.3
528.832,830.7
528.968,830.067
529.105,830.3
529.241,830.1
529.378,830.2
529.514,830.667
529.651,830.267
529.787,830.467
529.924,831.067
530.061,829.433
530.197,830.233
530.334,831.033
530.47,830.033
530.606,829.6
530.743,829.9
530.879,830.2
531.016,830.567
531.152,830.167
531.289,830.367
531.425,830.033
531.562,829.7
531.698,830.367
531.834,830.733
531.971,834.267
532.107,866.367
532.244,881.1
532.38,842.6
532.516,831.133
532.653,830.6
532.789,830.1
532.925,829.367
533.062,829.933
533.198,829.933
533.334,830.8
533.471,829.867
533.607,830.6
533.743,835.267
533.879,860.567
534.016,903.367
534.152,921.1
534.288,922.9
534.424,915.6
534.561,909.567
534.697,905.3
534.833,900.567
534.969,895.6
535.106,888.867
535.242,886.067
535.378,881.9
535.514,878.667
535.65,876.533
535.786,872.367
535.923,872.033
536.059,868.133
536.195,866.233
536.331,865.6
536.467,864.633
536.603,864.5
536.739,863.3
536.876,863.5
537.012,862.033
537.148,861.833
537.284,862.067
537.42,860.367
537.556,861.3
537.692,859.567
537.828,860.767
537.964,860.833
538.1,860.2
538.236,862.1
538.372,861.167
538.508,862.0
538.644,861.233
538.78,861.567
538.916,861.5
539.052,863.467
539.188,864.5
539.324,870.3
539.46,868.7
539.596,865.833
539.732,862.767
539.868,863.733
540.004,862.5
540.14,862.467
540.275,863.233
540.411,862.267
540.547,861.967
540.683,863.267
540.819,863.567
540.955,862.667
541.091,863.967
541.227,863.033
541.362,864.333
541.498,863.333
541.634,864.333
541.77,864.5
541.906,864.133
542.041,866.4
542.177,867.967
542.313,869.033
542.449,870.267
542.585,870.5
542.72,870.433
542.856,872.0
542.992,873.167
543.128,875.6
543.263,872.633
543.399,868.967
543.535,865.7
543.67,865.467
543.806,865.7
543.942,867.633
544.078,868.633
544.213,867.533
544.349,868.967
544.485,868.533
544.62,870.333
544.756,872.4
544.892,872.133
545.027,869.233
545.163,870.933
545.298,869.967
545.434,872.267
545.57,869.667
545.705,866.9
545.841,866.933
545.976,868.333
546.112,867.467
546.248,868.167
546.383,870.333
546.519,871.7
546.654,870.967
546.79,869.533
546.925,870.567
547.061,870.4
547.196,870.133
547.332,869.833
547.467,870.8
547.603,869.2
547.738,868.367
547.874,867.867
548.009,867.933
548.145,866.633
548.28,865.767
548.416,865.933
548.551,865.833
548.686,866.2
548.822,865.4
548.957,868.1
549.093,866.667
549.228,867.6
549.363,867.6
549.499,867.1
549.634,865.7
549.77,865.9
549.905,867.433
550.04,867.167
550.176,866.0
550.311,866.067
550.446,867.367
550.582,870.8
550.717,874.7
550.852,872.133
550.988,868.5
551.123,866.6
551.258,865.333
551.394,867.6
551.529,866.667
551.664,866.2
551.799,866.267
551.935,867.033
552.07,865.967
552.205,867.033
552.34,866.7
552.476,865.5
552.611,867.7
552.746,867.567
552.881,869.3
553.016,868.3
553.152,867.6
553.287,866.467
553.422,866.933
553.557,866.433
553.692,867.4
553.827,867.067
553.963,867.567
554.098,866.733
554.233,866.633
554.368,868.133
554.503,866.033
554.638,866.7
554.773,868.1
554.908,866.9
555.043,866.0
555.179,867.233
555.314,869.067
555.449,868.5
555.584,868.333
555.719,870.6
555.854,871.067
555.989,870.033
556.124,870.567
556.259,870.4
556.394,870.633
556.529,873.033
556.664,873.067
556.799,872.033
556.934,871.833
557.069,873.567
557.204,874.533
557.339,876.633
557.474,881.267
557.609,880.633
557.744,881.033
557.879,877.7
558.014,875.767
558.149,874.633
558.284,874.833
558.419,876.5
558.553,877.833
558.688,878.467
558.823,879.3
558.958,878.133
559.093,875.6
559.228,875.8
559.363,875.433
559.498,873.833
559.632,873.3
559.767,873.033
559.902,873.133
560.037,871.0
560.172,872.767
560.307,874.067
560.441,872.667
560.576,872.633
560.711,873.0
560.846,874.1
560.981,876.867
561.115,876.967
561.25,875.4
561.385,875.767
561.52,876.233
561.654,875.233
561.789,877.0
561.924,878.667
562.059,876.833
562.193,879.133
562.328,876.567
562.463,878.833
562.598,877.967
562.732,880.6
562.867,881.267
563.002,882.033
563.136,883.467
563.271,883.2
563.406,883.2
563.54,885.367
563.675,884.467
563.81,886.0
563.944,887.167
564.079,886.333
564.213,887.833
564.348,889.133
564.483,891.0
564.617,892.467
564.752,896.3
564.887,901.2
565.021,904.567
565.156,908.067
565.29,906.3
565.425,903.033
565.559,903.867
565.694,905.167
565.828,906.4
565.963,905.133
566.098,899.233
566.232,895.733
566.367,893.467
566.501,891.433
566.636,889.2
566.77,888.167
566.905,887.6
567.039,887.767
567.174,885.167
567.308,884.167
567.443,884.567
567.577,885.667
567.711,885.267
567.846,886.667
567.98,884.067
568.115,882.167
568.249,882.0
568.384,882.433
568.518,881.9
568.652,880.833
568.787,883.3
568.921,883.167
569.056,882.033
569.19,882.7
569.324,885.267
569.459,886.033
569.593,883.4
569.727,888.0
569.862,888.367
569.996,888.7
570.131,888.633
570.265,890.4
570.399,890.3
570.534,891.067
570.668,895.567
570.802,897.5
570.936,899.033
571.071,900.9
571.205,900.367
571.339,903.267
571.474,904.367
571.608,900.467
571.742,898.9
571.876,898.1
572.011,897.367
572.145,897.267
572.279,896.367
572.413,894.133
572.548,894.733
572.682,893.833
572.816,897.667
572.95,892.7
573.084,895.467
573.219,894.4
573.353,894.233
573.487,895.667
573.621,896.9
573.755,896.7
573.889,899.267
574.024,899.367
574.158,901.133
574.292,901.533
574.426,901.4
574.56,899.3
574.694,898.167
574.828,895.067
574.963,895.5
575.097,893.967
575.231,897.433
575.365,898.167
575.499,896.933
575.633,895.033
575.767,895.7
575.901,894.4
576.035,893.733
576.169,894.4
576.303,895.333
576.437,894.233
576.571,895.267
576.706,893.733
576.84,895.133
576.974,896.533
577.108,896.267
577.242,894.3
577.376,896.033
577.51,893.4
577.644,892.867
577.778,893.3
577.912,891.2
578.046,888.9
578.179,890.067
578.313,889.767
578.447,890.333
578.581,889.2
578.715,889.6
578.849,889.333
578.983,890.333
579.117,888.533
579.251,889.833
579.385,889.833
579.519,891.133
579.653,891.033
579.787,891.733
579.921,890.967
580.054,891.2
580.188,890.9
580.322,890.733
580.456,890.633
580.59,890.267
580.724,892.333
580.858,890.4
580.991,891.933
581.125,892.167
581.259,891.367
581.393,894.933
581.527,893.367
581.661,896.1
581.794,901.267
581.928,910.567
582.062,932.333
582.196,950.233
582.33,939.967
582.463,913.9
582.597,899.333
582.731,897.2
582.865,895.333
582.998,895.533
583.132,894.7
583.266,894.4
583.4,896.667
583.533,894.1
583.667,894.567
583.801,894.033
583.935,895.867
584.068,893.533
584.202,894.833
584.336,895.533
584.469,895.767
584.603,893.333
584.737,896.167
584.87,895.033
585.004,895.0
585.138,894.367
585.271,897.667
585.405,899.867
585.539,906.0
585.672,911.667
585.806,917.467
585.94,922.5
586.073,925.933
586.207,921.4
586.34,918.667
586.474,915.4
586.608,907.133
586.741,902.733
586.875,900.867
587.008,898.533
587.142,897.833
587.276,897.1
587.409,898.4
587.543,898.0
587.676,895.333
587.81,896.733
587.943,895.7
588.077,896.0
588.21,896.067
588.344,897.867
588.478,898.067
588.611,896.133
588.745,897.0
588.878,896.767
589.012,895.233
589.145,897.533
589.279,898.033
589.412,894.767
589.546,896.167
589.679,895.633
589.812,895.667
589.946,897.233
590.079,900.3
590.213,898.0
590.346,896.5
590.48,897.1
590.613,897.967
590.747,897.367
590.88,897.1
591.013,897.067
591.147,899.0
591.28,898.633
591.414,898.167
591.547,897.7
591.68,898.767
591.814,898.767
591.947,899.167
592.081,898.4
592.214,900.133
592.347,900.3
592.481,898.7
592.614,899.967
592.747,897.367
592.881,897.767
593.014,895.8
593.147,897.967
593.281,898.2
593.414,897.067
593.547,898.8
593.681,900.667
593.814,898.267
593.947,898.533
594.081,898.5
594.214,901.7
594.347,900.333
594.48,900.2
594.614,899.833
594.747,899.867
594.88,901.6
595.014,900.767
595.147,899.9
595.28,902.767
595.413,900.6
595.547,901.367
595.68,902.033
595.813,901.467
595.946,900.633
596.079,901.967
596.213,900.233
596.346,901.933
596.479,899.967
596.612,901.867
596.745,902.167
596.879,900.867
597.012,902.4
597.145,900.667
597.278,900.033
597.411,903.6
597.545,901.5
597.678,902.2
597.811,902.033
597.944,901.567
598.077,903.867
598.21,903.7
598.343,902.433
598.476,901.9
598.61,902.8
598.743,903.933
598.876,901.5
599.009,903.8
599.142,903.9
599.275,904.9
599.408,902.667
599.541,901.533
599.674,903.033
599.807,901.633
599.941,902.0
600.074,902.233
600.207,905.333
600.34,903.3
600.473,904.867
600.606,904.4
600.739,903.1
600.872,901.067
601.005,903.567
601.138,900.933
601.271,901.733
601.404,903.4
601.537,902.933
601.67,902.667
601.803,902.5
601.936,904.367
602.069,901.9
602.202,901.7
602.335,903.367
602.468,904.667
602.601,903.4
602.734,904.033
602.867,903.867
603.0,904.4
603.133,902.333
603.266,903.9
603.399,904.1
603.532,904.6
603.664,903.733
603.797,905.567
603.93,905.4
604.063,904.467
604.196,903.5
604.329,903.967
604.462,904.3
604.595,903.3
604.728,903.433
604.861,901.8
604.994,905.233
605.126,901.833
605.259,903.967
605.392,903.1
605.525,902.3
605.658,903.867
605.791,903.267
605.924,902.633
606.056,902.167
606.189,901.533
606.322,903.233
606.455,899.967
606.588,902.033
606.721,900.8
606.853,901.9
606.986,901.467
607.119,903.5
607.252,901.233
607.385,901.767
607.517,902.667
607.65,903.9
607.783,902.6
607.916,902.5
608.049,903.133
608.181,904.7
608.314,904.433
608.447,903.467
608.58,904.433
608.712,904.633
608.845,905.267
608.978,903.633
609.111,905.167
609.243,903.933
609.376,903.0
609.509,906.667
609.641,904.367
609.774,906.333
609.907,904.233
610.04,904.6
610.172,904.433
610.305,902.767
610.438,903.1
610.57,904.033
610.703,904.667
610.836,903.767
610.968,904.933
611.101,906.0
611.234,901.0
611.366,903.9
611.499,904.433
611.632,906.1
611.764,903.433
611.897,906.833
612.03,906.667
612.162,904.767
612.295,906.867
612.428,906.633
612.56,905.0
612.693,905.433
612.825,906.067
612.958,905.933
613.091,905.367
613.223,907.7
613.356,908.4
613.488,908.867
613.621,907.833
613.754,908.233
613.886,907.3
614.019,907.233
614.151,907.5
614.284,905.8
614.416,908.367
614.549,907.133
614.681,907.3
614.814,908.567
614.947,909.433
615.079,910.333
615.212,907.967
615.344,909.067
615.477,911.167
615.609,907.267
615.742,907.7
615.874,908.633
616.007,908.4
616.139,906.067
616.272,909.9
616.404,908.033
616.537,908.9
616.669,906.167
616.802,905.8
616.934,906.567
617.067,909.567
617.199,909.867
617.332,909.1
617.464,910.0
617.596,907.467
617.729,910.6
617.861,910.0
617.994,909.767
618.126,908.667
618.259,909.8
618.391,910.733
618.524,909.333
618.656,910.667
618.788,911.933
618.921,910.733
619.053,908.967
619.186,907.833
619.318,910.233
619.45,908.3
619.583,910.0
619.715,910.133
619.848,911.3
619.98,910.5
620.112,909.067
620.245,909.7
620.377,910.3
620.509,910.267
620.642,911.7
620.774,910.667
620.907,910.167
621.039,912.067
621.171,911.467
621.304,911.3
621.436,911.8
621.568,910.667
621.701,910.767
621.833,911.967
621.965,912.2
622.097,912.233
622.23,912.2
622.362,912.933
622.494,914.067
622.627,912.067
622.759,914.767
622.891,914.8
623.024,915.067
623.156,913.1
623.288,915.867
623.42,913.5
623.553,914.6
623.685,914.333
623.817,916.267
623.949,915.4
624.082,915.167
624.214,914.533
624.346,916.733
624.479,915.233
624.611,914.633
624.743,917.1
624.875,917.6
625.007,918.0
625.14,915.9
625.272,918.233
625.404,917.533
625.536,917.4
625.669,917.333
625.801,920.7
625.933,920.4
626.065,919.7
626.197,921.067
626.33,920.3
626.462,920.1
626.594,921.967
626.726,923.5
626.858,923.367
626.99,924.567
627.123,927.0
627.255,927.3
627.387,928.7
627.519,931.467
627.651,933.1
627.783,936.533
627.916,935.267
628.048,937.567
628.18,940.533
628.312,945.267
628.444,951.9
628.576,952.767
628.708,953.633
628.84,958.9
628.973,956.867
629.105,959.633
629.237,959.5
629.369,958.333
629.501,955.933
629.633,956.067
629.765,952.933
629.897,951.433
630.029,950.433
630.161,951.033
630.294,947.567
630.426,950.3
630.558,946.033
630.69,943.667
630.822,944.667
630.954,945.5
631.086,946.533
631.218,945.333
631.35,947.467
631.482,945.133
631.614,944.7
631.746,946.8
631.878,944.033
632.01,942.067
632.142,941.533
632.274,938.6
632.406,938.367
632.538,937.167
632.67,934.233
632.802,932.067
632.934,931.533
633.066,929.0
633.198,928.8
633.33,928.433
633.462,927.867
633.594,926.9
633.726,922.9
633.858,924.4
633.99,923.033
634.122,923.167
634.254,920.033
634.386,923.367
634.518,921.2
634.65,921.867
634.782,921.433
634.914,922.5
635.046,922.867
635.178,921.633
635.31,922.0
635.442,920.8
635.574,921.3
635.706,923.567
635.838,924.067
635.97,924.433
636.102,925.133
636.234,925.633
636.365,927.733
636.497,931.533
636.629,932.567
636.761,930.433
636.893,927.267
637.025,925.3
637.157,926.6
637.289,923.067
637.421,924.467
637.553,925.667
637.685,925.5
637.816,922.933
637.948,925.233
638.08,924.2
638.212,922.667
638.344,924.033
638.476,922.067
638.608,923.833
638.74,922.367
638.871,923.067
639.003,922.933
639.135,924.033
639.267,923.533
639.399,925.567
639.531,924.667
639.662,924.167
639.794,923.633
639.926,925.433
640.058,924.9
640.19,924.667
640.322,924.033
640.453,927.1
640.585,926.1
640.717,924.9
640.849,924.367
640.981,928.967
641.113,925.533
641.244,925.967
641.376,926.533
641.508,926.033
641.64,927.5
641.772,927.133
641.903,928.133
642.035,925.667
642.167,927.533
642.299,927.2
642.43,927.933
642.562,929.233
642.694,927.2
642.826,926.533
642.958,926.767
643.089,925.533
643.221,926.1
643.353,927.267
643.485,927.767
643.616,926.967
643.748,926.8
643.88,925.367
644.012,925.3
644.143,926.267
644.275,924.167
644.407,924.367
644.538,925.3
644.67,925.933
644.802,927.167
644.934,925.533
645.065,927.6
645.197,924.233
645.329,928.1
645.461,927.6
645.592,927.467
645.724,927.633
645.856,926.8
645.987,928.667
646.119,927.133
646.251,928.933
646.382,927.733
646.514,930.167
646.646,928.7
646.777,926.933
646.909,930.033
647.041,929.7
647.172,930.333
647.304,928.8
647.436,929.833
647.567,929.633
647.699,928.533
647.831,931.533
647.962,930.2
648.094,928.767
648.226,930.233
648.357,932.3
648.489,928.9
648.621,927.8
648.752,930.733
648.884,930.567
649.016,929.367
649.147,929.067
649.279,927.933
649.411,929.767
649.542,930.033
649.674,929.333
649.805,931.333
649.937,928.4
650.069,930.3
650.2,926.267
650.332,928.533
650.463,928.367
650.595,929.967
650.727,931.167
650.858,927.767
650.99,929.967
651.121,929.133
651.253,926.2
651.385,929.633
651.516,929.6
651.648,931.267
651.779,929.967
651.911,927.533
652.043,929.4
652.174,930.433
652.306,928.533
652.437,927.433
652.569,931.667
652.7,927.467
652.832,927.7
652.963,927.733
653.095,927.5
653.227,927.033
653.358,925.4
653.49,925.967
653.621,927.033
653.753,929.133
653.884,925.533
654.016,927.667
654.147,926.933
654.279,924.633
654.41,925.533
654.542,926.067
654.674,925.7
654.805,926.533
654.937,926.733
655.068,925.367
655.2,926.5
655.331,925.267
655.463,924.733
655.594,925.567
655.726,925.733
655.857,924.233
655.989,924.867
656.12,924.767
656.252,924.2
656.383,925.133
656.515,924.0
656.646,923.9
656.778,923.533
656.909,925.467
657.041,923.667
657.172,925.9
657.304,923.267
657.435,922.167
657.567,924.233
657.698,920.667
657.829,923.733
657.961,921.467
658.092,921.433
658.224,922.4
658.355,921.167
658.487,922.533
658.618,921.1
658.75,921.333
658.881,920.9
659.013,921.267
659.144,921.567
659.275,920.467
659.407,920.2
659.538,921.233
659.67,921.3
659.801,920.233
659.933,922.633
660.064,920.9
660.196,919.2
660.327,922.4
660.458,918.867
660.59,918.833
660.721,920.333
660.853,916.4
660.984,916.733
661.116,919.167
661.247,918.967
661.378,918.133
661.51,919.8
661.641,918.467
661.773,918.267
661.904,915.867
662.035,917.567
662.167,916.1
662.298,916.233
662.43,916.3
662.561,916.6
662.692,918.833
662.824,915.767
662.955,916.0
663.087,916.533