File: spectra/VLFR_01-LDPE_nobio_Raman_85ecc14f.csv
nm,Intensity
526.547,832.8
526.683,832.7
526.82,832.3
526.957,832.2
527.094,832.3
527.23,831.4
527.367,833.7
527.504,832.2
527.641,832.9
527.777,831.0
527.914,832.7
528.051,832.3
528.188,832.7
528.324,832.6
528.461,832.9
528.598,832.1
528.734,832.1
528.871,833.2
529.008,833.0
529.144,833.6
529.281,832.2
529.417,831.7
529.554,833.0
529.691,833.2
529.827,831.8
529.964,832.7
530.1,831.4
530.237,832.1
530.373,832.4
530.51,832.0
530.647,834.2
530.783,832.8
530.92,832.3
531.056,832.3
531.193,833.6
531.329,831.8
531.466,832.3
531.602,831.3
531.738,832.3
531.875,832.0
532.011,837.7
532.148,853.5
532.284,848.7
532.421,835.9
532.557,832.7
532.693,833.1
532.83,832.3
532.966,833.3
533.103,832.4
533.239,831.4
533.375,833.4
533.512,832.5
533.648,833.5
533.784,841.7
533.921,866.4
534.057,895.9
534.193,903.7
534.33,904.9
534.466,901.3
534.602,893.9
534.738,897.8
534.875,893.8
535.011,892.3
535.147,884.1
535.283,882.2
535.42,881.1
535.556,879.6
535.692,878.4
535.828,877.7
535.964,875.8
536.101,876.2
536.237,875.3
536.373,874.0
536.509,871.3
536.645,870.5
536.781,870.9
536.917,868.8
537.054,867.3
537.19,868.4
537.326,866.4
537.462,867.5
537.598,867.6
537.734,865.3
537.87,865.1
538.006,865.8
538.142,867.7
538.278,868.6
538.414,866.0
538.55,862.7
538.686,863.7
538.822,863.7
538.958,863.3
539.094,861.1
539.23,861.3
539.366,860.9
539.502,859.6
539.638,860.4
539.774,859.8
539.91,859.0
540.046,860.8
540.182,859.4
540.318,857.7
540.454,857.3
540.59,858.1
540.726,855.2
540.862,859.3
540.997,856.9
541.133,855.6
541.269,855.0
541.405,856.6
541.541,855.9
541.677,856.0
541.812,856.2
541.948,855.4
542.084,856.8
542.22,855.0
542.356,857.5
542.492,854.7
542.627,853.1
542.763,853.3
542.899,854.9
543.035,855.2
543.17,854.0
543.306,855.1
543.442,854.8
543.578,854.5
543.713,855.2
543.849,854.0
543.985,854.5
544.12,855.5
544.256,852.6
544.392,854.4
544.527,849.5
544.663,852.8
544.799,854.0
544.934,855.5
545.07,853.5
545.206,853.9
545.341,854.2
545.477,854.2
545.612,852.4
545.748,853.6
545.884,853.7
546.019,855.7
546.155,856.4
546.29,852.2
546.426,850.7
546.562,853.4
546.697,852.1
546.833,853.2
546.968,850.9
547.104,851.7
547.239,852.1
547.375,852.7
547.51,853.3
547.646,850.8
547.781,852.7
547.917,848.8
548.052,849.8
548.188,852.2
548.323,850.7
548.458,852.2
548.594,849.0
548.729,853.5
548.865,850.6
549.0,851.8
549.136,850.4
549.271,853.2
549.406,849.8
549.542,851.4
549.677,851.9
549.812,850.0
549.948,851.6
550.083,848.9
550.219,851.6
550.354,849.5
550.489,851.0
550.625,850.2
550.76,851.7
550.895,851.9
551.03,851.0
551.166,850.0
551.301,850.3
551.436,850.0
551.572,850.1
551.707,851.4
551.842,851.5
551.977,851.4
552.113,849.6
552.248,850.1
552.383,850.1
552.518,851.4
552.654,851.8
552.789,853.0
552.924,852.6
553.059,852.9
553.194,853.3
553.329,854.0
553.465,856.3
553.6,855.4
553.735,854.0
553.87,854.4
554.005,853.0
554.14,856.3
554.276,854.2
554.411,854.9
554.546,855.2
554.681,855.2
554.816,853.0
554.951,856.0
555.086,855.6
555.221,856.4
555.356,858.1
555.491,856.7
555.626,854.9
555.761,857.7
555.896,856.7
556.031,859.7
556.167,855.9
556.302,858.0
556.437,857.6
556.572,856.8
556.707,860.1
556.842,859.3
556.977,863.3
557.112,858.8
557.246,860.7
557.381,862.3
557.516,863.4
557.651,860.0
557.786,864.3
557.921,862.6
558.056,865.3
558.191,865.2
558.326,865.8
558.461,867.2
558.596,867.5
558.731,865.0
558.866,864.6
559.0,864.9
559.135,866.4
559.27,863.0
559.405,862.0
559.54,864.0
559.675,865.9
559.81,863.2
559.944,863.6
560.079,864.6
560.214,865.0
560.349,863.4
560.484,864.7
560.618,867.6
560.753,864.5
560.888,866.1
561.023,867.4
561.158,868.5
561.292,866.3
561.427,868.3
561.562,868.2
561.697,866.5
561.831,866.9
561.966,867.1
562.101,868.7
562.235,870.0
562.37,871.5
562.505,873.0
562.64,874.4
562.774,873.2
562.909,876.1
563.044,876.7
563.178,877.5
563.313,878.2
563.448,879.4
563.582,881.6
563.717,887.1
563.852,900.9
563.986,929.5
564.121,947.7
564.255,920.4
564.39,895.9
564.525,897.4
564.659,895.7
564.794,894.3
564.928,894.2
565.063,888.3
565.198,888.6
565.332,886.7
565.467,890.5
565.601,888.7
565.736,888.8
565.87,900.1
566.005,922.1
566.139,950.5
566.274,950.4
566.408,918.5
566.543,901.8
566.677,895.9
566.812,891.3
566.946,890.0
567.081,888.3
567.215,889.5
567.35,891.2
567.484,893.5
567.619,894.5
567.753,889.3
567.887,889.6
568.022,887.9
568.156,890.6
568.291,889.3
568.425,890.6
568.56,888.2
568.694,890.3
568.828,889.5
568.963,891.8
569.097,894.7
569.231,893.4
569.366,896.1
569.5,896.9
569.635,895.6
569.769,902.9
569.903,897.8
570.038,901.1
570.172,900.1
570.306,906.6
570.441,902.9
570.575,907.1
570.709,907.8
570.843,913.1
570.978,914.0
571.112,916.1
571.246,924.4
571.381,946.7
571.515,1013.2
571.649,1032.5
571.783,971.3
571.918,949.4
572.052,936.5
572.186,934.5
572.32,926.3
572.455,928.1
572.589,922.6
572.723,928.4
572.857,922.8
572.991,925.8
573.126,923.7
573.26,932.8
573.394,924.2
573.528,929.1
573.662,933.3
573.796,939.9
573.931,939.1
574.065,942.4
574.199,945.9
574.333,940.9
574.467,940.3
574.601,942.5
574.735,946.3
574.869,943.7
575.004,949.2
575.138,952.0
575.272,957.7
575.406,969.0
575.54,986.1
575.674,999.5
575.808,994.5
575.942,998.1
576.076,1017.7
576.21,1052.5
576.344,1064.8
576.478,1060.9
576.612,1040.5
576.746,1048.5
576.88,1045.0
577.014,1053.5
577.148,1049.6
577.282,1054.6
577.416,1038.2
577.55,1031.4
577.684,1025.0
577.818,1027.9
577.952,1028.8
578.086,1036.0
578.22,1039.2
578.354,1043.4
578.488,1046.9
578.622,1045.8
578.756,1053.6
578.89,1054.7
579.024,1064.1
579.158,1065.1
579.292,1073.1
579.426,1075.4
579.559,1080.1
579.693,1092.4
579.827,1094.3
579.961,1095.5
580.095,1101.5
580.229,1109.0
580.363,1116.1
580.497,1119.6
580.63,1120.8
580.764,1127.5
580.898,1138.2
581.032,1132.5
581.166,1139.9
581.3,1144.9
581.433,1154.5
581.567,1153.9
581.701,1159.6
581.835,1159.3
581.969,1171.1
582.102,1173.4
582.236,1173.8
582.37,1182.8
582.504,1183.3
582.637,1188.4
582.771,1192.9
582.905,1197.1
583.039,1207.7
583.172,1206.6
583.306,1215.4
583.44,1212.9
583.574,1215.7
583.707,1217.2
583.841,1222.7
583.975,1224.0
584.108,1232.4
584.242,1231.7
584.376,1233.7
584.51,1238.7
584.643,1235.7
584.777,1244.3
584.911,1245.1
585.044,1235.4
585.178,1252.5
585.312,1256.0
585.445,1251.3
585.579,1261.4
585.712,1269.4
585.846,1256.2
585.98,1266.0
586.113,1271.3
586.247,1278.3
586.381,1277.9
586.514,1281.7
586.648,1286.2
586.781,1287.7
586.915,1293.5
587.048,1296.0
587.182,1302.2
587.316,1306.4
587.449,1308.4
587.583,1305.3
587.716,1313.6
587.85,1326.2
587.983,1320.1
588.117,1324.4
588.25,1326.8
588.384,1338.9
588.517,1335.1
588.651,1335.0
588.784,1332.1
588.918,1346.6
589.051,1342.8
589.185,1346.4
589.318,1355.0
589.452,1358.9
589.585,1357.1
589.719,1356.7
589.852,1363.0
589.986,1365.5
590.119,1372.6
590.253,1380.9
590.386,1376.5
590.519,1387.3
590.653,1380.0
590.786,1394.1
590.92,1391.9
591.053,1404.0
591.187,1404.3
591.32,1399.1
591.453,1415.7
591.587,1409.2
591.72,1414.8
591.853,1412.5
591.987,1414.2
592.12,1410.9
592.254,1424.7
592.387,1414.9
592.52,1411.9
592.654,1419.4
592.787,1418.3
592.92,1422.8
593.054,1417.2
593.187,1425.1
593.32,1427.8
593.454,1418.0
593.587,1416.7
593.72,1416.6
593.853,1424.3
593.987,1425.1
594.12,1422.0
594.253,1427.5
594.387,1430.3
594.52,1425.5
594.653,1436.4
594.786,1430.6
594.92,1432.1
595.053,1444.3
595.186,1445.9
595.319,1437.4
595.453,1446.5
595.586,1445.2
595.719,1448.3
595.852,1456.6
595.985,1448.9
596.119,1459.0
596.252,1440.0
596.385,1446.7
596.518,1447.1
596.651,1451.6
596.785,1463.8
596.918,1456.5
597.051,1461.0
597.184,1462.2
597.317,1465.4
597.45,1472.0
597.584,1459.4
597.717,1464.2
597.85,1468.4
597.983,1480.2
598.116,1488.6
598.249,1482.9
598.382,1482.6
598.516,1485.5
598.649,1498.7
598.782,1493.9
598.915,1495.4
599.048,1503.7
599.181,1498.3
599.314,1496.9
599.447,1498.2
599.58,1502.6
599.713,1495.4
599.846,1513.0
599.979,1506.9
600.113,1506.6
600.246,1499.3
600.379,1503.8
600.512,1500.2
600.645,1497.0
600.778,1506.5
600.911,1501.0
601.044,1503.5
601.177,1490.6
601.31,1493.2
601.443,1490.8
601.576,1484.7
601.709,1488.9
601.842,1484.0
601.975,1487.0
602.108,1478.3
602.241,1481.8
602.374,1487.3
602.507,1479.6
602.64,1475.6
602.773,1460.5
602.905,1466.1
603.038,1465.2
603.171,1460.2
603.304,1451.6
603.437,1449.3
603.57,1443.8
603.703,1439.8
603.836,1431.8
603.969,1426.2
604.102,1428.4
604.235,1421.1
604.368,1406.1
604.501,1402.1
604.633,1406.6
604.766,1382.8
604.899,1393.2
605.032,1369.4
605.165,1363.6
605.298,1353.0
605.431,1358.5
605.563,1345.8
605.696,1335.9
605.829,1330.1
605.962,1325.1
606.095,1326.2
606.228,1315.3
606.36,1317.3
606.493,1310.9
606.626,1305.1
606.759,1294.8
606.892,1300.9
607.025,1293.2
607.157,1292.3
607.29,1284.7
607.423,1275.8
607.556,1271.7
607.688,1270.4
607.821,1267.6
607.954,1268.0
608.087,1270.7
608.219,1258.5
608.352,1258.5
608.485,1254.1
608.618,1246.0
608.75,1252.6
608.883,1238.2
609.016,1246.5
609.149,1242.5
609.281,1238.7
609.414,1226.3
609.547,1230.3
609.68,1219.5
609.812,1220.8
609.945,1215.6
610.078,1212.7
610.21,1210.8
610.343,1202.7
610.476,1203.6
610.608,1209.8
610.741,1200.4
610.874,1203.3
611.006,1195.5
611.139,1193.5
611.272,1192.4
611.404,1187.4
611.537,1192.2
611.67,1186.6
611.802,1186.5
611.935,1179.8
612.067,1177.5
612.2,1180.0
612.333,1180.8
612.465,1176.1
612.598,1169.3
612.731,1172.4
612.863,1175.1
612.996,1163.1
613.128,1172.5
613.261,1171.5
613.393,1170.7
613.526,1164.8
613.659,1163.9
613.791,1164.1
613.924,1156.8
614.056,1163.5
614.189,1155.7
614.321,1158.1
614.454,1154.3
614.586,1148.8
614.719,1147.8
614.852,1149.4
614.984,1145.3
615.117,1145.6
615.249,1136.6
615.382,1134.0
615.514,1138.6
615.647,1138.2
615.779,1135.2
615.912,1131.0
616.044,1133.2
616.177,1126.0
616.309,1128.4
616.442,1128.2
616.574,1126.5
616.707,1122.8
616.839,1127.9
616.971,1123.7
617.104,1125.4
617.236,1127.3
617.369,1120.7
617.501,1122.2
617.634,1121.8
617.766,1123.2
617.899,1120.4
618.031,1114.3
618.163,1115.3
618.296,1113.6
618.428,1112.0
618.561,1113.5
618.693,1108.7
618.826,1111.9
618.958,1110.6
619.09,1104.5
619.223,1105.2
619.355,1111.8
619.487,1105.0
619.62,1108.2
619.752,1107.3
619.885,1106.8
620.017,1107.2
620.149,1107.8
620.282,1104.1
620.414,1095.1
620.546,1099.9
620.679,1105.1
620.811,1100.8
620.943,1106.8
621.076,1100.5
621.208,1104.8
621.34,1109.1
621.473,1109.0
621.605,1110.9
621.737,1116.1
621.87,1118.6
622.002,1124.9
622.134,1129.4
622.267,1132.7
622.399,1132.4
622.531,1137.1
622.663,1124.1
622.796,1112.0
622.928,1118.7
623.06,1110.0
623.193,1111.4
623.325,1104.0
623.457,1100.5
623.589,1103.1
623.722,1092.8
623.854,1099.9
623.986,1095.9
624.118,1097.7
624.251,1100.7
624.383,1099.3
624.515,1103.6
624.647,1099.3
624.78,1097.9
624.912,1103.2
625.044,1105.6
625.176,1099.0
625.308,1104.8
625.441,1098.5
625.573,1102.2
625.705,1110.6
625.837,1112.5
625.969,1109.5
626.102,1123.0
626.234,1123.3
626.366,1129.9
626.498,1152.3
626.63,1177.7
626.762,1248.7
626.895,1353.5
627.027,1508.9
627.159,1649.2
627.291,1708.7
627.423,1632.0
627.555,1584.4
627.687,1528.7
627.82,1474.1
627.952,1446.5
628.084,1434.8
628.216,1459.2
628.348,1528.1
628.48,1676.4
628.612,1774.0
628.744,1657.8
628.877,1539.4
629.009,1497.4
629.141,1492.2
629.273,1483.1
629.405,1453.6
629.537,1428.1
629.669,1397.5
629.801,1376.0
629.933,1358.2
630.065,1350.5
630.197,1341.3
630.33,1345.4
630.462,1345.4
630.594,1326.5
630.726,1315.0
630.858,1282.2
630.99,1255.4
631.122,1231.9
631.254,1194.5
631.386,1185.0
631.518,1178.3
631.65,1174.5
631.782,1166.8
631.914,1162.9
632.046,1162.6
632.178,1153.8
632.31,1148.5
632.442,1148.9
632.574,1151.6
632.706,1153.2
632.838,1147.5
632.97,1141.4
633.102,1142.6
633.234,1147.1
633.366,1144.3
633.498,1146.1
633.63,1142.0
633.762,1145.6
633.894,1145.1
634.026,1140.5
634.158,1149.8
634.29,1143.1
634.422,1142.1
634.554,1137.6
634.686,1143.9
634.818,1143.8
634.95,1146.4
635.082,1146.1
635.214,1152.3
635.346,1142.8
635.477,1144.8
635.609,1157.0
635.741,1150.7
635.873,1145.7
636.005,1147.5
636.137,1148.0
636.269,1152.2
636.401,1148.2
636.533,1150.3
636.665,1154.1
636.797,1152.5
636.929,1153.3
637.06,1148.3
637.192,1146.4
637.324,1155.8
637.456,1149.1
637.588,1155.2
637.72,1149.7
637.852,1152.2
637.984,1147.9
638.115,1154.5
638.247,1149.5
638.379,1148.5
638.511,1155.2
638.643,1156.4
638.775,1148.4
638.907,1156.7
639.039,1153.8
639.17,1158.4
639.302,1160.7
639.434,1155.1
639.566,1154.0
639.698,1157.1
639.83,1153.6
639.961,1152.4
640.093,1153.8
640.225,1155.4
640.357,1158.3
640.489,1160.3
640.62,1165.0
640.752,1158.2
640.884,1162.9
641.016,1160.5
641.148,1161.1
641.279,1159.8
641.411,1162.4
641.543,1166.5
641.675,1171.3
641.807,1162.9
641.938,1169.0
642.07,1159.1
642.202,1171.7
642.334,1165.4
642.466,1162.3
642.597,1166.7
642.729,1164.6
642.861,1170.0
642.993,1168.1
643.124,1167.2
643.256,1162.4
643.388,1167.2
643.52,1158.5
643.651,1168.0
643.783,1167.9
643.915,1163.1
644.047,1160.1
644.178,1161.7
644.31,1164.6
644.442,1167.7
644.574,1163.9
644.705,1168.7
644.837,1166.6
644.969,1168.3
645.1,1169.0
645.232,1156.7
645.364,1159.0
645.496,1157.1
645.627,1163.7
645.759,1163.2
645.891,1162.9
646.022,1163.2
646.154,1156.9
646.286,1161.3
646.417,1164.3
646.549,1163.4
646.681,1165.3
646.812,1176.4
646.944,1171.3
647.076,1165.3
647.207,1167.7
647.339,1161.4
647.471,1163.9
647.602,1157.7
647.734,1167.5
647.866,1161.5
647.997,1158.9
648.129,1159.9
648.261,1161.1
648.392,1159.1
648.524,1156.3
648.656,1156.8
648.787,1152.0
648.919,1157.7
649.051,1161.2
649.182,1161.2
649.314,1160.3
649.446,1152.5
649.577,1156.6
649.709,1156.1
649.84,1153.8
649.972,1161.6
650.104,1151.5
650.235,1156.8
650.367,1152.2
650.498,1152.8
650.63,1149.0
650.762,1144.2
650.893,1150.5
651.025,1149.9
651.157,1147.5
651.288,1153.7
651.42,1149.3
651.551,1146.5
651.683,1148.3
651.814,1150.8
651.946,1150.2
652.078,1151.3
652.209,1142.0
652.341,1150.3
652.472,1155.1
652.604,1151.2
652.736,1151.3
652.867,1151.7
652.999,1155.7
653.13,1146.6
653.262,1143.2
653.393,1149.8
653.525,1147.1
653.656,1149.5
653.788,1150.8
653.92,1148.3
654.051,1152.9
654.183,1147.7
654.314,1143.7
654.446,1147.6
654.577,1144.5
654.709,1143.4
654.84,1140.3
654.972,1138.3
655.103,1135.7
655.235,1136.9
655.366,1139.5
655.498,1137.3
655.63,1142.5
655.761,1137.4
655.893,1131.0
656.024,1132.6
656.156,1132.2
656.287,1135.3
656.419,1129.1
656.55,1127.4
656.682,1129.4
656.813,1124.8
656.945,1127.0
657.076,1125.6
657.208,1130.3
657.339,1127.1
657.471,1115.5
657.602,1115.4
657.734,1113.9
657.865,1116.3
657.997,1113.7
658.128,1114.6
658.26,1115.8
658.391,1112.0
658.522,1108.4
658.654,1112.5
658.785,1108.4
658.917,1097.2
659.048,1099.2
659.18,1099.7
659.311,1093.9
659.443,1098.3
659.574,1094.6
659.706,1092.6
659.837,1087.0
659.969,1093.1
660.1,1085.1
660.232,1087.9
660.363,1085.0
660.494,1083.2
660.626,1076.1
660.757,1077.0
660.889,1079.5
661.02,1075.8
661.152,1069.0
661.283,1067.5
661.415,1066.6
661.546,1061.9
661.677,1057.3
661.809,1059.3
661.94,1059.0
662.072,1054.3
662.203,1049.5
662.335,1051.2
662.466,1043.4
662.597,1046.8
662.729,1042.9
662.86,1046.6
662.992,1039.1
663.123,1039.6