File: spectra/VLFR_01-LDPE_nobio_Raman_6be11c50.csv
nm,Intensity
526.508,830.9
526.645,830.2
526.782,829.8
526.919,830.85
527.055,829.4
527.192,830.3
527.329,829.85
527.465,829.9
527.602,830.0
527.739,829.4
527.875,830.0
528.012,830.4
528.149,830.05
528.285,830.85
528.422,830.3
528.558,830.0
528.695,829.75
528.832,829.45
528.968,829.85
529.105,830.25
529.241,830.25
529.378,831.1
529.514,829.65
529.651,829.55
529.787,830.15
529.924,829.8
530.061,829.6
530.197,829.3
530.334,830.55
530.47,830.15
530.606,830.3
530.743,830.0
530.879,830.1
531.016,830.25
531.152,829.25
531.289,829.8
531.425,830.35
531.562,830.05
531.698,829.7
531.834,830.25
531.971,833.8
532.107,859.95
532.244,867.25
532.38,838.35
532.516,831.05
532.653,830.2
532.789,828.85
532.925,830.6
533.062,830.15
533.198,829.35
533.334,830.95
533.471,829.55
533.607,829.8
533.743,834.7
533.879,855.2
534.016,886.4
534.152,899.25
534.288,901.6
534.424,897.05
534.561,892.95
534.697,889.9
534.833,890.85
534.969,887.45
535.106,883.0
535.242,881.7
535.378,878.7
535.514,873.15
535.65,870.85
535.786,868.5
535.923,866.7
536.059,864.25
536.195,863.55
536.331,865.15
536.467,861.65
536.603,863.1
536.739,861.6
536.876,859.7
537.012,861.2
537.148,861.6
537.284,860.8
537.42,860.95
537.556,859.75
537.692,859.55
537.828,859.6
537.964,858.0
538.1,860.1
538.236,858.15
538.372,857.5
538.508,857.75
538.644,857.2
538.78,856.2
538.916,856.25
539.052,855.55
539.188,853.05
539.324,853.35
539.46,854.2
539.596,852.95
539.732,853.05
539.868,852.3
540.004,853.3
540.14,852.75
540.275,853.65
540.411,853.35
540.547,852.35
540.683,850.95
540.819,853.85
540.955,850.7
541.091,851.45
541.227,852.6
541.362,851.95
541.498,850.95
541.634,851.65
541.77,850.3
541.906,851.65
542.041,852.2
542.177,851.9
542.313,850.9
542.449,851.9
542.585,850.65
542.72,850.65
542.856,850.7
542.992,850.3
543.128,849.6
543.263,851.95
543.399,851.7
543.535,850.25
543.67,850.3
543.806,853.25
543.942,852.25
544.078,850.75
544.213,851.85
544.349,851.15
544.485,849.5
544.62,851.5
544.756,850.0
544.892,851.95
545.027,850.1
545.163,850.5
545.298,852.25
545.434,850.55
545.57,851.6
545.705,851.1
545.841,849.9
545.976,851.2
546.112,852.15
546.248,850.15
546.383,851.0
546.519,850.4
546.654,851.05
546.79,851.5
546.925,851.3
547.061,849.85
547.196,850.6
547.332,850.2
547.467,850.2
547.603,849.85
547.738,849.35
547.874,850.55
548.009,852.15
548.145,849.4
548.28,849.6
548.416,849.3
548.551,850.25
548.686,849.45
548.822,850.3
548.957,849.85
549.093,849.15
549.228,849.35
549.363,850.35
549.499,850.85
549.634,850.1
549.77,849.95
549.905,850.2
550.04,848.9
550.176,849.45
550.311,848.25
550.446,850.3
550.582,848.8
550.717,848.75
550.852,850.65
550.988,851.3
551.123,850.25
551.258,849.35
551.394,851.3
551.529,849.3
551.664,849.7
551.799,850.15
551.935,851.45
552.07,851.9
552.205,850.25
552.34,850.4
552.476,851.95
552.611,851.8
552.746,851.75
552.881,851.25
553.016,851.65
553.152,851.5
553.287,852.65
553.422,855.75
553.557,855.15
553.692,854.8
553.827,853.75
553.963,853.6
554.098,855.25
554.233,852.1
554.368,855.75
554.503,855.0
554.638,854.75
554.773,855.25
554.908,855.45
555.043,856.6
555.179,855.25
555.314,854.2
555.449,855.6
555.584,857.8
555.719,856.7
555.854,858.55
555.989,857.35
556.124,857.65
556.259,859.05
556.394,859.0
556.529,859.65
556.664,860.85
556.799,861.1
556.934,862.9
557.069,859.95
557.204,862.85
557.339,862.1
557.474,862.8
557.609,862.95
557.744,863.6
557.879,864.0
558.014,866.75
558.149,865.8
558.284,866.85
558.419,867.25
558.553,867.15
558.688,865.2
558.823,867.1
558.958,865.05
559.093,865.7
559.228,865.65
559.363,866.15
559.498,867.2
559.632,864.9
559.767,865.5
559.902,866.35
560.037,864.85
560.172,864.25
560.307,866.5
560.441,865.0
560.576,868.05
560.711,866.7
560.846,869.35
560.981,866.35
561.115,866.25
561.25,869.45
561.385,868.8
561.52,869.3
561.654,869.55
561.789,870.5
561.924,870.3
562.059,873.85
562.193,873.15
562.328,873.55
562.463,873.5
562.598,875.8
562.732,877.6
562.867,878.05
563.002,881.35
563.136,880.75
563.271,881.7
563.406,884.6
563.54,885.15
563.675,890.6
563.81,900.5
563.944,929.55
564.079,961.15
564.213,939.35
564.348,908.95
564.483,904.1
564.617,901.15
564.752,904.7
564.887,903.65
565.021,899.5
565.156,898.55
565.29,894.55
565.425,896.2
565.559,896.0
565.694,900.1
565.828,903.85
565.963,919.9
566.098,949.65
566.232,961.0
566.367,931.4
566.501,912.7
566.636,903.85
566.77,905.15
566.905,901.7
567.039,904.55
567.174,905.45
567.308,903.8
567.443,912.15
567.577,914.45
567.711,909.25
567.846,908.0
567.98,907.3
568.115,907.5
568.249,908.4
568.384,910.05
568.518,910.15
568.652,910.45
568.787,916.2
568.921,915.85
569.056,920.5
569.19,921.75
569.324,921.9
569.459,921.6
569.593,927.3
569.727,928.4
569.862,928.25
569.996,931.55
570.131,934.7
570.265,936.0
570.399,941.3
570.534,943.5
570.668,947.15
570.802,952.95
570.936,953.15
571.071,957.1
571.205,963.3
571.339,975.65
571.474,1036.5
571.608,1092.25
571.742,1035.5
571.876,1005.35
572.011,996.15
572.145,995.45
572.279,990.75
572.413,987.25
572.548,989.35
572.682,989.7
572.816,993.6
572.95,997.05
573.084,1001.1
573.219,1002.05
573.353,1006.8
573.487,1008.65
573.621,1015.15
573.755,1022.95
573.889,1031.85
574.024,1036.65
574.158,1038.35
574.292,1041.95
574.426,1042.0
574.56,1051.7
574.694,1056.45
574.828,1057.7
574.963,1067.85
575.097,1069.75
575.231,1081.45
575.365,1093.4
575.499,1119.6
575.633,1143.65
575.767,1141.85
575.901,1151.7
576.035,1175.4
576.169,1217.45
576.303,1262.25
576.437,1260.85
576.571,1242.8
576.706,1241.1
576.84,1252.95
576.974,1260.2
577.108,1273.55
577.242,1273.5
577.376,1270.7
577.51,1265.45
577.644,1274.25
577.778,1280.35
577.912,1290.7
578.046,1303.8
578.179,1313.05
578.313,1325.65
578.447,1341.05
578.581,1353.6
578.715,1370.2
578.849,1381.25
578.983,1398.8
579.117,1409.45
579.251,1427.75
579.385,1444.3
579.519,1458.55
579.653,1468.85
579.787,1497.15
579.921,1500.3
580.054,1515.9
580.188,1537.65
580.322,1548.9
580.456,1566.1
580.59,1583.05
580.724,1593.5
580.858,1616.9
580.991,1628.0
581.125,1631.65
581.259,1653.45
581.393,1666.9
581.527,1683.25
581.661,1693.65
581.794,1710.65
581.928,1714.4
582.062,1727.75
582.196,1746.85
582.33,1763.4
582.463,1764.9
582.597,1785.85
582.731,1798.9
582.865,1803.15
582.998,1818.45
583.132,1820.2
583.266,1839.7
583.4,1836.0
583.533,1851.6
583.667,1871.15
583.801,1872.35
583.935,1874.45
584.068,1881.45
584.202,1893.55
584.336,1891.55
584.469,1906.3
584.603,1906.35
584.737,1921.4
584.87,1919.4
585.004,1935.65
585.138,1941.65
585.271,1948.05
585.405,1938.25
585.539,1968.75
585.672,1970.3
585.806,1984.55
585.94,1992.05
586.073,2004.65
586.207,2012.9
586.34,2018.35
586.474,2031.6
586.608,2035.6
586.741,2044.7
586.875,2055.2
587.008,2068.25
587.142,2078.95
587.276,2097.8
587.409,2115.5
587.543,2119.4
587.676,2122.0
587.81,2130.45
587.943,2145.05
588.077,2163.15
588.21,2159.95
588.344,2185.5
588.478,2199.55
588.611,2211.65
588.745,2223.3
588.878,2229.3
589.012,2233.85
589.145,2252.35
589.279,2265.15
589.412,2283.9
589.546,2284.6
589.679,2310.65
589.812,2325.35
589.946,2338.85
590.079,2345.65
590.213,2369.75
590.346,2378.9
590.48,2385.2
590.613,2410.5
590.747,2419.25
590.88,2442.9
591.013,2449.0
591.147,2472.9
591.28,2490.5
591.414,2492.05
591.547,2501.75
591.68,2507.6
591.814,2518.85
591.947,2520.15
592.081,2525.35
592.214,2537.5
592.347,2552.0
592.481,2546.8
592.614,2551.75
592.747,2556.05
592.881,2557.3
593.014,2579.2
593.147,2582.6
593.281,2574.1
593.414,2591.9
593.547,2590.75
593.681,2597.9
593.814,2611.9
593.947,2601.8
594.081,2622.2
594.214,2617.1
594.347,2647.85
594.48,2634.7
594.614,2640.9
594.747,2650.85
594.88,2669.2
595.014,2674.35
595.147,2691.85
595.28,2692.45
595.413,2713.9
595.547,2710.0
595.68,2723.05
595.813,2733.05
595.946,2735.7
596.079,2749.5
596.213,2755.1
596.346,2765.15
596.479,2779.45
596.612,2787.25
596.745,2796.3
596.879,2806.1
597.012,2822.9
597.145,2828.75
597.278,2845.35
597.411,2850.75
597.545,2867.55
597.678,2873.4
597.811,2879.7
597.944,2894.0
598.077,2918.6
598.21,2928.2
598.343,2942.6
598.476,2962.2
598.61,2962.15
598.743,2985.75
598.876,2990.7
599.009,2996.55
599.142,3001.55
599.275,3017.0
599.408,3018.35
599.541,3029.9
599.674,3044.6
599.807,3036.95
599.941,3044.9
600.074,3054.75
600.207,3028.95
600.34,3044.1
600.473,3053.75
600.606,3030.6
600.739,3034.4
600.872,3037.2
601.005,3022.5
601.138,3014.85
601.271,3031.45
601.404,3017.2
601.537,3009.45
601.67,3002.35
601.803,2997.2
601.936,2970.9
602.069,2984.25
602.202,2973.4
602.335,2951.25
602.468,2933.3
602.601,2931.4
602.734,2937.85
602.867,2908.8
603.0,2899.65
603.133,2891.45
603.266,2869.3
603.399,2862.3
603.532,2840.95
603.664,2828.0
603.797,2805.55
603.93,2789.15
604.063,2760.95
604.196,2746.05
604.329,2725.35
604.462,2702.4
604.595,2684.45
604.728,2661.6
604.861,2647.7
604.994,2614.8
605.126,2584.6
605.259,2562.6
605.392,2535.1
605.525,2496.45
605.658,2486.95
605.791,2459.2
605.924,2437.85
606.056,2420.6
606.189,2411.5
606.322,2382.05
606.455,2354.8
606.588,2349.8
606.721,2326.6
606.853,2307.1
606.986,2296.75
607.119,2273.85
607.252,2265.0
607.385,2248.4
607.517,2251.0
607.65,2222.85
607.783,2203.5
607.916,2198.6
608.049,2180.15
608.181,2175.05
608.314,2161.15
608.447,2148.25
608.58,2139.5
608.712,2120.05
608.845,2112.55
608.978,2101.3
609.111,2084.15
609.243,2080.25
609.376,2068.15
609.509,2064.7
609.641,2044.7
609.774,2032.2
609.907,2018.8
610.04,2012.45
610.172,1995.3
610.305,1990.5
610.438,1979.4
610.57,1962.7
610.703,1953.85
610.836,1954.95
610.968,1949.65
611.101,1941.3
611.234,1931.1
611.366,1930.65
611.499,1915.85
611.632,1914.4
611.764,1916.2
611.897,1903.15
612.03,1893.95
612.162,1889.95
612.295,1887.55
612.428,1888.55
612.56,1893.45
612.693,1881.55
612.825,1874.75
612.958,1875.85
613.091,1867.1
613.223,1861.5
613.356,1854.75
613.488,1850.85
613.621,1841.4
613.754,1831.45
613.886,1827.4
614.019,1823.2
614.151,1811.1
614.284,1803.35
614.416,1802.7
614.549,1798.9
614.681,1793.65
614.814,1776.95
614.947,1782.2
615.079,1766.45
615.212,1759.8
615.344,1750.7
615.477,1734.2
615.609,1737.2
615.742,1725.15
615.874,1726.85
616.007,1719.65
616.139,1714.35
616.272,1706.55
616.404,1705.05
616.537,1692.15
616.669,1694.8
616.802,1690.8
616.934,1676.8
617.067,1681.2
617.199,1677.8
617.332,1674.55
617.464,1671.5
617.596,1660.65
617.729,1651.7
617.861,1658.8
617.994,1650.35
618.126,1648.85
618.259,1652.95
618.391,1637.7
618.524,1635.95
618.656,1627.3
618.788,1620.05
618.921,1620.25
619.053,1614.85
619.186,1617.75
619.318,1612.6
619.45,1609.45
619.583,1605.5
619.715,1600.35
619.848,1601.1
619.98,1594.5
620.112,1584.55
620.245,1583.4
620.377,1582.9
620.509,1578.05
620.642,1577.1
620.774,1571.05
620.907,1580.0
621.039,1572.9
621.171,1575.85
621.304,1575.3
621.436,1572.15
621.568,1570.45
621.701,1578.35
621.833,1576.1
621.965,1580.4
622.097,1587.75
622.23,1580.1
622.362,1588.35
622.494,1579.7
622.627,1580.65
622.759,1573.9
622.891,1572.6
623.024,1561.75
623.156,1556.65
623.288,1549.2
623.42,1551.15
623.553,1554.95
623.685,1546.85
623.817,1541.35
623.949,1545.45
624.082,1547.6
624.214,1548.4
624.346,1546.25
624.479,1544.1
624.611,1535.6
624.743,1539.55
624.875,1540.6
625.007,1534.9
625.14,1536.5
625.272,1531.15
625.404,1536.25
625.536,1537.05
625.669,1532.95
625.801,1534.1
625.933,1542.05
626.065,1538.3
626.197,1548.25
626.33,1556.75
626.462,1564.55
626.594,1584.6
626.726,1635.7
626.858,1715.9
626.99,1851.5
627.123,1996.1
627.255,2069.65
627.387,2042.9
627.519,1968.1
627.651,1915.15
627.783,1871.45
627.916,1842.1
628.048,1826.9
628.18,1830.7
628.312,1886.35
628.444,2017.0
628.576,2159.7
628.708,2073.4
628.84,1945.35
628.973,1879.95
629.105,1850.05
629.237,1856.5
629.369,1822.6
629.501,1808.4
629.633,1786.85
629.765,1763.8
629.897,1738.7
630.029,1738.55
630.161,1730.4
630.294,1731.85
630.426,1730.45
630.558,1730.55
630.69,1708.8
630.822,1689.8
630.954,1668.7
631.086,1635.4
631.218,1613.9
631.35,1598.4
631.482,1591.2
631.614,1583.4
631.746,1587.5
631.878,1587.05
632.01,1580.1
632.142,1578.35
632.274,1580.65
632.406,1570.85
632.538,1566.2
632.67,1571.6
632.802,1580.9
632.934,1566.65
633.066,1566.8
633.198,1574.6
633.33,1570.35
633.462,1577.85
633.594,1571.05
633.726,1570.15
633.858,1577.6
633.99,1574.9
634.122,1573.9
634.254,1576.9
634.386,1580.1
634.518,1581.55
634.65,1574.0
634.782,1585.05
634.914,1576.35
635.046,1580.95
635.178,1580.4
635.31,1588.8
635.442,1596.65
635.574,1586.55
635.706,1582.0
635.838,1592.55
635.97,1589.7
636.102,1590.25
636.234,1594.1
636.365,1598.5
636.497,1592.6
636.629,1595.0
636.761,1591.95
636.893,1595.75
637.025,1596.2
637.157,1587.65
637.289,1595.5
637.421,1592.45
637.553,1595.9
637.685,1599.35
637.816,1597.7
637.948,1592.05
638.08,1604.5
638.212,1604.1
638.344,1604.45
638.476,1605.55
638.608,1603.5
638.74,1608.6
638.871,1609.15
639.003,1609.9
639.135,1606.4
639.267,1614.3
639.399,1623.85
639.531,1609.45
639.662,1617.35
639.794,1619.85
639.926,1625.8
640.058,1624.7
640.19,1630.2
640.322,1626.15
640.453,1631.4
640.585,1633.45
640.717,1637.1
640.849,1631.2
640.981,1636.35
641.113,1640.75
641.244,1648.1
641.376,1645.6
641.508,1648.45
641.64,1651.6
641.772,1644.9
641.903,1655.25
642.035,1660.8
642.167,1663.55
642.299,1658.1
642.43,1656.25
642.562,1665.8
642.694,1657.2
642.826,1671.65
642.958,1670.45
643.089,1662.65
643.221,1670.6
643.353,1662.5
643.485,1676.6
643.616,1669.45
643.748,1672.25
643.88,1669.25
644.012,1671.9
644.143,1677.5
644.275,1674.4
644.407,1677.35
644.538,1679.4
644.67,1680.95
644.802,1676.35
644.934,1673.8
645.065,1675.2
645.197,1688.1
645.329,1682.95
645.461,1678.95
645.592,1679.7
645.724,1686.5
645.856,1682.35
645.987,1694.2
646.119,1684.3
646.251,1692.25
646.382,1689.7
646.514,1697.0
646.646,1688.85
646.777,1700.6
646.909,1697.45
647.041,1699.2
647.172,1698.5
647.304,1703.65
647.436,1697.45
647.567,1705.3
647.699,1701.85
647.831,1703.6
647.962,1701.0
648.094,1692.2
648.226,1703.9
648.357,1700.15
648.489,1702.65
648.621,1696.2
648.752,1696.3
648.884,1691.55
649.016,1697.4
649.147,1698.05
649.279,1704.4
649.411,1695.1
649.542,1697.8
649.674,1701.45
649.805,1700.6
649.937,1695.7
650.069,1694.95
650.2,1696.5
650.332,1697.3
650.463,1693.7
650.595,1699.05
650.727,1693.15
650.858,1704.9
650.99,1694.1
651.121,1694.6
651.253,1689.6
651.385,1707.0
651.516,1706.85
651.648,1704.85
651.779,1714.4
651.911,1716.75
652.043,1710.75
652.174,1713.3
652.306,1716.65
652.437,1714.25
652.569,1717.6
652.7,1713.9
652.832,1716.95
652.963,1715.9
653.095,1719.4
653.227,1721.0
653.358,1725.15
653.49,1726.55
653.621,1725.7
653.753,1725.9
653.884,1728.4
654.016,1726.0
654.147,1713.95
654.279,1723.0
654.41,1719.45
654.542,1722.05
654.674,1717.3
654.805,1706.6
654.937,1717.35
655.068,1713.35
655.2,1705.25
655.331,1708.05
655.463,1707.75
655.594,1699.1
655.726,1689.2
655.857,1687.2
655.989,1689.5
656.12,1685.0
656.252,1685.1
656.383,1674.15
656.515,1679.95
656.646,1673.95
656.778,1676.2
656.909,1677.5
657.041,1666.9
657.172,1665.0
657.304,1654.15
657.435,1650.2
657.567,1648.35
657.698,1640.25
657.829,1633.15
657.961,1638.4
658.092,1629.1
658.224,1628.1
658.355,1621.45
658.487,1615.45
658.618,1609.5
658.75,1604.2
658.881,1590.0
659.013,1584.75
659.144,1583.3
659.275,1575.6
659.407,1570.75
659.538,1560.2
659.67,1554.65
659.801,1553.1
659.933,1547.4
660.064,1535.75
660.196,1525.1
660.327,1522.5
660.458,1517.7
660.59,1504.55
660.721,1499.5
660.853,1489.05
660.984,1481.65
661.116,1478.1
661.247,1475.35
661.378,1460.6
661.51,1458.0
661.641,1448.8
661.773,1441.15
661.904,1445.65
662.035,1431.4
662.167,1419.0
662.298,1419.7
662.43,1411.65
662.561,1400.75
662.692,1401.25
662.824,1393.0
662.955,1394.6
663.087,1376.85