File: spectra/VLFR_01-LDPE_nobio_Raman_f0b03248.csv
nm,Intensity
526.486,830.0
526.622,831.3
526.759,829.9
526.896,830.9
527.033,830.7
527.169,829.8
527.306,829.2
527.443,830.5
527.579,829.5
527.716,830.1
527.853,829.4
527.989,830.3
528.126,830.7
528.263,829.9
528.399,830.1
528.536,829.4
528.672,830.2
528.809,830.4
528.946,829.4
529.082,829.1
529.219,829.6
529.355,829.2
529.492,829.7
529.628,830.0
529.765,829.7
529.901,829.2
530.038,830.1
530.174,830.4
530.311,830.0
530.447,830.7
530.584,829.5
530.72,829.4
530.857,829.1
530.993,830.0
531.13,829.3
531.266,830.4
531.403,829.1
531.539,831.3
531.676,828.8
531.812,831.2
531.948,830.8
532.085,854.3
532.221,871.7
532.358,842.9
532.494,830.7
532.63,828.8
532.767,829.7
532.903,828.0
533.039,830.7
533.176,829.5
533.312,830.7
533.448,830.2
533.585,830.5
533.721,833.3
533.857,838.2
533.993,856.4
534.13,865.8
534.266,867.9
534.402,861.5
534.539,864.2
534.675,863.2
534.811,862.7
534.947,860.8
535.083,859.5
535.22,858.1
535.356,857.8
535.492,856.2
535.628,855.7
535.764,856.6
535.901,855.2
536.037,852.2
536.173,851.5
536.309,852.6
536.445,851.3
536.581,850.3
536.717,850.7
536.854,851.1
536.99,850.7
537.126,852.0
537.262,848.9
537.398,850.9
537.534,850.8
537.67,850.0
537.806,849.0
537.942,847.3
538.078,849.0
538.214,848.7
538.35,850.6
538.486,846.3
538.622,848.5
538.758,849.3
538.894,847.9
539.03,847.4
539.166,847.6
539.302,847.3
539.438,847.7
539.574,847.0
539.71,846.5
539.846,845.6
539.982,848.0
540.118,846.3
540.254,847.9
540.39,845.9
540.526,846.4
540.662,847.9
540.798,849.6
540.933,850.1
541.069,852.7
541.205,851.1
541.341,851.9
541.477,850.8
541.613,852.2
541.749,854.8
541.884,849.6
542.02,852.6
542.156,852.5
542.292,851.7
542.428,853.3
542.563,852.9
542.699,853.7
542.835,852.2
542.971,851.2
543.106,855.2
543.242,851.6
543.378,850.5
543.514,849.3
543.649,848.4
543.785,849.3
543.921,846.1
544.057,850.3
544.192,848.8
544.328,849.3
544.464,848.5
544.599,852.2
544.735,851.2
544.871,852.8
545.006,852.5
545.142,849.6
545.278,851.8
545.413,855.4
545.549,854.4
545.684,851.8
545.82,849.8
545.956,848.1
546.091,848.0
546.227,848.8
546.362,850.6
546.498,849.3
546.634,849.2
546.769,847.1
546.905,849.1
547.04,848.9
547.176,846.3
547.311,847.2
547.447,849.7
547.582,848.5
547.718,847.6
547.853,847.1
547.989,849.7
548.124,847.2
548.26,846.5
548.395,849.0
548.531,848.5
548.666,848.6
548.802,846.8
548.937,849.0
549.072,849.3
549.208,847.7
549.343,847.0
549.479,849.8
549.614,848.4
549.75,846.8
549.885,849.6
550.02,848.6
550.156,848.5
550.291,849.4
550.426,848.9
550.562,846.3
550.697,846.6
550.832,847.9
550.968,845.6
551.103,847.6
551.238,847.2
551.374,847.6
551.509,848.1
551.644,847.3
551.78,847.4
551.915,846.2
552.05,846.8
552.185,846.2
552.321,849.3
552.456,846.8
552.591,847.5
552.726,847.5
552.862,845.6
552.997,849.8
553.132,846.9
553.267,846.7
553.403,847.6
553.538,849.3
553.673,847.5
553.808,849.0
553.943,846.4
554.078,849.5
554.214,847.7
554.349,847.8
554.484,848.5
554.619,849.5
554.754,848.0
554.889,847.4
555.024,844.9
555.16,849.4
555.295,848.1
555.43,847.9
555.565,849.1
555.7,849.3
555.835,845.9
555.97,848.5
556.105,848.7
556.24,849.4
556.375,848.6
556.51,848.7
556.645,849.3
556.78,849.8
556.915,850.3
557.05,849.8
557.185,847.9
557.32,850.3
557.455,849.4
557.59,852.1
557.725,849.6
557.86,851.0
557.995,849.9
558.13,851.2
558.265,849.5
558.4,854.4
558.535,852.9
558.67,853.2
558.805,853.0
558.94,857.2
559.075,855.5
559.21,852.4
559.345,853.5
559.479,851.0
559.614,849.5
559.749,848.5
559.884,849.5
560.019,851.5
560.154,851.5
560.289,852.3
560.424,851.3
560.558,850.6
560.693,851.7
560.828,852.3
560.963,852.0
561.098,851.1
561.232,851.8
561.367,853.5
561.502,852.0
561.637,852.2
561.772,853.0
561.906,854.9
562.041,854.3
562.176,853.3
562.311,853.4
562.445,851.2
562.58,853.5
562.715,855.1
562.85,856.9
562.984,857.9
563.119,858.5
563.254,855.3
563.388,858.3
563.523,860.0
563.658,861.8
563.792,863.4
563.927,869.3
564.062,878.5
564.196,877.1
564.331,868.1
564.466,867.4
564.6,870.6
564.735,875.4
564.87,878.8
565.004,888.6
565.139,893.5
565.273,890.9
565.408,877.5
565.543,872.0
565.677,872.3
565.812,873.6
565.946,876.3
566.081,879.4
566.215,883.7
566.35,871.7
566.485,865.1
566.619,863.2
566.754,861.0
566.888,863.2
567.023,860.2
567.157,858.1
567.292,856.6
567.426,858.2
567.561,857.5
567.695,858.6
567.83,857.6
567.964,857.8
568.099,855.3
568.233,854.5
568.368,857.3
568.502,856.9
568.636,858.1
568.771,856.8
568.905,855.9
569.04,856.4
569.174,856.1
569.309,857.4
569.443,858.8
569.577,858.8
569.712,861.1
569.846,859.2
569.98,856.8
570.115,861.0
570.249,859.8
570.384,860.0
570.518,862.5
570.652,862.1
570.787,863.3
570.921,863.0
571.055,862.3
571.19,861.7
571.324,865.5
571.458,877.6
571.592,894.4
571.727,881.3
571.861,870.5
571.995,868.0
572.13,866.7
572.264,864.2
572.398,870.0
572.532,866.2
572.667,866.7
572.801,869.1
572.935,871.1
573.069,870.0
573.204,869.9
573.338,867.9
573.472,866.6
573.606,868.6
573.74,865.7
573.875,872.0
574.009,867.5
574.143,871.8
574.277,869.5
574.411,868.3
574.545,868.0
574.68,868.9
574.814,870.6
574.948,865.1
575.082,865.7
575.216,868.9
575.35,869.2
575.484,872.7
575.619,874.0
575.753,874.3
575.887,876.1
576.021,877.9
576.155,880.5
576.289,888.7
576.423,889.6
576.557,884.2
576.691,876.2
576.825,881.1
576.959,882.9
577.093,881.1
577.227,879.7
577.361,874.2
577.495,870.7
577.629,869.9
577.763,865.9
577.897,863.3
578.031,861.3
578.165,862.3
578.299,862.5
578.433,862.7
578.567,863.5
578.701,859.5
578.835,861.9
578.969,858.3
579.103,863.2
579.237,862.6
579.371,862.6
579.505,863.0
579.639,861.7
579.773,863.0
579.907,860.0
580.041,861.5
580.175,863.0
580.309,862.2
580.442,863.4
580.576,861.5
580.71,860.0
580.844,863.3
580.978,864.0
581.112,867.3
581.246,864.3
581.38,866.4
581.513,868.3
581.647,871.1
581.781,869.7
581.915,870.9
582.049,868.6
582.183,866.2
582.316,867.4
582.45,866.1
582.584,865.9
582.718,868.3
582.852,867.9
582.985,864.6
583.119,866.9
583.253,866.4
583.387,868.0
583.52,866.0
583.654,864.7
583.788,868.4
583.922,862.0
584.055,870.8
584.189,866.6
584.323,865.6
584.456,868.9
584.59,865.3
584.724,868.9
584.858,866.7
584.991,868.5
585.125,870.8
585.259,866.4
585.392,869.1
585.526,870.9
585.66,869.8
585.793,872.0
585.927,873.3
586.061,871.9
586.194,871.0
586.328,876.8
586.462,873.9
586.595,875.1
586.729,876.7
586.862,875.3
586.996,876.3
587.13,878.6
587.263,874.8
587.397,880.2
587.53,879.9
587.664,879.4
587.797,879.1
587.931,879.4
588.065,882.7
588.198,880.6
588.332,880.2
588.465,881.4
588.599,882.0
588.732,881.8
588.866,885.4
588.999,882.6
589.133,883.5
589.266,884.7
589.4,885.6
589.533,887.9
589.667,884.5
589.8,885.0
589.934,890.5
590.067,891.0
590.201,889.0
590.334,888.9
590.468,890.5
590.601,892.4
590.735,889.8
590.868,892.7
591.001,894.2
591.135,893.4
591.268,896.1
591.402,896.6
591.535,894.8
591.669,897.5
591.802,897.9
591.935,898.7
592.069,897.6
592.202,902.4
592.335,899.8
592.469,900.5
592.602,896.5
592.736,899.2
592.869,901.0
593.002,903.7
593.136,901.8
593.269,902.9
593.402,908.1
593.536,903.5
593.669,908.7
593.802,909.6
593.936,907.9
594.069,911.4
594.202,909.9
594.336,909.5
594.469,909.5
594.602,915.6
594.735,911.4
594.869,914.1
595.002,914.7
595.135,915.9
595.268,919.0
595.402,921.3
595.535,918.6
595.668,923.3
595.801,923.4
595.935,924.3
596.068,922.6
596.201,926.6
596.334,926.7
596.468,930.8
596.601,929.9
596.734,931.1
596.867,933.8
597.0,932.7
597.133,934.9
597.267,934.0
597.4,940.9
597.533,940.8
597.666,942.1
597.799,943.5
597.932,940.5
598.066,947.9
598.199,944.2
598.332,951.7
598.465,952.6
598.598,950.8
598.731,951.7
598.864,949.0
598.998,955.8
599.131,957.6
599.264,957.7
599.397,959.8
599.53,956.4
599.663,960.0
599.796,964.9
599.929,962.1
600.062,960.8
600.195,966.6
600.328,960.9
600.461,968.8
600.594,961.2
600.727,962.3
600.86,959.6
600.994,965.7
601.127,963.5
601.26,966.0
601.393,969.0
601.526,965.9
601.659,965.7
601.792,965.5
601.925,966.5
602.058,969.4
602.191,961.8
602.324,966.9
602.457,965.6
602.589,963.9
602.722,965.9
602.855,964.4
602.988,966.6
603.121,963.3
603.254,962.5
603.387,960.1
603.52,959.1
603.653,961.9
603.786,958.6
603.919,961.3
604.052,959.1
604.185,956.8
604.318,957.4
604.451,956.3
604.583,957.8
604.716,954.2
604.849,952.0
604.982,954.3
605.115,952.2
605.248,947.2
605.381,946.7
605.514,948.3
605.646,947.2
605.779,943.4
605.912,948.6
606.045,946.9
606.178,939.0
606.311,941.3
606.443,941.1
606.576,938.4
606.709,936.7
606.842,937.7
606.975,940.0
607.107,935.7
607.24,936.9
607.373,934.4
607.506,933.7
607.639,936.4
607.771,935.3
607.904,934.9
608.037,932.3
608.17,930.3
608.302,932.1
608.435,930.7
608.568,933.4
608.701,933.0
608.833,932.9
608.966,926.2
609.099,930.4
609.232,931.3
609.364,928.0
609.497,928.8
609.63,932.9
609.762,930.8
609.895,930.9
610.028,930.6
610.161,930.9
610.293,930.1
610.426,930.5
610.559,925.7
610.691,927.2
610.824,930.9
610.957,927.4
611.089,924.9
611.222,927.3
611.355,924.4
611.487,925.9
611.62,928.2
611.752,926.2
611.885,927.9
612.018,926.4
612.15,929.4
612.283,921.2
612.416,923.7
612.548,932.6
612.681,927.5
612.813,925.4
612.946,924.4
613.078,926.2
613.211,927.8
613.344,922.6
613.476,926.7
613.609,924.1
613.741,930.2
613.874,926.4
614.006,923.5
614.139,927.1
614.272,922.8
614.404,927.4
614.537,922.2
614.669,925.7
614.802,927.3
614.934,924.8
615.067,924.2
615.199,926.5
615.332,925.0
615.464,922.6
615.597,921.6
615.729,918.3
615.862,925.4
615.994,922.1
616.127,924.3
616.259,921.3
616.392,925.5
616.524,922.2
616.657,922.6
616.789,924.9
616.922,923.1
617.054,923.3
617.186,924.7
617.319,924.8
617.451,924.5
617.584,925.9
617.716,923.9
617.849,920.9
617.981,925.6
618.113,918.9
618.246,919.4
618.378,923.7
618.511,920.9
618.643,921.3
618.775,922.5
618.908,919.8
619.04,921.9
619.173,927.1
619.305,920.8
619.437,921.2
619.57,920.8
619.702,921.5
619.834,921.6
619.967,919.3
620.099,919.6
620.231,920.9
620.364,922.9
620.496,921.1
620.628,922.6
620.761,922.7
620.893,922.5
621.025,922.6
621.158,920.5
621.29,923.1
621.422,921.7
621.555,927.0
621.687,920.3
621.819,925.6
621.952,924.7
622.084,926.4
622.216,926.0
622.348,928.8
622.481,930.1
622.613,927.8
622.745,926.8
622.878,923.7
623.01,924.4
623.142,919.7
623.274,922.4
623.407,924.8
623.539,922.3
623.671,916.3
623.803,922.7
623.935,919.3
624.068,926.6
624.2,924.1
624.332,918.8
624.464,920.8
624.597,919.7
624.729,922.6
624.861,914.5
624.993,922.4
625.125,918.0
625.258,923.1
625.39,920.1
625.522,922.9
625.654,920.5
625.786,919.6
625.918,927.3
626.051,922.9
626.183,921.2
626.315,924.1
626.447,931.7
626.579,934.5
626.711,945.2
626.844,966.1
626.976,991.7
627.108,1031.0
627.24,1054.8
627.372,1044.1
627.504,1027.8
627.636,1017.2
627.768,1007.4
627.901,1004.2
628.033,995.0
628.165,994.8
628.297,1012.2
628.429,1031.3
628.561,1074.9
628.693,1069.8
628.825,1034.9
628.957,1020.7
629.089,1020.0
629.221,1009.9
629.354,1008.2
629.486,1001.4
629.618,990.7
629.75,988.5
629.882,985.0
630.014,976.8
630.146,971.9
630.278,973.2
630.41,972.1
630.542,973.6
630.674,970.9
630.806,963.6
630.938,957.2
631.07,951.6
631.202,944.6
631.334,933.8
631.466,937.0
631.598,937.2
631.73,938.2
631.862,935.1
631.994,936.1
632.126,935.3
632.258,927.1
632.39,926.4
632.522,926.6
632.654,924.6
632.786,922.1
632.918,919.7
633.05,916.6
633.182,918.0
633.314,916.0
633.446,919.8
633.578,917.1
633.71,913.8
633.842,913.4
633.974,914.5
634.106,913.3
634.237,910.1
634.369,911.0
634.501,913.7
634.633,910.9
634.765,914.0
634.897,912.6
635.029,908.8
635.161,913.7
635.293,913.8
635.425,917.9
635.557,915.6
635.689,910.7
635.82,910.7
635.952,916.7
636.084,912.7
636.216,913.2
636.348,914.9
636.48,914.3
636.612,916.1
636.744,912.7
636.875,920.0
637.007,914.2
637.139,915.3
637.271,916.0
637.403,915.8
637.535,914.3
637.667,914.6
637.798,914.5
637.93,918.1
638.062,913.4
638.194,916.9
638.326,919.6
638.458,915.5
638.589,919.7
638.721,912.9
638.853,918.4
638.985,912.0
639.117,920.6
639.248,919.2
639.38,913.1
639.512,917.6
639.644,918.0
639.776,918.7
639.907,919.8
640.039,920.7
640.171,917.6
640.303,915.4
640.435,922.4
640.566,915.9
640.698,921.0
640.83,922.0
640.962,922.3
641.093,925.4
641.225,922.5
641.357,921.4
641.489,917.2
641.62,921.8
641.752,926.4
641.884,922.7
642.016,926.8
642.147,926.5
642.279,923.0
642.411,925.8
642.543,924.4
642.674,926.6
642.806,926.3
642.938,929.3
643.069,925.7
643.201,926.1
643.333,923.0
643.465,924.4
643.596,925.6
643.728,925.9
643.86,925.2
643.991,930.5
644.123,927.9
644.255,926.3
644.386,931.4
644.518,929.2
644.65,933.4
644.781,933.9
644.913,929.7
645.045,929.0
645.176,932.4
645.308,929.5
645.44,932.2
645.571,935.4
645.703,934.4
645.835,930.8
645.966,932.4
646.098,935.5
646.23,935.6
646.361,934.0
646.493,931.4
646.625,937.3
646.756,938.8
646.888,938.4
647.019,932.7
647.151,937.9
647.283,940.5
647.414,936.3
647.546,939.8
647.678,939.3
647.809,939.8
647.941,936.1
648.072,938.0
648.204,940.5
648.336,940.7
648.467,939.9
648.599,944.3
648.73,943.1
648.862,942.5
648.993,942.2
649.125,940.2
649.257,942.8
649.388,943.7
649.52,941.1
649.651,944.3
649.783,943.7
649.914,941.6
650.046,948.1
650.178,943.4
650.309,943.5
650.441,943.1
650.572,943.0
650.704,942.5
650.835,946.8
650.967,946.1
651.098,945.6
651.23,948.6
651.361,946.3
651.493,950.4
651.625,948.0
651.756,947.3
651.888,948.3
652.019,948.9
652.151,947.5
652.282,943.1
652.414,946.3
652.545,947.9
652.677,950.8
652.808,947.7
652.94,949.7
653.071,950.9
653.203,951.7
653.334,948.8
653.466,949.9
653.597,946.8
653.729,944.8
653.86,952.9
653.992,949.5
654.123,949.3
654.255,950.1
654.386,946.4
654.518,951.8
654.649,947.2
654.78,947.9
654.912,951.7
655.043,951.3
655.175,950.0
655.306,949.9
655.438,954.7
655.569,952.7
655.701,947.7
655.832,952.6
655.964,946.0
656.095,947.9
656.226,942.8
656.358,957.6
656.489,950.8
656.621,951.6
656.752,948.0
656.884,945.5
657.015,951.8
657.146,947.7
657.278,950.1
657.409,949.8
657.541,949.7
657.672,945.0
657.804,947.6
657.935,950.8
658.066,951.0
658.198,951.9
658.329,944.6
658.461,948.3
658.592,951.2
658.723,947.4
658.855,951.4
658.986,944.5
659.118,945.1
659.249,947.3
659.38,949.8
659.512,951.6
659.643,944.9
659.774,949.2
659.906,948.8
660.037,944.2
660.169,942.7
660.3,947.4
660.431,942.9
660.563,943.9
660.694,942.5
660.825,940.0
660.957,940.9
661.088,941.2
661.22,943.2
661.351,938.7
661.482,938.9
661.614,936.7
661.745,942.2
661.876,941.2
662.008,940.7
662.139,933.3
662.27,936.5
662.402,936.9
662.533,940.3
662.664,938.8
662.796,935.3
662.927,932.5
663.058,933.9