File: spectra/VLFR_06-PET_bio_Raman_1c48e8c0.csv
nm,Intensity
528.626,1862.9
528.795,1864.2
528.963,1864.3
529.132,1863.5
529.3,1864.7
529.469,1863.4
529.637,1864.25
529.806,1863.65
529.974,1863.7
530.143,1865.9
530.311,1864.7
530.48,1863.8
530.648,1864.45
530.816,1865.25
530.985,1865.0
531.153,1867.05
531.322,1869.0
531.49,1873.85
531.658,1908.65
531.827,2535.6
531.995,4451.95
532.164,4277.55
532.332,2340.4
532.5,1871.0
532.669,1869.0
532.837,1867.3
533.006,1868.75
533.174,1869.1
533.342,1879.45
533.511,1964.35
533.679,2533.85
533.847,3638.05
534.016,4362.25
534.184,4363.6
534.352,4198.05
534.521,3961.4
534.689,3778.7
534.857,3653.05
535.025,3511.05
535.194,3356.15
535.362,3259.5
535.53,3091.55
535.699,2980.05
535.867,2885.95
536.035,2821.65
536.203,2747.6
536.372,2719.9
536.54,2671.95
536.708,2668.65
536.876,2662.3
537.044,2649.85
537.213,2654.55
537.381,2640.65
537.549,2647.6
537.717,2642.85
537.885,2661.55
538.054,2636.65
538.222,2664.95
538.39,2657.3
538.558,2663.95
538.726,2671.9
538.894,2673.75
539.063,2677.7
539.231,2689.25
539.399,2731.4
539.567,2745.7
539.735,2770.3
539.903,2794.55
540.071,2797.95
540.239,2740.1
540.408,2708.75
540.576,2699.1
540.744,2681.2
540.912,2655.7
541.08,2714.95
541.248,2672.9
541.416,2647.55
541.584,2651.3
541.752,2665.55
541.92,2679.75
542.088,2691.95
542.256,2686.95
542.424,2705.2
542.592,2706.65
542.76,2712.6
542.928,2722.15
543.096,2713.8
543.264,2731.7
543.432,2718.55
543.6,2736.25
543.768,2717.9
543.936,2751.7
544.104,2743.4
544.272,2725.8
544.44,2711.55
544.608,2731.45
544.776,2744.3
544.944,2754.25
545.112,2751.65
545.28,2764.0
545.448,2766.7
545.616,2757.8
545.784,2775.95
545.951,2782.45
546.119,2790.05
546.287,2774.2
546.455,2769.05
546.623,2780.8
546.791,2774.35
546.959,2815.15
547.127,2798.5
547.294,2805.15
547.462,2791.85
547.63,2820.0
547.798,2811.45
547.966,2816.8
548.134,2832.1
548.301,2824.7
548.469,2837.45
548.637,2856.55
548.805,2861.45
548.972,2824.7
549.14,2843.9
549.308,2858.35
549.476,2853.9
549.644,2869.95
549.811,2861.7
549.979,2883.05
550.147,2858.1
550.315,2912.8
550.482,3100.75
550.65,3262.4
550.818,3126.3
550.985,2932.85
551.153,2922.95
551.321,2910.75
551.488,2945.3
551.656,2966.85
551.824,2952.8
551.991,2969.45
552.159,2977.4
552.327,2976.7
552.494,2983.05
552.662,3058.05
552.83,3106.35
552.997,3065.15
553.165,3023.55
553.333,2995.45
553.5,2985.6
553.668,2999.15
553.835,2976.2
554.003,2974.3
554.171,3002.6
554.338,3012.2
554.506,3030.35
554.673,3000.6
554.841,3023.45
555.008,3071.6
555.176,3067.15
555.343,3112.2
555.511,3161.15
555.679,3206.35
555.846,3207.9
556.014,3204.0
556.181,3191.75
556.349,3215.95
556.516,3238.75
556.684,3227.2
556.851,3258.35
557.018,3289.45
557.186,3404.45
557.353,3608.25
557.521,3703.85
557.688,3608.3
557.856,3439.5
558.023,3364.7
558.191,3334.25
558.358,3349.75
558.525,3289.6
558.693,3270.05
558.86,3269.2
559.028,3236.35
559.195,3196.6
559.362,3201.5
559.53,3168.2
559.697,3177.05
559.864,3175.8
560.032,3214.85
560.199,3161.85
560.366,3209.55
560.534,3218.25
560.701,3207.8
560.868,3208.2
561.036,3248.2
561.203,3266.3
561.37,3262.5
561.538,3285.75
561.705,3272.6
561.872,3277.2
562.039,3340.45
562.207,3355.8
562.374,3360.05
562.541,3332.65
562.708,3348.0
562.876,3368.75
563.043,3357.05
563.21,3356.95
563.377,3352.4
563.545,3358.4
563.712,3376.1
563.879,3314.8
564.046,3378.65
564.213,3365.6
564.38,3377.55
564.548,3429.3
564.715,3477.55
564.882,3523.55
565.049,3586.8
565.216,3646.35
565.383,3671.45
565.551,3719.9
565.718,3771.05
565.885,3767.95
566.052,3673.65
566.219,3619.3
566.386,3523.45
566.553,3508.3
566.72,3458.35
566.887,3449.75
567.054,3481.8
567.221,3491.2
567.388,3537.35
567.555,3646.8
567.722,3699.1
567.889,3639.6
568.057,3566.75
568.224,3581.9
568.391,3558.8
568.558,3523.15
568.725,3520.2
568.892,3548.75
569.058,3561.5
569.225,3555.45
569.392,3591.35
569.559,3597.45
569.726,3655.3
569.893,3667.9
570.06,3699.35
570.227,3761.95
570.394,3834.8
570.561,3943.0
570.728,4056.25
570.895,4205.0
571.062,4397.85
571.229,4458.15
571.395,4441.4
571.562,4318.85
571.729,4163.55
571.896,4062.85
572.063,4018.45
572.23,3960.3
572.397,3869.3
572.563,3808.8
572.73,3803.15
572.897,3799.1
573.064,3780.35
573.231,3768.1
573.397,3781.95
573.564,3794.35
573.731,3803.25
573.898,3807.15
574.064,3847.65
574.231,3854.05
574.398,3807.6
574.565,3790.45
574.731,3816.45
574.898,3830.65
575.065,3876.1
575.232,3958.75
575.398,3942.9
575.565,3880.8
575.732,3892.2
575.898,3914.15
576.065,3914.8
576.232,3982.05
576.398,3961.05
576.565,4002.8
576.732,3979.85
576.898,3976.45
577.065,3968.15
577.232,3904.8
577.398,3929.2
577.565,3872.05
577.731,3869.05
577.898,3901.5
578.065,3878.15
578.231,3862.65
578.398,3894.7
578.564,3852.55
578.731,3925.2
578.897,3889.15
579.064,3947.9
579.23,3931.8
579.397,3981.1
579.563,3972.3
579.73,3946.3
579.896,3973.05
580.063,4007.55
580.229,4026.35
580.396,4015.65
580.562,4074.45
580.729,4067.5
580.895,4142.9
581.062,4092.0
581.228,4130.8
581.395,4234.7
581.561,4404.0
581.728,4792.7
581.894,5630.0
582.06,6748.35
582.227,6720.45
582.393,5351.05
582.56,4442.4
582.726,4208.15
582.892,4079.9
583.059,4081.15
583.225,4057.9
583.391,4081.7
583.558,4040.1
583.724,4059.2
583.89,4038.45
584.057,4078.9
584.223,4118.45
584.389,4133.8
584.556,4100.3
584.722,4088.15
584.888,4167.35
585.054,4127.4
585.221,4307.15
585.387,4517.2
585.553,4863.95
585.719,5346.05
585.886,5619.35
586.052,5648.55
586.218,5392.1
586.384,5080.55
586.55,4755.1
586.717,4436.95
586.883,4263.25
587.049,4229.55
587.215,4232.95
587.381,4149.5
587.548,4146.0
587.714,4155.65
587.88,4133.0
588.046,4145.3
588.212,4117.1
588.378,4170.6
588.544,4135.75
588.71,4112.65
588.876,4104.0
589.043,4123.95
589.209,4118.85
589.375,4085.3
589.541,4139.45
589.707,4101.1
589.873,4104.55
590.039,4141.5
590.205,4092.1
590.371,4104.85
590.537,4126.0
590.703,4145.75
590.869,4146.85
591.035,4165.8
591.201,4144.45
591.367,4178.05
591.533,4134.95
591.699,4141.4
591.865,4230.25
592.031,4178.65
592.197,4190.3
592.363,4227.55
592.529,4156.4
592.694,4172.5
592.86,4215.35
593.026,4151.3
593.192,4143.75
593.358,4195.1
593.524,4187.0
593.69,4168.95
593.856,4203.85
594.021,4180.75
594.187,4166.15
594.353,4192.9
594.519,4164.75
594.685,4190.75
594.851,4187.45
595.016,4198.2
595.182,4218.85
595.348,4236.25
595.514,4239.95
595.68,4245.1
595.845,4259.1
596.011,4198.95
596.177,4269.75
596.342,4284.95
596.508,4235.7
596.674,4285.3
596.84,4258.55
597.005,4236.55
597.171,4277.05
597.337,4222.35
597.502,4266.1
597.668,4257.4
597.834,4239.85
597.999,4241.1
598.165,4258.2
598.331,4239.9
598.496,4278.4
598.662,4299.7
598.828,4263.15
598.993,4253.35
599.159,4286.3
599.324,4324.35
599.49,4301.65
599.656,4280.5
599.821,4260.75
599.987,4354.55
600.152,4285.95
600.318,4273.25
600.483,4302.35
600.649,4321.45
600.814,4304.75
600.98,4324.7
601.145,4300.05
601.311,4315.2
601.476,4320.45
601.642,4343.25
601.807,4322.75
601.973,4321.75
602.138,4329.85
602.304,4334.0
602.469,4354.5
602.635,4320.05
602.8,4316.35
602.965,4360.7
603.131,4354.75
603.296,4314.65
603.462,4369.55
603.627,4337.35
603.792,4345.2
603.958,4362.95
604.123,4410.3
604.288,4377.9
604.454,4364.0
604.619,4333.2
604.784,4348.25
604.95,4398.75
605.115,4392.05
605.28,4319.15
605.446,4391.45
605.611,4352.4
605.776,4406.4
605.941,4356.5
606.107,4356.5
606.272,4380.5
606.437,4363.5
606.602,4393.4
606.767,4428.5
606.933,4429.9
607.098,4409.35
607.263,4382.6
607.428,4401.1
607.593,4405.3
607.759,4407.0
607.924,4367.1
608.089,4405.3
608.254,4418.95
608.419,4492.35
608.584,4458.15
608.749,4455.5
608.915,4418.5
609.08,4383.4
609.245,4405.65
609.41,4421.8
609.575,4465.0
609.74,4407.3
609.905,4459.8
610.07,4446.8
610.235,4506.25
610.4,4445.75
610.565,4448.45
610.73,4463.5
610.895,4460.45
611.06,4483.75
611.225,4478.0
611.39,4467.75
611.555,4511.65
611.72,4512.6
611.885,4455.4
612.05,4457.2
612.215,4474.3
612.38,4480.8
612.545,4527.5
612.71,4478.5
612.875,4481.05
613.04,4471.85
613.204,4466.75
613.369,4480.6
613.534,4510.25
613.699,4509.75
613.864,4516.9
614.029,4525.65
614.194,4552.6
614.358,4499.6
614.523,4518.75
614.688,4519.35
614.853,4504.1
615.018,4541.3
615.182,4571.85
615.347,4568.15
615.512,4539.7
615.677,4566.15
615.841,4508.7
616.006,4519.05
616.171,4556.05
616.336,4490.35
616.5,4589.4
616.665,4542.75
616.83,4588.75
616.994,4536.35
617.159,4556.9
617.324,4593.55
617.489,4579.35
617.653,4571.0
617.818,4595.9
617.982,4626.95
618.147,4648.3
618.312,4555.3
618.476,4546.8
618.641,4605.45
618.805,4605.35
618.97,4516.3
619.135,4685.55
619.299,4649.4
619.464,4588.15
619.628,4651.05
619.793,4590.3
619.957,4571.7
620.122,4614.7
620.286,4601.15
620.451,4639.35
620.615,4621.9
620.78,4638.45
620.944,4598.25
621.109,4528.8
621.273,4593.3
621.438,4593.45
621.602,4653.8
621.767,4647.35
621.931,4639.75
622.095,4624.25
622.26,4660.65
622.424,4613.85
622.589,4637.1
622.753,4635.85
622.917,4669.75
623.082,4670.2
623.246,4608.3
623.41,4708.35
623.575,4719.2
623.739,4656.4
623.903,4646.15
624.068,4643.25
624.232,4675.3
624.396,4687.65
624.561,4762.85
624.725,4755.8
624.889,4657.1
625.053,4699.45
625.218,4624.45
625.382,4735.8
625.546,4727.25
625.71,4649.5
625.875,4684.55
626.039,4702.25
626.203,4676.55
626.367,4630.35
626.531,4704.3
626.695,4647.7
626.86,4739.7
627.024,4687.3
627.188,4712.25
627.352,4624.25
627.516,4763.75
627.68,4738.25
627.844,4726.35
628.008,4773.3
628.172,4774.1
628.337,4760.2
628.501,4752.5
628.665,4783.65
628.829,4850.4
628.993,4814.95
629.157,4901.15
629.321,4823.05
629.485,4848.0
629.649,4781.75
629.813,4843.95
629.977,4832.6
630.141,4792.55
630.305,4776.0
630.469,4844.1
630.633,4776.1
630.797,4867.65
630.96,4920.2
631.124,5066.7
631.288,5068.95
631.452,5143.3
631.616,5226.6
631.78,5216.65
631.944,5210.85
632.108,5162.5
632.272,5147.85
632.435,5099.35
632.599,5068.25
632.763,5093.4
632.927,5053.8
633.091,5025.3
633.254,5019.5
633.418,4993.55
633.582,4999.85
633.746,5014.2
633.91,4964.45
634.073,4910.7
634.237,4907.4
634.401,4897.75
634.564,4893.3
634.728,4905.3
634.892,4919.6
635.056,4877.45
635.219,4933.25
635.383,4919.7
635.547,4919.45
635.71,4980.7
635.874,5059.3
636.038,5101.0
636.201,5207.7
636.365,5381.55
636.528,5389.25
636.692,5405.35
636.856,5216.5
637.019,5055.75
637.183,5068.0
637.346,5023.4
637.51,4960.6
637.673,4877.7
637.837,4862.2
638.0,4861.1
638.164,4987.05
638.327,4958.5
638.491,4874.1
638.654,4908.85
638.818,4906.15
638.981,4860.55
639.145,4836.45
639.308,4919.6
639.472,4936.9
639.635,4856.2
639.799,4844.8
639.962,4888.25
640.125,4897.05
640.289,4839.75
640.452,4870.5
640.616,4884.6
640.779,4779.45
640.942,4749.35
641.106,4861.6
641.269,4944.0
641.432,4796.4
641.596,4904.55
641.759,4782.3
641.922,4856.9
642.085,4794.7
642.249,4891.7
642.412,4921.1
642.575,4911.35
642.738,4892.0
642.902,4815.7
643.065,4876.2
643.228,4812.65
643.391,4804.9
643.555,4867.25
643.718,4865.0
643.881,4917.7
644.044,4848.85
644.207,4842.45
644.37,4839.85
644.534,4712.6
644.697,4742.8
644.86,4848.95
645.023,4876.45
645.186,4855.0
645.349,4814.4
645.512,4823.3
645.675,4887.25
645.838,4834.6
646.001,4747.75
646.164,4811.55
646.327,4799.1
646.49,4779.75
646.653,4820.55
646.816,4748.9
646.979,4764.8
647.142,4807.25
647.305,4863.95
647.468,4785.25
647.631,4771.5
647.794,4729.75
647.957,4732.5
648.12,4763.95
648.283,4735.15
648.446,4702.45
648.609,4674.4
648.772,4740.9
648.935,4827.2
649.098,4704.2
649.26,4679.35
649.423,4679.35
649.586,4595.6
649.749,4731.75
649.912,4734.15
650.075,4636.85
650.237,4692.1
650.4,4641.3
650.563,4685.4
650.726,4615.35
650.888,4621.8
651.051,4580.15
651.214,4699.6
651.377,4674.55
651.539,4594.75
651.702,4671.9
651.865,4616.6
652.027,4596.55
652.19,4631.15
652.353,4527.9
652.515,4608.1
652.678,4598.8
652.841,4517.5
653.003,4545.3
653.166,4455.2
653.329,4490.75
653.491,4560.9
653.654,4418.3
653.816,4542.6
653.979,4468.65
654.142,4431.9
654.304,4472.45
654.467,4378.35
654.629,4400.35
654.792,4457.75
654.954,4414.2
655.117,4449.65
655.279,4447.85
655.442,4466.7
655.604,4436.35
655.767,4408.1
655.929,4409.3
656.091,4333.3
656.254,4301.6
656.416,4386.9
656.579,4429.65
656.741,4373.25
656.904,4369.5
657.066,4313.75
657.228,4257.75
657.391,4270.55
657.553,4315.45
657.715,4253.2
657.878,4299.45
658.04,4199.95
658.202,4219.0
658.365,4209.15
658.527,4244.3
658.689,4251.6
658.851,4273.05
659.014,4160.3
659.176,4146.75
659.338,4127.75
659.5,4211.55
659.663,4179.45
659.825,4135.65
659.987,4118.65
660.149,4149.6
660.311,4160.35
660.474,4053.1
660.636,4119.6
660.798,4134.75
660.96,4100.1
661.041,4069.9