File: spectra/VLFR_08-PLA_nobio_Raman_34860665.csv
cm-1,Intensity
-123.878,1853.15
-117.855,1853.55
-111.836,1853.7
-105.821,1855.2
-99.8104,1853.75
-93.8036,1854.2
-87.8007,1853.55
-81.8019,1853.9
-75.807,1854.65
-69.8161,1853.95
-63.8293,1853.95
-57.8464,1854.35
-51.8675,1853.2
-45.8926,1854.2
-39.9216,1855.65
-33.9547,1857.3
-27.9917,1857.3
-22.0326,1859.95
-16.0776,1886.35
-10.1265,2326.8
-4.17932,3778.35
1.76388,3284.7
7.70313,1992.1
13.6384,1857.55
19.5698,1855.8
25.4972,1855.35
31.4207,1856.9
37.3403,1855.3
43.256,1858.3
49.1677,1882.7
55.0755,2009.7
60.9794,2252.4
66.8794,2373.25
72.7754,2407.75
78.6676,2379.95
84.5559,2365.75
90.4402,2361.1
96.3207,2355.6
102.197,2343.25
108.07,2340.7
113.939,2344.35
119.804,2333.3
125.665,2298.35
131.522,2312.45
137.375,2285.95
143.225,2305.45
149.07,2319.4
154.912,2323.5
160.75,2333.2
166.584,2318.85
172.414,2314.35
178.241,2304.25
184.063,2327.85
189.882,2318.65
195.697,2324.9
201.508,2326.5
207.315,2318.1
213.119,2318.8
218.918,2303.35
224.714,2301.1
230.506,2308.95
236.294,2305.05
242.078,2309.75
247.859,2313.4
253.636,2301.6
259.409,2315.65
265.178,2308.4
270.943,2290.55
276.705,2306.25
282.463,2337.15
288.217,2348.3
293.967,2362.15
299.713,2353.7
305.456,2368.2
311.195,2353.45
316.93,2369.4
322.662,2350.05
328.389,2355.95
334.113,2345.3
339.834,2339.2
345.55,2345.5
351.263,2345.05
356.972,2350.05
362.677,2366.85
368.379,2371.6
374.077,2387.05
379.771,2394.15
385.461,2419.8
391.148,2433.5
396.831,2457.2
402.51,2457.0
408.186,2465.65
413.858,2443.1
419.526,2405.65
425.19,2414.55
430.851,2392.9
436.508,2395.7
442.162,2394.35
447.811,2386.6
453.458,2386.25
459.1,2399.65
464.739,2406.25
470.374,2396.05
476.005,2405.4
481.633,2398.3
487.257,2415.3
492.878,2404.75
498.494,2409.15
504.107,2437.8
509.717,2427.95
515.323,2429.0
520.925,2431.4
526.524,2428.3
532.119,2446.5
537.71,2431.3
543.298,2443.8
548.882,2447.55
554.462,2454.05
560.039,2467.15
565.613,2460.85
571.182,2473.1
576.748,2478.8
582.311,2471.0
587.87,2472.85
593.425,2477.75
598.977,2474.85
604.525,2483.0
610.069,2466.15
615.61,2481.15
621.148,2471.0
626.682,2492.5
632.212,2507.85
637.739,2530.4
643.262,2500.65
648.781,2521.8
654.297,2511.75
659.81,2521.1
665.319,2533.4
670.824,2550.7
676.326,2521.5
681.824,2540.0
687.319,2557.75
692.81,2545.3
698.298,2545.55
703.782,2533.6
709.262,2541.8
714.739,2551.75
720.213,2525.75
725.683,2516.35
731.15,2553.4
736.613,2581.65
742.072,2554.15
747.528,2588.9
752.981,2550.85
758.43,2564.05
763.875,2571.7
769.317,2551.1
774.756,2583.95
780.191,2554.95
785.623,2551.85
791.051,2548.85
796.475,2544.6
801.897,2536.65
807.314,2539.35
812.729,2567.25
818.139,2554.75
823.547,2556.35
828.951,2566.45
834.351,2572.15
839.748,2577.35
845.142,2578.5
850.532,2590.6
855.918,2662.95
861.302,2742.9
866.681,2864.1
872.058,2962.15
877.431,2874.05
882.8,2781.1
888.166,2665.85
893.529,2636.0
898.888,2642.5
904.244,2623.45
909.596,2629.55
914.945,2630.35
920.291,2632.2
925.633,2618.05
930.972,2617.0
936.308,2604.25
941.64,2612.2
946.968,2625.45
952.294,2600.05
957.615,2626.05
962.934,2630.15
968.249,2622.65
973.561,2599.95
978.869,2603.7
984.174,2608.55
989.476,2626.4
994.774,2628.15
1000.07,2626.2
1005.36,2624.75
1010.65,2623.85
1015.93,2636.7
1021.22,2644.85
1026.49,2696.65
1031.77,2696.05
1037.04,2721.45
1042.31,2761.85
1047.57,2759.9
1052.83,2715.1
1058.09,2693.95
1063.35,2682.85
1068.6,2691.45
1073.85,2651.75
1079.09,2692.25
1084.33,2713.5
1089.57,2752.85
1094.81,2780.9
1100.04,2755.05
1105.27,2757.4
1110.49,2753.55
1115.71,2743.45
1120.93,2816.6
1126.15,2859.15
1131.36,2838.3
1136.57,2796.3
1141.77,2758.35
1146.98,2730.9
1152.18,2712.75
1157.37,2700.5
1162.56,2699.15
1167.75,2694.25
1172.94,2731.15
1178.12,2739.85
1183.3,2730.8
1188.48,2743.05
1193.65,2719.9
1198.82,2737.05
1203.99,2711.05
1209.15,2749.7
1214.31,2738.7
1219.46,2738.0
1224.62,2750.9
1229.77,2715.5
1234.92,2714.0
1240.06,2753.75
1245.2,2724.15
1250.34,2721.25
1255.47,2736.1
1260.6,2747.6
1265.73,2758.05
1270.85,2728.7
1275.97,2732.65
1281.09,2756.35
1286.21,2775.15
1291.32,2825.45
1296.43,2846.8
1301.53,2826.65
1306.63,2855.4
1311.73,2839.0
1316.83,2797.85
1321.92,2794.8
1327.01,2804.0
1332.1,2829.6
1337.18,2803.45
1342.26,2818.2
1347.34,2830.15
1352.41,2813.75
1357.48,2806.85
1362.55,2820.05
1367.61,2794.5
1372.67,2794.25
1377.73,2818.95
1382.78,2818.75
1387.84,2831.3
1392.88,2805.35
1397.93,2795.3
1402.97,2786.25
1408.01,2806.5
1413.05,2788.2
1418.08,2753.25
1423.11,2783.35
1428.14,2820.45
1433.16,2774.85
1438.18,2847.85
1443.2,2922.7
1448.21,2984.9
1453.22,3029.6
1458.23,2980.45
1463.23,2948.55
1468.23,2897.95
1473.23,2842.45
1478.23,2781.05
1483.22,2775.5
1488.21,2795.35
1493.2,2770.05
1498.18,2785.1
1503.16,2780.3
1508.14,2780.5
1513.11,2754.75
1518.08,2764.45
1523.05,2795.95
1528.01,2755.95
1532.97,2789.3
1537.93,2755.45
1542.89,2792.7
1547.84,2768.5
1552.79,2784.7
1557.73,2760.85
1562.68,2795.6
1567.62,2780.15
1572.56,2781.85
1577.49,2771.0
1582.42,2778.1
1587.35,2774.55
1592.27,2777.2
1597.19,2770.7
1602.11,2786.1
1607.03,2780.4
1611.94,2754.15
1616.85,2760.35
1621.76,2791.6
1626.66,2749.35
1631.56,2772.15
1636.46,2771.95
1641.36,2767.1
1646.25,2782.05
1651.14,2756.35
1656.02,2773.65
1660.9,2792.35
1665.78,2790.8
1670.66,2759.4
1675.54,2774.75
1680.41,2773.75
1685.27,2784.6
1690.14,2771.8
1695.0,2766.85
1699.86,2764.65
1704.71,2772.35
1709.57,2727.45
1714.42,2774.7
1719.26,2791.8
1724.11,2751.55
1728.95,2768.35
1733.79,2774.3
1738.62,2797.75
1743.46,2828.7
1748.28,2889.75
1753.11,2914.85
1757.93,2923.1
1762.75,2954.7
1767.57,2949.45
1772.39,2940.15
1777.2,2940.9
1782.01,2876.65
1786.81,2849.1
1791.62,2809.45
1796.41,2769.15
1801.21,2755.6
1806.01,2745.0
1810.8,2771.6
1815.59,2746.2
1820.37,2759.85
1825.15,2715.75
1829.93,2728.85
1834.71,2750.25
1839.48,2762.25
1844.25,2739.7
1849.02,2730.05
1853.79,2728.8
1858.55,2713.5
1863.31,2739.9
1868.06,2749.1
1872.82,2748.55
1877.57,2741.3
1882.31,2757.6
1887.06,2723.15
1891.8,2732.65
1896.54,2749.85
1901.28,2746.65
1906.01,2744.25
1910.74,2751.25
1915.47,2744.65
1920.19,2715.9
1924.91,2727.0
1929.63,2738.95
1934.35,2740.3
1939.06,2722.3
1943.77,2705.1
1948.48,2746.35
1953.19,2708.95
1957.89,2720.6
1962.59,2749.65
1967.28,2738.65
1971.98,2732.15
1976.67,2715.05
1981.35,2722.1
1986.04,2737.45
1990.72,2715.25
1995.4,2748.85
2000.08,2746.6
2004.75,2732.1
2009.42,2738.35
2014.09,2724.85
2018.75,2714.05
2023.42,2753.5
2028.08,2739.0
2032.73,2739.6
2037.39,2724.15
2042.04,2736.45
2046.69,2712.65
2051.33,2720.4
2055.97,2730.0
2060.61,2726.75
2065.25,2750.7
2069.88,2738.3
2074.52,2719.8
2079.15,2720.65
2083.77,2729.1
2088.39,2728.7
2093.01,2717.35
2097.63,2730.3
2102.25,2712.05
2106.86,2737.05
2111.47,2720.65
2116.08,2708.5
2120.68,2731.55
2125.28,2758.6
2129.88,2696.25
2134.47,2719.15
2139.07,2711.85
2143.66,2717.0
2148.24,2716.2
2152.83,2712.6
2157.41,2728.7
2161.99,2732.1
2166.57,2723.25
2171.14,2710.7
2175.71,2742.65
2180.28,2722.4
2184.84,2708.95
2189.41,2708.95
2193.97,2739.6
2198.52,2719.75
2203.08,2712.85
2207.63,2732.75
2212.18,2719.65
2216.73,2728.35
2221.27,2739.1
2225.81,2703.9
2230.35,2714.45
2234.89,2721.35
2239.42,2696.55
2243.95,2737.45
2248.48,2715.8
2253.0,2721.3
2257.52,2721.05
2262.04,2729.8
2266.56,2706.2
2271.07,2704.35
2275.58,2702.15
2280.09,2704.15
2284.6,2718.55
2289.1,2706.6
2293.6,2712.15
2298.1,2701.05
2302.6,2722.3
2307.09,2695.95
2311.58,2712.5
2316.07,2737.95
2320.55,2723.1
2325.03,2671.2
2329.51,2707.05
2333.99,2701.0
2338.46,2708.35
2342.93,2725.9
2347.4,2701.45
2351.87,2711.9
2356.33,2702.85
2360.79,2688.6
2365.25,2700.35
2369.71,2700.85
2374.16,2691.75
2378.61,2683.55
2383.06,2711.8
2387.5,2735.95
2391.94,2706.9
2396.38,2697.85
2400.82,2691.2
2405.26,2704.7
2409.69,2692.25
2414.12,2703.2
2418.54,2709.7
2422.97,2709.65
2427.39,2701.85
2431.81,2725.9
2436.22,2678.1
2440.64,2692.3
2445.05,2675.7
2449.46,2683.6
2453.86,2688.65
2458.27,2711.0
2462.67,2708.9
2467.06,2663.85
2471.46,2697.75
2475.85,2675.3
2480.24,2671.7
2484.63,2703.65
2489.02,2687.9
2493.4,2696.8
2497.78,2667.4
2502.16,2703.6
2506.53,2685.4
2510.9,2683.05
2515.27,2680.0
2519.64,2689.45
2524.0,2686.1
2528.37,2661.05
2532.73,2677.85
2537.08,2682.4
2541.44,2686.5
2545.79,2670.1
2550.14,2663.7
2554.48,2670.55
2558.83,2697.15
2563.17,2663.95
2567.51,2705.4
2571.85,2667.3
2576.18,2659.75
2580.51,2659.75
2584.84,2665.9
2589.17,2656.3
2593.49,2670.15
2597.81,2662.05
2602.13,2656.9
2606.45,2684.35
2610.76,2644.3
2615.07,2666.8
2619.38,2674.4
2623.69,2670.1
2627.99,2663.55
2632.29,2656.75
2636.59,2630.9
2640.89,2675.8
2645.18,2674.4
2649.47,2678.85
2653.76,2636.1
2658.05,2663.4
2662.33,2657.3
2666.61,2631.65
2670.89,2673.75
2675.17,2670.7
2679.44,2651.45
2683.71,2661.05
2687.98,2669.4
2692.25,2650.35
2696.51,2650.35
2700.77,2646.7
2705.03,2666.1
2709.29,2627.05
2713.54,2666.85
2717.79,2625.85
2722.04,2649.05
2726.29,2678.25
2730.53,2705.15
2734.77,2700.3
2739.01,2711.0
2743.25,2687.2
2747.48,2664.4
2751.71,2693.45
2755.94,2655.55
2760.17,2651.55
2764.39,2666.2
2768.61,2644.6
2772.83,2656.45
2777.05,2639.3
2781.27,2628.8
2785.48,2617.5
2789.69,2602.25
2793.89,2609.8
2798.1,2618.85
2802.3,2629.0
2806.5,2619.95
2810.7,2609.4
2814.89,2605.3
2819.09,2610.55
2823.28,2614.95
2827.46,2606.6
2831.65,2639.1
2835.83,2620.45
2840.01,2603.6
2844.19,2603.15
2848.37,2608.85
2852.54,2633.05
2856.71,2655.55
2860.88,2640.15
2865.05,2688.55
2869.21,2708.1
2873.37,2826.35
2877.53,2972.9
2881.69,2908.4
2885.84,2931.0
2889.99,2905.75
2894.14,2888.25
2898.29,2857.7
2902.43,2866.6
2906.58,2871.9
2910.72,2896.65
2914.85,2914.85
2918.99,2904.65
2923.12,2893.35
2927.25,2986.9
2931.38,3192.55
2935.5,3532.15
2939.63,4080.85
2943.75,4641.7
2947.87,4628.1
2951.98,4386.8
2956.1,3920.85
2960.21,3521.7
2964.32,3296.3
2968.42,3177.75
2972.53,3093.35
2976.63,3023.35
2980.73,2991.5
2984.83,3070.85
2988.92,3147.3
2993.01,3241.85
2997.1,3416.1
3001.19,3428.25
3005.28,3398.1
3009.36,3286.55
3013.44,3172.3
3017.52,3043.5
3021.6,2910.45
3025.67,2828.8
3029.74,2751.3
3033.81,2662.2
3037.88,2609.5
3041.94,2599.05
3046.01,2593.35
3050.07,2549.3
3054.12,2539.8
3058.18,2536.0
3062.23,2521.75
3066.28,2499.3
3070.33,2536.35
3074.38,2527.3
3078.42,2521.45
3082.46,2507.6
3086.5,2504.65
3090.54,2500.0
3094.57,2496.4
3098.6,2496.15
3102.63,2473.65
3106.66,2497.15
3110.69,2487.6
3114.71,2492.35
3118.73,2489.45
3122.75,2481.8
3126.77,2467.25
3130.78,2477.95
3134.79,2488.9
3138.8,2455.75
3142.81,2478.55
3146.81,2473.4
3150.82,2458.9
3154.82,2454.55
3158.81,2469.4
3162.81,2459.35
3166.8,2455.8
3170.79,2447.35
3174.78,2464.6
3178.77,2439.9
3182.75,2435.45
3186.74,2429.35
3190.72,2423.0
3194.69,2451.05
3198.67,2452.7
3202.64,2436.1
3206.61,2450.1
3210.58,2438.0
3214.55,2423.5
3218.51,2423.6
3222.47,2442.25
3226.43,2433.8
3230.39,2433.55
3234.35,2418.35
3238.3,2426.25
3242.25,2430.75
3246.2,2412.15
3250.15,2398.75
3254.09,2405.45
3258.03,2422.45
3261.97,2396.55
3265.91,2399.55
3269.84,2375.9
3273.78,2396.4
3277.71,2396.45
3281.64,2381.2
3285.56,2406.25
3289.49,2391.65
3293.41,2383.2
3297.33,2379.0
3301.25,2373.15
3305.16,2368.65
3309.07,2364.95
3312.99,2363.25
3316.89,2369.05
3320.8,2367.8
3324.7,2360.15
3328.61,2367.8
3332.51,2342.4
3336.4,2349.6
3340.3,2356.7
3344.19,2359.35
3348.08,2342.5
3351.97,2353.2
3355.86,2349.0
3359.74,2343.7
3363.63,2348.55
3367.51,2345.7
3371.39,2321.8
3375.26,2329.05
3379.13,2345.85
3383.01,2338.15
3386.88,2335.85
3390.74,2313.65
3394.61,2303.45
3398.47,2326.85
3402.33,2337.7
3406.19,2309.05
3410.05,2322.9
3413.9,2312.4
3417.75,2304.15
3421.6,2312.0
3425.45,2317.95
3429.3,2318.25
3433.14,2315.75
3436.98,2311.85
3440.82,2309.4
3444.66,2305.85
3448.49,2291.3
3452.32,2284.7
3456.15,2306.05
3459.98,2312.9
3463.81,2306.5
3467.63,2283.2
3471.46,2263.9
3475.28,2278.5
3479.09,2280.0
3482.91,2278.8
3486.72,2287.65
3490.53,2258.75
3494.34,2260.3
3498.15,2286.5
3501.96,2270.15
3505.76,2262.1
3509.56,2244.35
3513.36,2267.9
3517.15,2243.45
3520.95,2241.3
3524.74,2270.3
3528.53,2257.75
3532.32,2250.55
3536.11,2249.7
3539.89,2251.2
3543.67,2259.05
3547.45,2249.45
3551.23,2231.3
3555.0,2235.65
3558.78,2246.5
3562.55,2238.2
3566.32,2226.35
3570.09,2231.6
3573.85,2228.95
3577.61,2234.9
3581.37,2242.55
3585.13,2225.45
3588.89,2226.0
3592.64,2220.05
3596.4,2211.65
3600.15,2209.4
3603.9,2209.15
3607.64,2213.45
3611.39,2208.05
3615.13,2195.35
3618.87,2203.3
3622.61,2188.4
3626.34,2184.05
3630.08,2197.65
3633.81,2198.15
3637.54,2191.65
3641.27,2192.15
3644.99,2179.75
3648.72,2205.7
3652.44,2207.95
3656.16,2195.55
3659.87,2188.95
3663.59,2181.9
3665.45,2183.95