File: spectra/VLFR_01-LDPE_bio_Raman_e0ea7e8c.csv
nm,Intensity
528.629,1852.3
528.797,1852.2
528.965,1851.9
529.134,1852.5
529.302,1850.9
529.471,1851.3
529.639,1851.4
529.808,1852.0
529.976,1851.9
530.145,1852.2
530.313,1851.9
530.481,1852.1
530.65,1851.1
530.818,1852.7
530.987,1852.7
531.155,1856.0
531.323,1854.6
531.492,1861.8
531.66,1895.5
531.829,2609.4
531.997,4716.8
532.165,3444.7
532.334,1990.9
532.502,1853.7
532.67,1855.4
532.839,1854.8
533.007,1852.0
533.175,1852.7
533.344,1853.6
533.512,1863.3
533.68,1921.5
533.848,2039.1
534.017,2090.5
534.185,2083.1
534.353,2078.1
534.522,2082.5
534.69,2065.7
534.858,2076.5
535.026,2064.9
535.195,2048.2
535.363,2034.9
535.531,2036.3
535.699,2028.7
535.868,2022.2
536.036,2021.7
536.204,2019.7
536.372,2017.2
536.54,2017.1
536.709,2006.1
536.877,2008.7
537.045,2014.2
537.213,2015.6
537.381,2013.4
537.55,2023.1
537.718,2014.9
537.886,2019.3
538.054,2030.5
538.222,2015.0
538.39,2016.4
538.558,2020.3
538.727,2032.6
538.895,2034.9
539.063,2045.6
539.231,2038.9
539.399,2039.0
539.567,2013.3
539.735,2008.5
539.903,2007.8
540.071,2004.6
540.239,2013.2
540.408,2002.3
540.576,2004.0
540.744,2005.1
540.912,2009.1
541.08,2001.2
541.248,1998.9
541.416,2009.6
541.584,2007.8
541.752,2002.9
541.92,2014.1
542.088,2008.8
542.256,2008.3
542.424,2009.5
542.592,2015.9
542.76,2014.1
542.928,2026.0
543.096,2010.4
543.264,2014.5
543.432,2007.4
543.6,2014.2
543.768,2012.9
543.936,2005.1
544.104,2007.3
544.271,2004.3
544.439,2001.9
544.607,2005.7
544.775,1998.4
544.943,2006.8
545.111,2006.5
545.279,1999.5
545.447,1999.5
545.615,1999.2
545.783,1998.6
545.95,2005.0
546.118,2001.8
546.286,2002.5
546.454,2000.9
546.622,2003.7
546.79,2005.5
546.957,2000.4
547.125,2009.5
547.293,2013.8
547.461,2002.7
547.629,2010.5
547.797,2013.2
547.964,2006.5
548.132,2005.3
548.3,2016.5
548.468,2007.8
548.635,2012.4
548.803,2007.7
548.971,2010.2
549.139,2003.9
549.306,2005.3
549.474,2009.9
549.642,2005.9
549.81,2008.8
549.977,2011.0
550.145,2010.7
550.313,2014.5
550.48,2017.6
550.648,2018.7
550.816,2022.2
550.983,2023.2
551.151,2026.1
551.319,2021.0
551.486,2025.3
551.654,2026.9
551.822,2025.6
551.989,2022.8
552.157,2018.0
552.325,2019.4
552.492,2016.1
552.66,2025.5
552.828,2018.4
552.995,2026.5
553.163,2016.0
553.33,2032.4
553.498,2027.1
553.665,2027.2
553.833,2026.7
554.001,2034.0
554.168,2036.7
554.336,2032.1
554.503,2041.0
554.671,2045.1
554.838,2035.8
555.006,2037.4
555.173,2032.5
555.341,2033.8
555.508,2044.7
555.676,2047.8
555.843,2048.1
556.011,2040.5
556.178,2047.2
556.346,2041.9
556.513,2044.6
556.681,2058.2
556.848,2057.5
557.016,2051.1
557.183,2055.0
557.35,2061.1
557.518,2062.2
557.685,2065.7
557.853,2064.3
558.02,2067.0
558.188,2075.6
558.355,2075.3
558.522,2071.4
558.69,2079.0
558.857,2062.5
559.024,2058.2
559.192,2058.5
559.359,2056.2
559.526,2066.7
559.694,2062.3
559.861,2056.3
560.028,2060.9
560.196,2062.5
560.363,2053.1
560.53,2059.3
560.698,2051.6
560.865,2048.0
561.032,2060.8
561.2,2057.1
561.367,2050.1
561.534,2061.9
561.701,2063.6
561.869,2066.1
562.036,2064.3
562.203,2072.8
562.37,2070.0
562.538,2072.1
562.705,2088.8
562.872,2082.6
563.039,2100.9
563.206,2096.3
563.374,2099.1
563.541,2123.2
563.708,2169.2
563.875,2298.2
564.042,2339.5
564.209,2253.9
564.376,2178.7
564.544,2149.5
564.711,2153.6
564.878,2149.0
565.045,2136.2
565.212,2109.8
565.379,2111.5
565.546,2121.4
565.713,2144.1
565.881,2244.0
566.048,2334.5
566.215,2333.1
566.382,2212.4
566.549,2135.7
566.716,2117.5
566.883,2117.6
567.05,2104.5
567.217,2110.9
567.384,2117.9
567.551,2120.5
567.718,2093.5
567.885,2083.1
568.052,2094.2
568.219,2092.3
568.386,2091.9
568.553,2098.7
568.72,2089.7
568.887,2096.9
569.054,2091.1
569.221,2098.8
569.388,2108.5
569.555,2100.2
569.722,2104.3
569.888,2107.0
570.055,2123.5
570.222,2114.3
570.389,2121.3
570.556,2129.3
570.723,2144.6
570.89,2156.2
571.057,2178.0
571.224,2266.8
571.39,2449.1
571.557,2585.3
571.724,2401.2
571.891,2283.6
572.058,2229.6
572.225,2201.6
572.391,2173.0
572.558,2166.1
572.725,2154.1
572.892,2134.1
573.059,2144.2
573.225,2126.8
573.392,2135.2
573.559,2142.9
573.726,2147.3
573.892,2158.9
574.059,2143.5
574.226,2127.5
574.393,2128.7
574.559,2118.8
574.726,2116.6
574.893,2115.2
575.059,2122.8
575.226,2149.1
575.393,2222.7
575.559,2299.0
575.726,2292.9
575.893,2342.3
576.059,2459.7
576.226,2542.2
576.393,2514.2
576.559,2458.8
576.726,2397.3
576.893,2408.4
577.059,2369.0
577.226,2300.0
577.392,2232.5
577.559,2174.6
577.726,2150.9
577.892,2149.1
578.059,2135.3
578.225,2133.5
578.392,2123.7
578.558,2128.8
578.725,2124.6
578.891,2120.4
579.058,2117.8
579.224,2117.3
579.391,2113.8
579.557,2114.6
579.724,2122.5
579.89,2129.6
580.057,2127.5
580.223,2130.2
580.39,2121.3
580.556,2127.4
580.723,2114.8
580.889,2127.6
581.056,2122.0
581.222,2118.7
581.388,2131.4
581.555,2128.7
581.721,2133.2
581.888,2129.2
582.054,2128.5
582.22,2121.6
582.387,2126.1
582.553,2124.0
582.719,2135.6
582.886,2126.7
583.052,2138.9
583.219,2125.0
583.385,2151.3
583.551,2133.6
583.717,2131.3
583.884,2145.2
584.05,2158.0
584.216,2135.5
584.383,2161.4
584.549,2145.4
584.715,2158.6
584.881,2158.6
585.048,2158.3
585.214,2142.2
585.38,2153.2
585.546,2161.6
585.713,2165.0
585.879,2165.9
586.045,2173.7
586.211,2185.6
586.377,2172.1
586.544,2173.4
586.71,2186.0
586.876,2200.1
587.042,2184.0
587.208,2206.3
587.374,2194.7
587.541,2202.7
587.707,2209.3
587.873,2204.0
588.039,2239.0
588.205,2210.7
588.371,2228.4
588.537,2226.5
588.703,2241.2
588.869,2244.0
589.035,2254.7
589.201,2234.9
589.368,2262.8
589.534,2242.9
589.7,2249.9
589.866,2267.3
590.032,2258.1
590.198,2271.4
590.364,2283.2
590.53,2304.6
590.696,2304.6
590.862,2270.3
591.028,2304.2
591.194,2331.8
591.36,2304.4
591.525,2314.5
591.691,2336.8
591.857,2327.5
592.023,2344.7
592.189,2350.2
592.355,2330.4
592.521,2352.7
592.687,2369.4
592.853,2363.7
593.019,2374.4
593.185,2360.9
593.35,2396.2
593.516,2375.3
593.682,2387.7
593.848,2355.2
594.014,2380.1
594.18,2403.8
594.345,2409.9
594.511,2410.7
594.677,2417.5
594.843,2409.6
595.009,2426.3
595.174,2434.8
595.34,2464.5
595.506,2436.1
595.672,2459.8
595.837,2447.8
596.003,2469.2
596.169,2457.0
596.335,2499.6
596.5,2467.9
596.666,2488.7
596.832,2520.6
596.997,2499.0
597.163,2504.4
597.329,2536.2
597.494,2539.5
597.66,2512.1
597.826,2557.4
597.991,2535.5
598.157,2528.3
598.323,2539.2
598.488,2577.2
598.654,2561.9
598.819,2567.8
598.985,2565.9
599.151,2595.1
599.316,2573.0
599.482,2591.3
599.647,2615.3
599.813,2600.7
599.978,2619.0
600.144,2612.7
600.309,2613.4
600.475,2607.1
600.641,2634.7
600.806,2626.8
600.972,2621.8
601.137,2603.2
601.302,2632.0
601.468,2610.8
601.633,2627.8
601.799,2629.5
601.964,2612.0
602.13,2615.3
602.295,2640.6
602.461,2612.3
602.626,2608.8
602.791,2613.2
602.957,2603.6
603.122,2585.9
603.288,2622.4
603.453,2582.3
603.618,2573.0
603.784,2581.9
603.949,2547.1
604.114,2595.3
604.28,2542.7
604.445,2552.2
604.61,2549.8
604.776,2550.3
604.941,2515.3
605.106,2533.1
605.272,2533.2
605.437,2514.6
605.602,2503.6
605.767,2498.2
605.933,2503.9
606.098,2499.0
606.263,2468.5
606.428,2483.0
606.593,2477.5
606.759,2467.3
606.924,2457.7
607.089,2486.8
607.254,2441.1
607.419,2450.9
607.585,2429.6
607.75,2456.7
607.915,2440.0
608.08,2453.6
608.245,2445.2
608.41,2425.9
608.575,2422.8
608.74,2412.8
608.906,2408.7
609.071,2426.2
609.236,2389.7
609.401,2398.3
609.566,2396.5
609.731,2407.1
609.896,2402.0
610.061,2400.1
610.226,2404.2
610.391,2375.5
610.556,2413.5
610.721,2402.4
610.886,2408.5
611.051,2393.8
611.216,2396.0
611.381,2381.2
611.546,2361.9
611.711,2363.9
611.876,2367.4
612.041,2380.6
612.206,2355.9
612.371,2358.1
612.536,2371.1
612.7,2324.5
612.865,2359.2
613.03,2357.4
613.195,2365.3
613.36,2348.1
613.525,2349.6
613.69,2342.1
613.855,2334.4
614.019,2335.8
614.184,2357.5
614.349,2347.9
614.514,2316.6
614.679,2331.4
614.843,2319.7
615.008,2319.3
615.173,2315.1
615.338,2336.1
615.503,2348.6
615.667,2327.7
615.832,2314.1
615.997,2323.5
616.161,2331.4
616.326,2327.0
616.491,2323.4
616.656,2320.6
616.82,2336.9
616.985,2329.9
617.15,2330.0
617.314,2322.6
617.479,2334.1
617.644,2330.7
617.808,2325.9
617.973,2309.4
618.137,2335.9
618.302,2310.2
618.467,2338.3
618.631,2323.2
618.796,2327.0
618.96,2324.4
619.125,2327.9
619.289,2330.8
619.454,2319.7
619.619,2330.1
619.783,2345.3
619.948,2350.6
620.112,2314.0
620.277,2335.9
620.441,2339.1
620.606,2329.3
620.77,2337.5
620.935,2344.8
621.099,2378.0
621.263,2356.5
621.428,2403.0
621.592,2414.7
621.757,2426.9
621.921,2477.2
622.086,2501.5
622.25,2480.5
622.414,2496.2
622.579,2438.3
622.743,2411.6
622.907,2368.8
623.072,2355.0
623.236,2322.9
623.401,2317.3
623.565,2299.3
623.729,2308.4
623.893,2286.9
624.058,2301.5
624.222,2289.6
624.386,2289.4
624.551,2287.0
624.715,2310.6
624.879,2304.9
625.043,2292.9
625.208,2316.0
625.372,2313.6
625.536,2339.4
625.7,2325.5
625.864,2365.1
626.029,2412.7
626.193,2472.7
626.357,2574.1
626.521,2780.8
626.685,3270.9
626.849,4156.0
627.014,5017.7
627.178,5423.4
627.342,5175.4
627.506,4686.4
627.67,4431.4
627.834,4186.7
627.998,4228.0
628.162,4398.0
628.326,4959.6
628.49,5717.8
628.654,5164.0
628.818,4746.8
628.983,4434.9
629.147,4212.6
629.311,4105.5
629.475,4029.1
629.639,3857.1
629.803,3666.5
629.966,3544.5
630.13,3520.2
630.294,3477.0
630.458,3409.3
630.622,3284.0
630.786,3085.4
630.95,2850.8
631.114,2673.1
631.278,2542.2
631.442,2474.6
631.606,2423.6
631.77,2405.3
631.933,2350.4
632.097,2318.4
632.261,2305.7
632.425,2295.2
632.589,2284.4
632.753,2269.4
632.916,2239.8
633.08,2228.1
633.244,2237.1
633.408,2227.9
633.572,2221.2
633.735,2231.0
633.899,2227.4
634.063,2198.5
634.227,2216.7
634.39,2203.5
634.554,2207.9
634.718,2199.6
634.881,2210.0
635.045,2197.4
635.209,2199.3
635.372,2199.7
635.536,2182.1
635.7,2189.4
635.863,2196.0
636.027,2188.2
636.191,2180.1
636.354,2185.0
636.518,2169.1
636.681,2180.6
636.845,2175.2
637.009,2161.8
637.172,2189.1
637.336,2166.1
637.499,2165.7
637.663,2172.4
637.826,2165.5
637.99,2163.5
638.153,2171.8
638.317,2178.4
638.48,2154.1
638.644,2171.8
638.807,2166.3
638.971,2172.8
639.134,2164.1
639.298,2173.9
639.461,2168.3
639.625,2152.9
639.788,2169.1
639.951,2170.9
640.115,2155.3
640.278,2170.4
640.441,2165.5
640.605,2166.1
640.768,2162.6
640.932,2158.9
641.095,2171.2
641.258,2170.5
641.422,2179.8
641.585,2173.1
641.748,2161.8
641.911,2174.4
642.075,2167.7
642.238,2159.6
642.401,2177.7
642.565,2177.2
642.728,2176.9
642.891,2170.8
643.054,2169.2
643.217,2184.3
643.381,2178.5
643.544,2180.5
643.707,2176.3
643.87,2189.6
644.033,2183.9
644.197,2195.6
644.36,2172.7
644.523,2179.3
644.686,2169.3
644.849,2199.8
645.012,2179.6
645.175,2175.9
645.338,2176.3
645.501,2198.4
645.664,2181.4
645.828,2181.6
645.991,2199.4
646.154,2175.3
646.317,2191.1
646.48,2185.6
646.643,2198.8
646.806,2179.7
646.969,2177.9
647.132,2187.8
647.295,2193.5
647.458,2191.4
647.621,2175.2
647.783,2184.3
647.946,2180.0
648.109,2194.1
648.272,2180.0
648.435,2194.3
648.598,2196.5
648.761,2198.5
648.924,2180.7
649.087,2190.8
649.25,2176.4
649.412,2184.6
649.575,2190.7
649.738,2197.3
649.901,2191.1
650.064,2182.2
650.226,2183.4
650.389,2196.5
650.552,2179.6
650.715,2199.9
650.878,2200.0
651.04,2206.6
651.203,2211.4
651.366,2186.4
651.528,2191.5
651.691,2206.2
651.854,2191.6
652.017,2193.8
652.179,2207.8
652.342,2179.8
652.505,2195.1
652.667,2197.6
652.83,2181.5
652.992,2183.5
653.155,2169.8
653.318,2193.9
653.48,2179.3
653.643,2182.3
653.805,2184.4
653.968,2195.6
654.131,2169.8
654.293,2172.8
654.456,2183.3
654.618,2176.5
654.781,2177.5
654.943,2167.2
655.106,2187.1
655.268,2159.4
655.431,2169.9
655.593,2176.3
655.756,2179.4
655.918,2162.5
656.081,2158.9
656.243,2158.3
656.405,2157.3
656.568,2157.9
656.73,2153.9
656.893,2144.0
657.055,2151.1
657.217,2168.3
657.38,2137.1
657.542,2156.4
657.704,2136.5
657.867,2147.6
658.029,2132.9
658.191,2135.2
658.354,2148.1
658.516,2128.1
658.678,2121.5
658.84,2126.2
659.003,2122.8
659.165,2117.9
659.327,2114.6
659.489,2107.4
659.652,2117.6
659.814,2127.3
659.976,2115.6
660.138,2119.2
660.3,2104.5
660.463,2087.2
660.625,2089.7
660.787,2091.1
660.949,2099.9
661.03,2099.1