File: spectra/VLFR_02-HDPE_nobio_Raman_7c3a38b7.csv
nm,Intensity
526.532,830.133
526.669,830.3
526.805,830.467
526.942,829.567
527.079,830.333
527.216,830.233
527.352,830.333
527.489,829.967
527.625,830.0
527.762,830.0
527.899,830.1
528.035,830.033
528.172,829.933
528.309,830.433
528.445,830.667
528.582,829.633
528.718,829.4
528.855,829.5
528.992,829.2
529.128,830.167
529.265,829.233
529.401,829.967
529.538,830.6
529.674,830.367
529.811,830.1
529.947,830.1
530.084,829.833
530.22,829.533
530.357,828.933
530.493,829.7
530.63,829.467
530.766,830.133
530.903,829.767
531.039,829.933
531.176,830.467
531.312,830.733
531.449,830.6
531.585,829.9
531.721,829.8
531.858,829.967
531.994,833.667
532.131,851.733
532.267,845.633
532.403,831.9
532.54,830.2
532.676,830.067
532.812,829.033
532.949,830.833
533.085,830.033
533.221,830.533
533.358,829.667
533.494,829.9
533.63,830.8
533.767,837.767
533.903,862.1
534.039,890.633
534.176,900.9
534.312,903.333
534.448,901.133
534.584,901.1
534.721,900.167
534.857,902.0
534.993,903.3
535.129,900.567
535.266,896.467
535.402,888.433
535.538,881.167
535.674,876.967
535.81,871.1
535.947,869.033
536.083,867.067
536.219,865.033
536.355,864.5
536.491,862.133
536.627,863.333
536.764,862.967
536.9,861.7
537.036,860.567
537.172,860.633
537.308,861.2
537.444,860.867
537.58,861.133
537.716,862.367
537.852,860.333
537.988,860.7
538.125,861.433
538.261,859.733
538.397,857.6
538.533,858.6
538.669,858.733
538.805,858.067
538.941,856.333
539.077,855.333
539.213,854.233
539.349,856.333
539.485,856.2
539.621,854.667
539.757,852.333
539.893,852.867
540.029,852.967
540.165,853.1
540.301,854.2
540.437,851.467
540.572,851.8
540.708,852.4
540.844,852.733
540.98,851.767
541.116,852.0
541.252,852.467
541.388,852.233
541.524,851.4
541.66,851.5
541.795,852.933
541.931,852.067
542.067,852.367
542.203,852.867
542.339,852.767
542.475,851.233
542.611,851.4
542.746,850.967
542.882,851.033
543.018,851.5
543.154,852.633
543.289,850.367
543.425,850.5
543.561,851.067
543.697,851.667
543.833,852.667
543.968,852.3
544.104,853.1
544.24,851.7
544.375,851.767
544.511,851.033
544.647,850.833
544.783,851.933
544.918,851.067
545.054,852.167
545.19,851.1
545.325,851.633
545.461,851.133
545.597,851.0
545.732,850.5
545.868,852.067
546.004,852.9
546.139,851.467
546.275,851.5
546.41,851.367
546.546,850.767
546.682,851.367
546.817,852.533
546.953,852.367
547.088,852.033
547.224,851.767
547.36,851.967
547.495,851.033
547.631,851.6
547.766,852.2
547.902,852.167
548.037,850.833
548.173,851.233
548.308,850.8
548.444,851.867
548.579,852.967
548.715,851.033
548.85,852.1
548.986,852.167
549.121,852.133
549.257,851.233
549.392,850.667
549.528,850.567
549.663,851.5
549.798,851.633
549.934,850.933
550.069,851.933
550.205,851.133
550.34,852.0
550.475,851.9
550.611,851.0
550.746,852.033
550.882,851.6
551.017,853.3
551.152,850.467
551.288,852.333
551.423,852.267
551.558,853.1
551.694,852.233
551.829,852.333
551.964,852.367
552.1,853.1
552.235,853.2
552.37,852.133
552.505,851.667
552.641,852.0
552.776,851.567
552.911,852.067
553.047,853.2
553.182,853.067
553.317,854.7
553.452,854.133
553.588,854.067
553.723,853.167
553.858,855.167
553.993,855.233
554.128,855.933
554.264,855.733
554.399,855.733
554.534,855.767
554.669,856.167
554.804,857.067
554.939,854.733
555.075,856.033
555.21,855.933
555.345,854.167
555.48,855.7
555.615,856.267
555.75,856.567
555.885,856.633
556.02,855.533
556.155,855.8
556.291,855.933
556.426,857.0
556.561,857.9
556.696,855.3
556.831,857.0
556.966,856.967
557.101,859.167
557.236,857.6
557.371,858.9
557.506,858.267
557.641,858.2
557.776,860.3
557.911,858.967
558.046,860.433
558.181,860.667
558.316,860.3
558.451,860.567
558.586,858.767
558.721,857.7
558.856,858.233
558.991,858.667
559.126,858.3
559.261,858.233
559.396,858.267
559.531,857.7
559.665,859.267
559.8,858.167
559.935,857.767
560.07,857.933
560.205,856.133
560.34,857.2
560.475,857.8
560.61,858.767
560.745,858.067
560.879,859.1
561.014,858.333
561.149,858.967
561.284,857.967
561.419,856.1
561.553,855.6
561.688,857.067
561.823,857.767
561.958,859.1
562.093,858.867
562.227,859.833
562.362,858.533
562.497,859.667
562.632,860.333
562.767,861.267
562.901,861.5
563.036,863.9
563.171,863.2
563.305,863.867
563.44,863.1
563.575,867.0
563.71,872.533
563.844,894.767
563.979,959.5
564.114,982.933
564.248,919.333
564.383,882.533
564.518,879.133
564.652,878.367
564.787,878.167
564.922,875.0
565.056,873.267
565.191,870.7
565.325,868.867
565.46,868.633
565.595,868.067
565.729,870.633
565.864,875.667
565.999,894.2
566.133,946.567
566.268,961.067
566.402,907.633
566.537,875.033
566.671,868.133
566.806,865.533
566.94,866.033
567.075,864.667
567.21,867.7
567.344,874.133
567.479,891.7
567.613,884.2
567.748,868.9
567.882,863.567
568.017,860.933
568.151,860.267
568.285,860.533
568.42,861.333
568.554,859.5
568.689,859.967
568.823,858.567
568.958,861.033
569.092,862.167
569.227,862.333
569.361,861.967
569.495,862.967
569.63,864.233
569.764,861.667
569.899,861.767
570.033,861.167
570.167,863.233
570.302,863.867
570.436,866.4
570.571,869.333
570.705,868.733
570.839,869.833
570.974,869.8
571.108,874.267
571.242,878.567
571.377,909.7
571.511,1036.07
571.645,1072.7
571.78,940.067
571.914,896.267
572.048,884.733
572.182,878.233
572.317,873.833
572.451,871.767
572.585,867.433
572.719,865.367
572.854,864.367
572.988,863.3
573.122,862.233
573.256,862.967
573.391,862.8
573.525,862.667
573.659,863.033
573.793,866.233
573.927,870.733
574.062,873.267
574.196,867.067
574.33,864.333
574.464,861.533
574.598,859.633
574.733,861.633
574.867,861.1
575.001,861.667
575.135,864.033
575.269,866.9
575.403,882.5
575.537,916.8
575.671,919.1
575.806,897.633
575.94,900.833
576.074,925.7
576.208,977.033
576.342,1026.8
576.476,998.5
576.61,953.733
576.744,943.2
576.878,943.933
577.012,953.167
577.146,949.867
577.28,933.933
577.414,912.4
577.548,891.133
577.682,882.0
577.817,876.133
577.951,871.433
578.085,867.033
578.219,866.533
578.353,865.033
578.486,864.633
578.62,864.3
578.754,863.033
578.888,862.433
579.022,862.967
579.156,863.867
579.29,863.633
579.424,862.933
579.558,862.167
579.692,863.3
579.826,864.5
579.96,863.767
580.094,862.8
580.228,863.3
580.362,862.933
580.496,862.133
580.629,862.533
580.763,861.567
580.897,862.767
581.031,861.967
581.165,863.0
581.299,862.333
581.433,864.233
581.566,860.1
581.7,862.833
581.834,863.367
581.968,862.4
582.102,862.333
582.236,861.933
582.369,861.9
582.503,862.533
582.637,863.867
582.771,863.3
582.905,862.4
583.038,862.667
583.172,862.9
583.306,863.1
583.44,862.167
583.573,863.6
583.707,862.033
583.841,862.9
583.975,863.167
584.108,864.433
584.242,863.1
584.376,863.8
584.509,863.7
584.643,863.267
584.777,864.2
584.911,863.233
585.044,863.3
585.178,865.1
585.312,863.333
585.445,864.667
585.579,865.033
585.713,864.133
585.846,864.733
585.98,864.3
586.113,864.3
586.247,865.1
586.381,865.367
586.514,866.367
586.648,867.433
586.782,865.333
586.915,866.267
587.049,866.567
587.182,866.6
587.316,868.0
587.45,867.967
587.583,868.033
587.717,868.433
587.85,869.8
587.984,866.4
588.117,867.233
588.251,867.6
588.384,867.967
588.518,867.1
588.651,868.433
588.785,867.3
588.919,865.4
589.052,864.8
589.186,865.733
589.319,868.067
589.453,865.7
589.586,865.767
589.72,866.767
589.853,868.267
589.986,868.233
590.12,868.7
590.253,869.733
590.387,870.067
590.52,868.533
590.654,868.6
590.787,869.267
590.921,868.233
591.054,869.9
591.187,870.167
591.321,870.233
591.454,869.1
591.588,869.3
591.721,869.867
591.854,870.2
591.988,871.167
592.121,872.0
592.255,869.8
592.388,869.367
592.521,871.3
592.655,871.5
592.788,871.6
592.921,870.6
593.055,869.8
593.188,870.8
593.321,871.433
593.455,870.7
593.588,871.333
593.721,872.0
593.855,872.267
593.988,871.1
594.121,870.367
594.255,870.167
594.388,871.867
594.521,872.867
594.654,872.833
594.788,871.1
594.921,870.033
595.054,874.267
595.187,871.4
595.321,874.167
595.454,872.6
595.587,874.2
595.72,872.6
595.854,874.433
595.987,874.567
596.12,875.7
596.253,874.833
596.387,875.267
596.52,874.7
596.653,872.367
596.786,875.1
596.919,875.0
597.052,875.8
597.186,876.833
597.319,875.433
597.452,876.733
597.585,875.667
597.718,873.5
597.851,876.7
597.985,877.633
598.118,878.167
598.251,880.567
598.384,876.967
598.517,876.567
598.65,879.2
598.783,879.833
598.916,878.233
599.049,880.8
599.183,879.9
599.316,880.133
599.449,880.833
599.582,880.967
599.715,881.6
599.848,880.733
599.981,882.267
600.114,881.967
600.247,882.6
600.38,881.767
600.513,882.667
600.646,880.167
600.779,880.333
600.912,882.367
601.045,881.6
601.178,881.333
601.311,880.967
601.444,881.0
601.577,883.133
601.71,882.233
601.843,883.4
601.976,885.2
602.109,886.367
602.242,886.3
602.375,885.0
602.508,883.067
602.641,882.567
602.774,882.9
602.907,882.1
603.04,882.1
603.173,880.067
603.306,881.3
603.439,881.867
603.572,881.567
603.705,883.367
603.838,880.467
603.971,881.167
604.103,880.4
604.236,880.267
604.369,881.233
604.502,881.367
604.635,879.733
604.768,879.967
604.901,879.9
605.034,879.0
605.167,878.067
605.299,877.3
605.432,876.367
605.565,875.833
605.698,876.5
605.831,877.333
605.964,875.233
606.096,876.0
606.229,876.4
606.362,876.833
606.495,875.567
606.628,872.933
606.761,874.9
606.893,874.667
607.026,873.633
607.159,873.9
607.292,874.067
607.425,872.633
607.557,873.7
607.69,873.5
607.823,872.1
607.956,873.233
608.088,874.867
608.221,874.567
608.354,873.033
608.487,874.533
608.619,873.967
608.752,874.033
608.885,873.933
609.018,871.967
609.15,872.567
609.283,872.567
609.416,872.933
609.548,872.9
609.681,870.9
609.814,873.267
609.947,872.2
610.079,871.433
610.212,869.2
610.345,870.8
610.477,873.767
610.61,871.533
610.743,873.6
610.875,873.567
611.008,874.1
611.141,874.267
611.273,873.067
611.406,873.167
611.539,872.8
611.671,871.9
611.804,871.6
611.936,872.8
612.069,871.333
612.202,872.333
612.334,872.3
612.467,871.9
612.6,871.8
612.732,872.0
612.865,871.2
612.997,872.933
613.13,873.2
613.263,872.3
613.395,872.167
613.528,873.1
613.66,869.2
613.793,871.933
613.925,874.167
614.058,871.8
614.19,869.733
614.323,872.433
614.456,872.1
614.588,872.133
614.721,872.433
614.853,873.233
614.986,873.833
615.118,873.2
615.251,872.667
615.383,873.267
615.516,872.633
615.648,873.933
615.781,871.533
615.913,874.033
616.046,873.033
616.178,870.967
616.311,872.167
616.443,876.033
616.576,875.633
616.708,878.233
616.841,878.9
616.973,879.233
617.106,882.8
617.238,883.567
617.37,884.833
617.503,883.167
617.635,884.567
617.768,884.0
617.9,884.7
618.033,886.5
618.165,884.6
618.297,886.133
618.43,883.967
618.562,885.1
618.695,882.3
618.827,881.4
618.96,885.067
619.092,881.933
619.224,884.6
619.357,886.167
619.489,887.633
619.621,889.167
619.754,891.8
619.886,890.3
620.019,887.333
620.151,887.4
620.283,887.433
620.416,887.1
620.548,889.7
620.68,889.8
620.813,891.533
620.945,893.3
621.077,896.733
621.21,900.7
621.342,900.9
621.474,909.6
621.607,912.733
621.739,924.267
621.871,933.2
622.004,941.967
622.136,954.767
622.268,960.733
622.401,966.1
622.533,954.433
622.665,941.6
622.797,927.5
622.93,915.767
623.062,904.667
623.194,899.533
623.326,894.8
623.459,895.3
623.591,891.367
623.723,892.633
623.856,888.767
623.988,889.067
624.12,888.833
624.252,889.0
624.384,888.067
624.517,890.0
624.649,889.3
624.781,887.2
624.913,892.567
625.046,892.0
625.178,891.667
625.31,894.1
625.442,893.767
625.574,898.7
625.707,902.0
625.839,906.833
625.971,910.833
626.103,917.7
626.235,929.1
626.368,951.667
626.5,985.367
626.632,1060.23
626.764,1185.67
626.896,1379.07
627.028,1643.53
627.161,1885.63
627.293,1955.73
627.425,1857.0
627.557,1700.37
627.689,1574.83
627.821,1486.43
627.953,1450.73
628.086,1431.4
628.218,1468.4
628.35,1595.7
628.482,1917.77
628.614,2150.13
628.746,1823.9
628.878,1504.73
629.01,1410.17
629.143,1380.73
629.275,1360.2
629.407,1331.9
629.539,1283.7
629.671,1232.83
629.803,1201.6
629.935,1175.1
630.067,1154.63
630.199,1149.8
630.331,1147.83
630.463,1146.57
630.596,1126.17
630.728,1096.4
630.86,1058.7
630.992,1016.87
631.124,976.567
631.256,946.6
631.388,926.033
631.52,915.567
631.652,908.567
631.784,901.267
631.916,901.967
632.048,894.033
632.18,892.4
632.312,893.167
632.444,888.467
632.576,891.7
632.708,888.033
632.84,887.4
632.972,886.6
633.104,887.0
633.236,884.367
633.368,883.467
633.5,882.8
633.632,882.2
633.764,880.133
633.896,880.167
634.028,879.8
634.16,879.267
634.292,875.7
634.424,876.767
634.556,878.333
634.688,876.833
634.82,874.733
634.952,873.267
635.084,874.9
635.216,874.0
635.348,873.5
635.48,871.733
635.612,874.633
635.744,875.0
635.876,872.8
636.007,873.567
636.139,872.233
636.271,872.867
636.403,871.6
636.535,873.067
636.667,872.5
636.799,872.367
636.931,873.467
637.063,869.8
637.195,869.6
637.327,869.0
637.459,868.667
637.59,867.467
637.722,867.433
637.854,867.433
637.986,867.267
638.118,865.667
638.25,867.0
638.382,865.9
638.514,865.867
638.645,864.833
638.777,865.433
638.909,866.367
639.041,868.033
639.173,866.467
639.305,866.567
639.437,865.633
639.568,866.433
639.7,866.3
639.832,867.8
639.964,864.433
640.096,865.133
640.228,865.667
640.36,866.533
640.491,866.167
640.623,866.267
640.755,865.033
640.887,865.6
641.019,866.367
641.15,865.367
641.282,866.167
641.414,867.067
641.546,865.233
641.678,866.467
641.81,866.3
641.941,863.867
642.073,865.367
642.205,866.2
642.337,865.3
642.468,866.367
642.6,865.433
642.732,865.667
642.864,865.567
642.996,865.567
643.127,864.4
643.259,865.0
643.391,865.067
643.523,864.633
643.654,865.267
643.786,864.467
643.918,863.367
644.05,863.267
644.181,864.833
644.313,864.967
644.445,865.767
644.577,866.333
644.708,865.567
644.84,863.6
644.972,863.0
645.104,867.333
645.235,864.833
645.367,863.067
645.499,862.533
645.631,862.1
645.762,864.567
645.894,863.1
646.026,862.467
646.157,862.167
646.289,862.133
646.421,862.533
646.553,860.7
646.684,863.167
646.816,864.4
646.948,863.367
647.079,863.067
647.211,863.2
647.343,863.567
647.474,862.0
647.606,861.667
647.738,863.133
647.869,863.767
648.001,863.233
648.133,863.4
648.265,861.533
648.396,862.333
648.528,862.767
648.66,863.6
648.791,864.3
648.923,863.067
649.054,862.067
649.186,862.933
649.318,861.667
649.449,862.1
649.581,860.033
649.713,862.0
649.844,862.833
649.976,863.233
650.108,862.8
650.239,862.4
650.371,861.867
650.503,863.367
650.634,863.233
650.766,862.767
650.897,861.467
651.029,862.4
651.161,864.233
651.292,862.033
651.424,859.9
651.556,860.333
651.687,861.067
651.819,860.367
651.95,862.933
652.082,863.733
652.214,863.367
652.345,861.9
652.477,861.567
652.608,863.067
652.74,862.0
652.872,863.233
653.003,863.833
653.135,862.433
653.266,861.1
653.398,861.033
653.529,863.867
653.661,862.833
653.793,862.2
653.924,862.967
654.056,862.1
654.187,862.633
654.319,860.7
654.45,862.767
654.582,860.4
654.714,861.333
654.845,861.433
654.977,861.5
655.108,861.333
655.24,861.2
655.371,860.6
655.503,861.567
655.634,860.633
655.766,861.433
655.897,860.167
656.029,858.4
656.161,857.2
656.292,853.667
656.424,859.3
656.555,860.033
656.687,861.333
656.818,861.467
656.95,862.1
657.081,861.2
657.213,861.6
657.344,862.567
657.476,860.433
657.607,861.433
657.739,862.1
657.87,861.767
658.002,861.567
658.133,860.533
658.265,862.067
658.396,862.233
658.528,861.067
658.659,861.633
658.791,861.9
658.922,861.867
659.054,862.067
659.185,861.8
659.317,862.2
659.448,861.767
659.58,860.9
659.711,862.267
659.843,863.833
659.974,864.367
660.106,864.3
660.237,863.567
660.368,864.267
660.5,862.067
660.631,862.167
660.763,862.733
660.894,861.167
661.026,861.0
661.157,859.933
661.289,861.533
661.42,861.067
661.552,861.733
661.683,860.9
661.815,860.1
661.946,859.233
662.077,859.0
662.209,858.567
662.34,860.133
662.472,859.367
662.603,859.967
662.735,858.533
662.866,858.833
662.997,858.367
663.129,858.633