File: spectra/VLFR_08-PLA_bio_Raman_0fc1cdc9.csv
nm,Intensity
528.626,1862.8
528.795,1864.3
528.963,1862.2
529.132,1863.1
529.3,1863.4
529.469,1862.6
529.637,1864.9
529.806,1863.7
529.974,1863.0
530.143,1862.3
530.311,1864.0
530.48,1863.2
530.648,1864.0
530.816,1863.6
530.985,1865.0
531.153,1865.6
531.322,1866.7
531.49,1874.4
531.658,1906.2
531.827,2582.4
531.995,4497.6
532.164,4443.9
532.332,2210.0
532.5,1869.1
532.669,1865.9
532.837,1865.7
533.006,1865.4
533.174,1864.2
533.342,1866.1
533.511,1877.4
533.679,1948.9
533.847,2105.8
534.016,2211.5
534.184,2258.3
534.352,2268.7
534.521,2274.2
534.689,2279.8
534.857,2292.0
535.025,2287.6
535.194,2315.5
535.362,2345.4
535.53,2352.4
535.699,2368.8
535.867,2348.2
536.035,2348.4
536.203,2339.6
536.372,2316.6
536.54,2328.3
536.708,2334.7
536.876,2334.6
537.044,2334.6
537.213,2370.9
537.381,2362.5
537.549,2357.0
537.717,2345.3
537.885,2348.2
538.054,2369.8
538.222,2365.6
538.39,2368.6
538.558,2356.5
538.726,2360.9
538.894,2374.5
539.063,2418.8
539.231,2451.3
539.399,2439.0
539.567,2390.0
539.735,2360.7
539.903,2362.0
540.071,2361.1
540.239,2360.7
540.408,2358.5
540.576,2355.2
540.744,2389.3
540.912,2384.6
541.08,2362.1
541.248,2382.3
541.416,2393.7
541.584,2407.0
541.752,2401.9
541.92,2399.6
542.088,2390.5
542.256,2410.8
542.424,2417.4
542.592,2423.7
542.76,2438.2
542.928,2440.6
543.096,2443.8
543.264,2424.4
543.432,2432.1
543.6,2431.5
543.768,2493.9
543.936,2592.0
544.104,2677.0
544.272,2598.6
544.44,2486.5
544.608,2433.8
544.776,2458.4
544.944,2472.7
545.112,2451.1
545.28,2457.1
545.448,2436.8
545.616,2454.0
545.784,2483.5
545.951,2489.1
546.119,2516.9
546.287,2560.2
546.455,2648.8
546.623,2617.6
546.791,2528.8
546.959,2512.7
547.127,2512.1
547.294,2497.6
547.462,2485.0
547.63,2466.7
547.798,2514.6
547.966,2504.0
548.134,2483.8
548.301,2506.9
548.469,2531.4
548.637,2529.5
548.805,2508.9
548.972,2528.5
549.14,2538.8
549.308,2542.5
549.476,2561.8
549.644,2535.4
549.811,2561.6
549.979,2607.2
550.147,2590.4
550.315,2601.4
550.482,2577.5
550.65,2564.6
550.818,2572.7
550.985,2573.9
551.153,2566.2
551.321,2556.9
551.488,2575.0
551.656,2589.1
551.824,2633.5
551.991,2605.7
552.159,2603.5
552.327,2590.2
552.494,2559.9
552.662,2563.4
552.83,2566.6
552.997,2542.8
553.165,2581.1
553.333,2589.9
553.5,2566.5
553.668,2592.8
553.835,2596.7
554.003,2589.4
554.171,2590.8
554.338,2600.1
554.506,2597.3
554.673,2605.8
554.841,2624.7
555.008,2637.4
555.176,2617.1
555.343,2587.1
555.511,2604.6
555.679,2617.4
555.846,2614.0
556.014,2636.0
556.181,2622.3
556.349,2614.6
556.516,2596.4
556.684,2609.6
556.851,2617.2
557.018,2617.3
557.186,2601.6
557.353,2612.9
557.521,2611.7
557.688,2649.8
557.856,2668.2
558.023,2634.2
558.191,2673.4
558.358,2631.3
558.525,2629.6
558.693,2623.2
558.86,2618.8
559.028,2638.2
559.195,2636.4
559.362,2632.5
559.53,2640.4
559.697,2661.9
559.864,2649.8
560.032,2650.0
560.199,2633.7
560.366,2665.9
560.534,2676.0
560.701,2717.4
560.868,2699.8
561.036,2709.9
561.203,2734.5
561.37,2725.8
561.538,2719.1
561.705,2801.8
561.872,2943.2
562.039,3462.9
562.207,4478.1
562.374,4523.1
562.541,3409.5
562.708,2893.4
562.876,2802.5
563.043,2760.9
563.21,2748.3
563.377,2748.7
563.545,2716.2
563.712,2716.5
563.879,2712.6
564.046,2715.3
564.213,2728.1
564.38,2767.7
564.548,2756.8
564.715,2747.2
564.882,2761.9
565.049,2763.1
565.216,2748.6
565.383,2749.8
565.551,2745.3
565.718,2749.6
565.885,2786.2
566.052,2828.6
566.219,2883.1
566.386,2972.3
566.553,2932.0
566.72,2860.0
566.887,2808.1
567.054,2792.4
567.221,2796.6
567.388,2780.6
567.555,2777.8
567.722,2800.3
567.889,2783.4
568.057,2817.7
568.224,2804.5
568.391,2785.0
568.558,2781.0
568.725,2781.1
568.892,2798.4
569.058,2822.6
569.225,2810.6
569.392,2813.8
569.559,2827.9
569.726,2837.0
569.893,2805.9
570.06,2816.7
570.227,2825.6
570.394,2845.4
570.561,2816.0
570.728,2839.7
570.895,2819.5
571.062,2828.0
571.229,2847.0
571.395,2886.2
571.562,2892.9
571.729,2875.8
571.896,2887.0
572.063,2877.5
572.23,2907.6
572.397,2902.4
572.563,2888.2
572.73,2877.4
572.897,2877.0
573.064,2880.5
573.231,2856.5
573.397,2871.4
573.564,2881.3
573.731,2865.6
573.898,2858.3
574.064,2854.9
574.231,2854.6
574.398,2843.7
574.565,2858.7
574.731,2859.7
574.898,2861.7
575.065,2870.5
575.232,2833.1
575.398,2851.0
575.565,2864.2
575.732,2873.0
575.898,2866.6
576.065,2870.4
576.232,2865.8
576.398,2882.8
576.565,2894.7
576.732,2892.0
576.898,2916.3
577.065,2902.1
577.232,2863.7
577.398,2873.5
577.565,2920.6
577.731,2873.5
577.898,2861.7
578.065,2886.9
578.231,2846.2
578.398,2836.2
578.564,2845.4
578.731,2906.3
578.897,2887.6
579.064,2859.4
579.23,2888.6
579.397,2849.5
579.563,2881.2
579.73,2911.6
579.896,2892.0
580.063,2915.4
580.229,2903.2
580.396,2906.3
580.562,2882.5
580.729,2915.5
580.895,2900.5
581.062,2933.3
581.228,2946.8
581.395,2895.5
581.561,2909.3
581.728,2930.3
581.894,2907.5
582.06,2924.6
582.227,2922.4
582.393,2926.0
582.56,2962.3
582.726,2936.6
582.892,2939.9
583.059,2939.1
583.225,2926.7
583.391,2927.2
583.558,2937.9
583.724,2937.3
583.89,2935.0
584.057,2931.4
584.223,2962.1
584.389,2951.0
584.556,2923.3
584.722,2941.5
584.888,2899.7
585.054,2923.4
585.221,2921.3
585.387,2927.6
585.553,2885.1
585.719,2936.5
585.886,2909.6
586.052,2926.9
586.218,2918.1
586.384,2938.6
586.55,2918.4
586.717,2923.5
586.883,2930.3
587.049,2947.9
587.215,2935.5
587.381,2938.5
587.548,2945.6
587.714,2933.9
587.88,2945.7
588.046,2938.2
588.212,2934.0
588.378,2915.5
588.544,2951.2
588.71,2906.4
588.876,2829.9
589.043,2835.0
589.209,2865.9
589.375,2848.2
589.541,2863.2
589.707,2844.4
589.873,2883.4
590.039,2931.2
590.205,2924.0
590.371,2919.7
590.537,2900.0
590.703,2928.1
590.869,2907.6
591.035,2936.4
591.201,2939.1
591.367,2911.3
591.533,2919.7
591.699,2931.9
591.865,2915.1
592.031,2931.9
592.197,2956.6
592.363,2940.8
592.529,2937.1
592.694,2937.2
592.86,2949.5
593.026,2919.1
593.192,2934.2
593.358,2967.2
593.524,2940.9
593.69,2941.1
593.856,2938.2
594.021,2923.5
594.187,2937.6
594.353,2927.3
594.519,2912.5
594.685,2929.3
594.851,2920.8
595.016,2938.7
595.182,2943.8
595.348,2974.9
595.514,2994.4
595.68,2965.3
595.845,2946.5
596.011,2939.8
596.177,2972.8
596.342,2984.4
596.508,2984.8
596.674,2949.9
596.84,2978.5
597.005,2963.0
597.171,2962.0
597.337,2992.2
597.502,2958.5
597.668,2943.6
597.834,2970.4
597.999,2976.1
598.165,2985.4
598.331,2947.3
598.496,2945.3
598.662,2973.6
598.828,2970.7
598.993,2954.6
599.159,2957.8
599.324,2975.4
599.49,3010.6
599.656,2976.7
599.821,2975.4
599.987,2985.2
600.152,3001.8
600.318,2973.2
600.483,2969.4
600.649,2974.4
600.814,2941.8
600.98,2977.5
601.145,2984.7
601.311,3010.0
601.476,2986.0
601.642,2973.1
601.807,2975.1
601.973,2981.8
602.138,2945.9
602.304,2978.0
602.469,2977.8
602.635,2988.4
602.8,3023.7
602.965,3009.9
603.131,2992.2
603.296,3021.3
603.462,3019.2
603.627,2988.3
603.792,3004.1
603.958,2994.7
604.123,3009.3
604.288,2988.0
604.454,2989.6
604.619,3024.2
604.784,3031.2
604.95,2999.1
605.115,2983.7
605.28,3015.6
605.446,3035.9
605.611,3020.4
605.776,3001.7
605.941,3001.3
606.107,2995.8
606.272,2999.6
606.437,3016.4
606.602,3001.5
606.767,3013.7
606.933,3002.3
607.098,3024.5
607.263,2978.1
607.428,3006.9
607.593,3031.3
607.759,2988.3
607.924,3019.9
608.089,3024.3
608.254,2958.8
608.419,2984.2
608.584,3027.9
608.749,3014.2
608.915,2986.4
609.08,3005.7
609.245,2987.6
609.41,3000.2
609.575,3015.5
609.74,2998.7
609.905,2993.1
610.07,3019.6
610.235,2975.6
610.4,2980.9
610.565,3022.3
610.73,3022.7
610.895,3026.2
611.06,2993.8
611.225,2994.4
611.39,3027.2
611.555,3007.8
611.72,3043.0
611.885,2989.6
612.05,2984.2
612.215,2989.6
612.38,3004.3
612.545,3016.7
612.71,3016.3
612.875,3014.8
613.04,3010.7
613.204,3001.0
613.369,3013.1
613.534,2991.4
613.699,2992.0
613.864,2973.0
614.029,3003.2
614.194,2999.1
614.358,3009.4
614.523,3055.1
614.688,3016.5
614.853,3009.3
615.018,3019.9
615.182,3039.5
615.347,2993.9
615.512,3015.1
615.677,3021.0
615.841,2991.6
616.006,2999.1
616.171,2926.9
616.336,2948.8
616.5,2979.3
616.665,3015.2
616.83,3009.2
616.994,2983.7
617.159,2993.9
617.324,3009.3
617.489,3001.8
617.653,2979.9
617.818,3040.6
617.982,3028.5
618.147,3017.8
618.312,3005.1
618.476,3020.8
618.641,2996.3
618.805,3010.6
618.97,2975.6
619.135,3007.8
619.299,2988.9
619.464,3041.3
619.628,3020.6
619.793,3029.4
619.957,3028.0
620.122,3056.1
620.286,2989.6
620.451,3019.6
620.615,3005.7
620.78,3023.2
620.944,3017.4
621.109,2958.0
621.273,3001.2
621.438,2990.3
621.602,2989.3
621.767,2996.2
621.931,3013.2
622.095,2999.4
622.26,3058.0
622.424,2971.1
622.589,2988.0
622.753,3006.8
622.917,3026.9
623.082,2973.7
623.246,2977.9
623.41,3021.2
623.575,2980.5
623.739,2978.4
623.903,2984.1
624.068,3021.4
624.232,2999.5
624.396,2962.6
624.561,2973.9
624.725,2988.8
624.889,3024.6
625.053,3007.8
625.218,2952.6
625.382,2952.6
625.546,2958.7
625.71,2943.9
625.875,2948.5
626.039,2934.5
626.203,2984.8
626.367,2979.1
626.531,2999.8
626.695,2984.7
626.86,2941.3
627.024,2969.3
627.188,2978.3
627.352,2987.5
627.516,2957.7
627.68,2909.4
627.844,2957.9
628.008,2947.7
628.172,2920.7
628.337,2978.1
628.501,2960.8
628.665,2977.9
628.829,3001.5
628.993,2975.2
629.157,2995.3
629.321,2971.4
629.485,2972.3
629.649,2935.0
629.813,3003.2
629.977,2967.7
630.141,2941.9
630.305,2975.6
630.469,2978.2
630.633,3000.6
630.797,3031.2
630.96,3025.8
631.124,2979.0
631.288,2981.5
631.452,2976.3
631.616,2969.7
631.78,2933.7
631.944,2957.6
632.108,2940.0
632.272,2969.8
632.435,2974.9
632.599,2955.3
632.763,2968.3
632.927,2978.0
633.091,2993.5
633.254,2959.9
633.418,2971.9
633.582,2943.1
633.746,2946.6
633.91,2960.0
634.073,2928.1
634.237,2927.1
634.401,2906.7
634.564,2932.6
634.728,2939.4
634.892,2963.9
635.056,2923.8
635.219,2903.8
635.383,2917.7
635.547,2867.1
635.71,2922.2
635.874,2901.2
636.038,2876.6
636.201,2885.7
636.365,2918.2
636.528,2927.8
636.692,2880.4
636.856,2905.2
637.019,2878.5
637.183,2935.9
637.346,2895.3
637.51,2927.6
637.673,2929.7
637.837,2888.2
638.0,2906.1
638.164,2902.1
638.327,2898.8
638.491,2889.6
638.654,2886.9
638.818,2901.3
638.981,2921.6
639.145,2888.4
639.308,2896.8
639.472,2883.2
639.635,2898.4
639.799,2866.4
639.962,2841.9
640.125,2874.0
640.289,2886.3
640.452,2884.3
640.616,2845.8
640.779,2861.0
640.942,2845.6
641.106,2841.9
641.269,2885.0
641.432,2871.2
641.596,2908.4
641.759,2862.9
641.922,2844.2
642.085,2863.2
642.249,2849.8
642.412,2889.8
642.575,2895.7
642.738,2909.5
642.902,2886.0
643.065,2874.7
643.228,2867.1
643.391,2914.6
643.555,2858.5
643.718,2880.5
643.881,2866.9
644.044,2903.5
644.207,2902.7
644.37,2902.5
644.534,2900.2
644.697,2868.5
644.86,2848.9
645.023,2861.2
645.186,2917.3
645.349,2902.4
645.512,2883.8
645.675,2876.3
645.838,2893.3
646.001,2857.0
646.164,2882.9
646.327,2904.5
646.49,2855.1
646.653,2902.6
646.816,2867.3
646.979,2907.4
647.142,2883.3
647.305,2900.7
647.468,2901.8
647.631,2908.8
647.794,2912.7
647.957,2893.7
648.12,2906.6
648.283,2935.1
648.446,2956.2
648.609,2977.6
648.772,2974.6
648.935,3051.0
649.098,3039.0
649.26,3120.6
649.423,3115.9
649.586,3127.0
649.749,3159.9
649.912,3278.9
650.075,3174.2
650.237,3151.6
650.4,3139.6
650.563,3115.0
650.726,3044.4
650.888,2995.1
651.051,2990.8
651.214,2952.2
651.377,2879.4
651.539,2867.2
651.702,2823.5
651.865,2830.0
652.027,2847.0
652.19,2846.4
652.353,2836.8
652.515,2806.4
652.678,2801.3
652.841,2783.4
653.003,2780.5
653.166,2764.1
653.329,2753.7
653.491,2749.6
653.654,2754.5
653.816,2765.1
653.979,2753.1
654.142,2738.1
654.304,2724.8
654.467,2687.1
654.629,2676.6
654.792,2679.7
654.954,2692.1
655.117,2682.7
655.279,2691.3
655.442,2668.7
655.604,2635.9
655.767,2696.8
655.929,2644.5
656.091,2583.0
656.254,2541.6
656.416,2558.9
656.579,2604.1
656.741,2628.8
656.904,2614.5
657.066,2607.3
657.228,2628.2
657.391,2632.7
657.553,2645.3
657.715,2621.1
657.878,2609.3
658.04,2625.7
658.202,2603.5
658.365,2661.5
658.527,2621.3
658.689,2587.6
658.851,2607.1
659.014,2618.7
659.176,2587.9
659.338,2530.5
659.5,2575.4
659.663,2563.9
659.825,2576.5
659.987,2562.9
660.149,2572.9
660.311,2601.7
660.474,2562.7
660.636,2574.5
660.798,2586.2
660.96,2544.6
661.041,2543.6