File: spectra/VLFR_08-PLA_bio_Raman_a251a57e.csv
nm,Intensity
528.626,1861.8
528.795,1863.6
528.963,1865.5
529.132,1862.9
529.3,1863.9
529.469,1864.0
529.637,1862.8
529.806,1864.5
529.974,1865.4
530.143,1863.2
530.311,1865.4
530.48,1864.7
530.648,1862.6
530.816,1866.5
530.985,1864.7
531.153,1866.7
531.322,1872.8
531.49,1879.0
531.658,1935.4
531.827,2732.4
531.995,4989.8
532.164,4759.1
532.332,2317.2
532.5,1872.7
532.669,1867.1
532.837,1867.2
533.006,1868.5
533.174,1867.1
533.342,1872.7
533.511,1913.6
533.679,2168.5
533.847,2684.8
534.016,2963.2
534.184,2990.5
534.352,2894.8
534.521,2829.7
534.689,2812.1
534.857,2744.9
535.025,2714.7
535.194,2665.3
535.362,2625.2
535.53,2602.7
535.699,2570.1
535.867,2519.4
536.035,2499.0
536.203,2491.2
536.372,2530.4
536.54,2557.2
536.708,2542.2
536.876,2500.6
537.044,2475.2
537.213,2483.7
537.381,2507.7
537.549,2486.9
537.717,2486.3
537.885,2503.5
538.054,2447.9
538.222,2436.9
538.39,2415.5
538.558,2394.7
538.726,2413.6
538.894,2397.7
539.063,2379.6
539.231,2391.5
539.399,2383.2
539.567,2370.4
539.735,2334.0
539.903,2353.1
540.071,2377.2
540.239,2384.9
540.408,2395.6
540.576,2462.4
540.744,2456.6
540.912,2440.0
541.08,2466.9
541.248,2460.2
541.416,2451.2
541.584,2417.6
541.752,2396.3
541.92,2374.3
542.088,2390.5
542.256,2384.7
542.424,2385.8
542.592,2385.5
542.76,2407.1
542.928,2450.2
543.096,2466.6
543.264,2533.1
543.432,2583.5
543.6,2613.9
543.768,2623.0
543.936,2600.3
544.104,2569.9
544.272,2516.5
544.44,2432.5
544.608,2415.5
544.776,2402.4
544.944,2382.3
545.112,2391.2
545.28,2390.1
545.448,2358.0
545.616,2349.7
545.784,2350.6
545.951,2372.0
546.119,2361.4
546.287,2351.8
546.455,2367.4
546.623,2387.2
546.791,2377.1
546.959,2371.6
547.127,2389.6
547.294,2393.9
547.462,2381.4
547.63,2361.6
547.798,2387.6
547.966,2396.4
548.134,2369.9
548.301,2396.5
548.469,2389.5
548.637,2407.5
548.805,2388.3
548.972,2422.6
549.14,2419.7
549.308,2425.9
549.476,2412.0
549.644,2414.6
549.811,2407.5
549.979,2392.2
550.147,2432.8
550.315,2413.5
550.482,2417.5
550.65,2438.6
550.818,2454.4
550.985,2465.6
551.153,2470.7
551.321,2463.5
551.488,2488.9
551.656,2487.4
551.824,2502.0
551.991,2479.1
552.159,2516.3
552.327,2504.4
552.494,2498.1
552.662,2510.0
552.83,2501.2
552.997,2508.6
553.165,2476.5
553.333,2450.9
553.5,2477.4
553.668,2508.2
553.835,2566.5
554.003,2559.8
554.171,2551.2
554.338,2518.6
554.506,2500.0
554.673,2518.3
554.841,2499.1
555.008,2488.9
555.176,2471.0
555.343,2474.2
555.511,2450.6
555.679,2439.1
555.846,2451.9
556.014,2455.7
556.181,2468.2
556.349,2443.1
556.516,2466.0
556.684,2454.3
556.851,2456.1
557.018,2475.4
557.186,2534.1
557.353,2576.2
557.521,2707.4
557.688,2911.5
557.856,3189.7
558.023,3478.8
558.191,3377.6
558.358,2964.2
558.525,2731.0
558.693,2622.8
558.86,2609.7
559.028,2605.2
559.195,2585.9
559.362,2564.2
559.53,2567.9
559.697,2574.6
559.864,2541.5
560.032,2513.3
560.199,2525.9
560.366,2514.2
560.534,2511.1
560.701,2505.6
560.868,2548.3
561.036,2523.9
561.203,2524.6
561.37,2492.7
561.538,2466.9
561.705,2476.2
561.872,2516.3
562.039,2508.5
562.207,2520.3
562.374,2533.2
562.541,2538.7
562.708,2574.3
562.876,2612.9
563.043,2684.5
563.21,2727.1
563.377,2834.3
563.545,2811.9
563.712,2744.8
563.879,2665.6
564.046,2603.9
564.213,2599.9
564.38,2576.9
564.548,2619.5
564.715,2694.0
564.882,2745.8
565.049,2730.3
565.216,2752.0
565.383,2741.9
565.551,2757.1
565.718,2755.7
565.885,2835.4
566.052,2962.6
566.219,2947.1
566.386,2833.1
566.553,2728.7
566.72,2640.3
566.887,2601.9
567.054,2566.0
567.221,2564.8
567.388,2565.5
567.555,2591.8
567.722,2637.7
567.889,2667.4
568.057,2638.0
568.224,2654.7
568.391,2610.4
568.558,2623.4
568.725,2607.3
568.892,2624.0
569.058,2623.9
569.225,2618.6
569.392,2592.6
569.559,2620.8
569.726,2588.7
569.893,2595.3
570.06,2588.0
570.227,2605.5
570.394,2603.9
570.561,2596.2
570.728,2613.4
570.895,2617.7
571.062,2625.1
571.229,2651.5
571.395,2740.1
571.562,2793.2
571.729,2810.4
571.896,2777.4
572.063,2743.0
572.23,2727.4
572.397,2754.9
572.563,2724.9
572.73,2731.3
572.897,2723.9
573.064,2737.9
573.231,2713.8
573.397,2736.8
573.564,2753.5
573.731,2732.2
573.898,2716.5
574.064,2718.2
574.231,2730.4
574.398,2768.1
574.565,2765.5
574.731,2722.9
574.898,2669.3
575.065,2624.0
575.232,2625.3
575.398,2631.5
575.565,2624.6
575.732,2618.1
575.898,2681.1
576.065,2696.5
576.232,2804.6
576.398,2919.0
576.565,3154.3
576.732,3207.5
576.898,3229.9
577.065,3068.1
577.232,2885.3
577.398,2745.5
577.565,2690.2
577.731,2664.4
577.898,2643.1
578.065,2629.2
578.231,2640.3
578.398,2617.7
578.564,2603.7
578.731,2646.9
578.897,2625.0
579.064,2623.7
579.23,2643.1
579.397,2616.5
579.563,2651.0
579.73,2645.5
579.896,2613.5
580.063,2619.5
580.229,2635.2
580.396,2619.8
580.562,2626.0
580.729,2637.1
580.895,2624.4
581.062,2625.5
581.228,2651.9
581.395,2641.5
581.561,2611.8
581.728,2622.7
581.894,2671.2
582.06,2646.0
582.227,2637.3
582.393,2615.2
582.56,2634.9
582.726,2636.8
582.892,2649.5
583.059,2636.9
583.225,2634.7
583.391,2665.4
583.558,2651.0
583.724,2654.7
583.89,2681.4
584.057,2654.8
584.223,2652.0
584.389,2665.9
584.556,2644.9
584.722,2660.5
584.888,2648.7
585.054,2641.1
585.221,2633.4
585.387,2614.1
585.553,2645.1
585.719,2643.6
585.886,2660.9
586.052,2691.7
586.218,2670.8
586.384,2734.9
586.55,2825.6
586.717,2921.4
586.883,2988.4
587.049,3022.1
587.215,3050.2
587.381,3122.5
587.548,3156.5
587.714,3032.3
587.88,2931.1
588.046,2791.8
588.212,2695.2
588.378,2691.2
588.544,2654.7
588.71,2671.6
588.876,2609.7
589.043,2611.4
589.209,2617.4
589.375,2606.6
589.541,2620.3
589.707,2625.8
589.873,2630.2
590.039,2613.0
590.205,2613.0
590.371,2631.9
590.537,2622.5
590.703,2643.7
590.869,2636.2
591.035,2649.8
591.201,2668.4
591.367,2623.4
591.533,2629.1
591.699,2608.8
591.865,2623.1
592.031,2651.1
592.197,2655.8
592.363,2651.8
592.529,2634.8
592.694,2639.8
592.86,2639.3
593.026,2625.2
593.192,2638.3
593.358,2651.1
593.524,2644.0
593.69,2651.3
593.856,2617.1
594.021,2619.8
594.187,2617.2
594.353,2653.2
594.519,2632.0
594.685,2628.1
594.851,2632.0
595.016,2641.7
595.182,2626.5
595.348,2646.3
595.514,2649.6
595.68,2642.5
595.845,2665.5
596.011,2652.0
596.177,2660.8
596.342,2628.9
596.508,2650.6
596.674,2655.5
596.84,2647.2
597.005,2665.7
597.171,2646.0
597.337,2678.4
597.502,2642.1
597.668,2639.4
597.834,2647.3
597.999,2662.3
598.165,2651.5
598.331,2651.7
598.496,2661.3
598.662,2666.9
598.828,2671.5
598.993,2677.6
599.159,2657.3
599.324,2678.0
599.49,2663.4
599.656,2690.3
599.821,2648.4
599.987,2661.1
600.152,2664.0
600.318,2665.4
600.483,2667.6
600.649,2695.2
600.814,2675.5
600.98,2681.8
601.145,2634.7
601.311,2667.1
601.476,2672.5
601.642,2654.2
601.807,2666.2
601.973,2686.3
602.138,2678.6
602.304,2652.7
602.469,2668.5
602.635,2678.2
602.8,2661.6
602.965,2714.5
603.131,2690.7
603.296,2662.8
603.462,2660.4
603.627,2652.6
603.792,2676.1
603.958,2666.4
604.123,2691.9
604.288,2653.6
604.454,2657.0
604.619,2673.4
604.784,2703.6
604.95,2692.7
605.115,2680.7
605.28,2659.0
605.446,2680.2
605.611,2681.0
605.776,2686.0
605.941,2684.4
606.107,2671.5
606.272,2667.1
606.437,2697.0
606.602,2672.0
606.767,2643.9
606.933,2683.8
607.098,2713.3
607.263,2700.0
607.428,2677.9
607.593,2689.0
607.759,2680.9
607.924,2666.1
608.089,2686.1
608.254,2691.9
608.419,2692.0
608.584,2695.1
608.749,2681.3
608.915,2687.3
609.08,2677.7
609.245,2706.6
609.41,2673.0
609.575,2678.1
609.74,2701.4
609.905,2698.9
610.07,2677.8
610.235,2664.4
610.4,2699.1
610.565,2717.2
610.73,2690.8
610.895,2672.5
611.06,2682.8
611.225,2690.9
611.39,2716.6
611.555,2693.8
611.72,2703.1
611.885,2683.6
612.05,2679.3
612.215,2669.4
612.38,2694.9
612.545,2681.7
612.71,2688.6
612.875,2694.9
613.04,2721.4
613.204,2676.3
613.369,2672.8
613.534,2687.9
613.699,2678.2
613.864,2685.8
614.029,2696.7
614.194,2676.5
614.358,2688.2
614.523,2709.4
614.688,2697.7
614.853,2689.1
615.018,2671.8
615.182,2711.9
615.347,2713.8
615.512,2704.3
615.677,2697.7
615.841,2695.1
616.006,2679.9
616.171,2726.5
616.336,2684.9
616.5,2689.8
616.665,2711.7
616.83,2701.8
616.994,2698.3
617.159,2677.7
617.324,2699.8
617.489,2719.8
617.653,2711.6
617.818,2671.0
617.982,2681.7
618.147,2733.4
618.312,2701.0
618.476,2707.7
618.641,2696.7
618.805,2692.9
618.97,2714.6
619.135,2683.0
619.299,2667.2
619.464,2710.4
619.628,2719.9
619.793,2693.7
619.957,2709.6
620.122,2708.9
620.286,2672.0
620.451,2715.9
620.615,2709.5
620.78,2693.7
620.944,2694.9
621.109,2690.2
621.273,2682.3
621.438,2698.8
621.602,2688.3
621.767,2706.1
621.931,2698.1
622.095,2710.1
622.26,2715.8
622.424,2759.5
622.589,2767.1
622.753,2791.5
622.917,2818.8
623.082,2815.7
623.246,2802.2
623.41,2765.4
623.575,2767.1
623.739,2775.0
623.903,2762.4
624.068,2714.4
624.232,2713.8
624.396,2694.7
624.561,2721.3
624.725,2713.8
624.889,2688.8
625.053,2664.8
625.218,2689.1
625.382,2698.4
625.546,2685.3
625.71,2664.0
625.875,2686.4
626.039,2699.1
626.203,2689.3
626.367,2694.8
626.531,2684.6
626.695,2674.6
626.86,2692.8
627.024,2690.5
627.188,2704.6
627.352,2715.0
627.516,2705.6
627.68,2723.8
627.844,2778.9
628.008,2884.2
628.172,3028.1
628.337,3219.3
628.501,3295.7
628.665,3294.8
628.829,3162.8
628.993,3161.1
629.157,3120.0
629.321,3133.0
629.485,3119.6
629.649,3150.7
629.813,3165.0
629.977,3165.2
630.141,3202.4
630.305,3359.7
630.469,3702.2
630.633,4194.1
630.797,5049.9
630.96,5956.5
631.124,6139.8
631.288,5588.2
631.452,4916.1
631.616,4363.3
631.78,3937.6
631.944,3731.1
632.108,3620.8
632.272,3514.0
632.435,3470.5
632.599,3538.8
632.763,3751.3
632.927,3911.7
633.091,4086.6
633.254,4219.6
633.418,4169.7
633.582,4036.3
633.746,3805.8
633.91,3539.8
634.073,3322.4
634.237,3126.9
634.401,2958.8
634.564,2891.6
634.728,2790.8
634.892,2785.7
635.056,2722.0
635.219,2650.5
635.383,2661.5
635.547,2649.0
635.71,2643.4
635.874,2612.0
636.038,2630.7
636.201,2606.3
636.365,2605.1
636.528,2617.0
636.692,2617.3
636.856,2605.5
637.019,2609.3
637.183,2591.6
637.346,2600.1
637.51,2589.2
637.673,2603.1
637.837,2578.3
638.0,2582.6
638.164,2587.0
638.327,2586.2
638.491,2578.3
638.654,2566.5
638.818,2576.5
638.981,2594.2
639.145,2567.6
639.308,2574.9
639.472,2557.5
639.635,2555.6
639.799,2543.3
639.962,2516.3
640.125,2549.2
640.289,2538.7
640.452,2558.7
640.616,2562.0
640.779,2527.0
640.942,2557.5
641.106,2555.2
641.269,2565.1
641.432,2531.9
641.596,2547.6
641.759,2539.8
641.922,2547.0
642.085,2558.1
642.249,2522.6
642.412,2549.1
642.575,2551.4
642.738,2534.7
642.902,2545.7
643.065,2510.7
643.228,2517.5
643.391,2503.4
643.555,2527.7
643.718,2498.5
643.881,2502.0
644.044,2488.7
644.207,2497.4
644.37,2494.1
644.534,2509.4
644.697,2487.0
644.86,2465.4
645.023,2470.1
645.186,2493.9
645.349,2474.6
645.512,2474.2
645.675,2480.5
645.838,2446.1
646.001,2467.9
646.164,2473.0
646.327,2457.5
646.49,2460.3
646.653,2468.8
646.816,2466.5
646.979,2453.4
647.142,2434.7
647.305,2456.8
647.468,2457.3
647.631,2448.7
647.794,2429.0
647.957,2432.4
648.12,2429.2
648.283,2439.8
648.446,2443.4
648.609,2429.0
648.772,2431.2
648.935,2455.5
649.098,2417.0
649.26,2411.7
649.423,2384.9
649.586,2398.3
649.749,2404.4
649.912,2430.9
650.075,2404.3
650.237,2417.1
650.4,2419.7
650.563,2415.7
650.726,2392.8
650.888,2403.0
651.051,2387.5
651.214,2400.2
651.377,2379.1
651.539,2379.1
651.702,2390.4
651.865,2376.0
652.027,2384.6
652.19,2384.8
652.353,2390.8
652.515,2374.7
652.678,2383.3
652.841,2375.2
653.003,2367.7
653.166,2395.5
653.329,2380.7
653.491,2351.9
653.654,2351.6
653.816,2367.1
653.979,2352.4
654.142,2354.1
654.304,2345.2
654.467,2363.8
654.629,2350.2
654.792,2329.4
654.954,2332.1
655.117,2339.4
655.279,2349.4
655.442,2342.6
655.604,2334.8
655.767,2327.6
655.929,2313.2
656.091,2313.3
656.254,2296.4
656.416,2284.7
656.579,2305.9
656.741,2330.6
656.904,2330.6
657.066,2310.7
657.228,2351.0
657.391,2318.9
657.553,2312.9
657.715,2314.4
657.878,2314.3
658.04,2298.1
658.202,2302.6
658.365,2295.3
658.527,2315.6
658.689,2299.2
658.851,2293.2
659.014,2290.7
659.176,2283.6
659.338,2271.6
659.5,2256.0
659.663,2288.4
659.825,2263.6
659.987,2281.0
660.149,2283.7
660.311,2287.9
660.474,2270.2
660.636,2280.6
660.798,2260.7
660.96,2278.6
661.041,2292.7