File: spectra/VLFR_08-PLA_bio_Raman_a860dec2.csv
nm,Intensity
528.65,1843.75
528.819,1844.95
528.987,1844.85
529.155,1844.65
529.324,1844.45
529.492,1844.1
529.66,1843.9
529.829,1843.9
529.997,1843.3
530.165,1844.65
530.334,1844.95
530.502,1844.1
530.67,1843.55
530.839,1844.0
531.007,1844.7
531.175,1845.85
531.344,1845.5
531.512,1847.7
531.68,1860.15
531.848,2015.55
532.017,2795.05
532.185,2431.8
532.353,1908.2
532.521,1847.2
532.69,1844.4
532.858,1844.7
533.026,1844.85
533.194,1844.7
533.363,1846.55
533.531,1867.7
533.699,1967.55
533.867,2151.75
534.036,2241.15
534.204,2248.0
534.372,2217.15
534.54,2198.55
534.708,2185.1
534.877,2168.5
535.045,2166.7
535.213,2175.8
535.381,2162.85
535.549,2153.8
535.717,2132.35
535.886,2123.55
536.054,2128.15
536.222,2126.5
536.39,2140.9
536.558,2140.25
536.726,2141.05
536.894,2121.25
537.062,2113.25
537.231,2110.85
537.399,2113.65
537.567,2130.15
537.735,2118.15
537.903,2126.15
538.071,2125.6
538.239,2111.05
538.407,2100.8
538.575,2110.9
538.743,2114.75
538.911,2119.35
539.079,2119.15
539.247,2116.2
539.415,2102.85
539.583,2097.9
539.751,2079.3
539.919,2085.05
540.087,2078.45
540.255,2093.95
540.423,2116.6
540.591,2135.2
540.759,2153.4
540.927,2146.7
541.095,2136.7
541.263,2129.2
541.431,2111.15
541.599,2114.15
541.767,2097.5
541.935,2097.35
542.103,2100.95
542.271,2096.55
542.439,2094.25
542.607,2096.45
542.775,2106.0
542.943,2114.55
543.111,2127.85
543.279,2151.4
543.446,2195.3
543.614,2213.3
543.782,2211.85
543.95,2220.9
544.118,2200.6
544.286,2152.6
544.454,2115.8
544.622,2110.95
544.789,2095.7
544.957,2105.15
545.125,2101.3
545.293,2097.35
545.461,2099.1
545.629,2089.25
545.796,2097.7
545.964,2096.4
546.132,2102.05
546.3,2104.0
546.468,2108.25
546.635,2116.75
546.803,2116.35
546.971,2113.35
547.139,2114.45
547.306,2121.25
547.474,2112.35
547.642,2119.3
547.81,2107.8
547.977,2117.3
548.145,2120.05
548.313,2127.85
548.481,2128.5
548.648,2124.85
548.816,2133.95
548.984,2126.35
549.151,2130.2
549.319,2135.05
549.487,2131.95
549.655,2136.7
549.822,2135.25
549.99,2141.1
550.158,2134.85
550.325,2151.3
550.493,2156.2
550.66,2148.4
550.828,2163.55
550.996,2156.5
551.163,2163.7
551.331,2150.6
551.499,2167.45
551.666,2162.2
551.834,2179.25
552.001,2183.85
552.169,2167.85
552.337,2172.9
552.504,2170.3
552.672,2176.0
552.839,2177.05
553.007,2184.3
553.174,2176.8
553.342,2158.1
553.509,2163.85
553.677,2159.95
553.844,2188.55
554.012,2199.85
554.179,2178.0
554.347,2178.7
554.514,2167.4
554.682,2148.05
554.849,2158.25
555.017,2158.65
555.184,2158.55
555.352,2159.55
555.519,2151.45
555.687,2154.1
555.854,2151.65
556.022,2145.65
556.189,2147.3
556.357,2153.7
556.524,2156.55
556.691,2162.75
556.859,2166.65
557.026,2160.75
557.194,2183.15
557.361,2194.1
557.528,2224.3
557.696,2317.8
557.863,2461.0
558.031,2554.9
558.198,2523.3
558.365,2354.85
558.533,2237.75
558.7,2215.25
558.867,2197.05
559.035,2216.0
559.202,2195.8
559.369,2196.35
559.537,2213.95
559.704,2203.7
559.871,2195.65
560.038,2183.75
560.206,2186.75
560.373,2191.45
560.54,2194.0
560.708,2185.0
560.875,2175.35
561.042,2179.75
561.209,2185.2
561.377,2184.25
561.544,2182.5
561.711,2191.25
561.878,2209.1
562.045,2227.7
562.213,2308.55
562.38,2335.9
562.547,2250.85
562.714,2215.45
562.881,2234.75
563.049,2266.05
563.216,2295.95
563.383,2310.4
563.55,2304.65
563.717,2272.05
563.884,2240.6
564.052,2220.5
564.219,2222.55
564.386,2224.55
564.553,2255.0
564.72,2263.8
564.887,2282.65
565.054,2285.35
565.221,2296.2
565.388,2269.8
565.556,2277.6
565.723,2303.15
565.89,2322.65
566.057,2375.6
566.224,2380.8
566.391,2343.55
566.558,2292.6
566.725,2249.0
566.892,2222.75
567.059,2227.95
567.226,2220.1
567.393,2232.5
567.56,2230.25
567.727,2254.45
567.894,2256.95
568.061,2258.0
568.228,2249.0
568.395,2240.7
568.562,2242.9
568.729,2253.7
568.896,2244.45
569.063,2257.9
569.23,2247.15
569.396,2247.0
569.563,2251.05
569.73,2247.8
569.897,2239.1
570.064,2238.35
570.231,2250.15
570.398,2248.45
570.565,2253.3
570.732,2251.05
570.898,2261.8
571.065,2264.1
571.232,2306.4
571.399,2334.2
571.566,2373.3
571.733,2349.65
571.9,2317.3
572.066,2309.4
572.233,2302.8
572.4,2288.5
572.567,2298.35
572.734,2297.45
572.9,2294.75
573.067,2296.85
573.234,2298.1
573.401,2284.0
573.567,2311.05
573.734,2305.85
573.901,2315.8
574.068,2300.2
574.234,2305.05
574.401,2325.95
574.568,2322.3
574.734,2323.7
574.901,2286.2
575.068,2267.45
575.235,2267.15
575.401,2274.15
575.568,2259.9
575.735,2272.3
575.901,2276.2
576.068,2290.3
576.235,2333.5
576.401,2386.55
576.568,2455.4
576.734,2477.25
576.901,2474.8
577.068,2410.4
577.234,2344.3
577.401,2316.65
577.567,2277.15
577.734,2265.55
577.901,2276.55
578.067,2276.2
578.234,2262.6
578.4,2263.35
578.567,2254.85
578.733,2267.9
578.9,2255.55
579.066,2266.85
579.233,2259.05
579.399,2263.85
579.566,2252.1
579.732,2264.85
579.899,2268.3
580.065,2256.45
580.232,2264.2
580.398,2263.15
580.565,2254.75
580.731,2272.3
580.898,2255.45
581.064,2269.4
581.231,2277.8
581.397,2255.35
581.563,2269.0
581.73,2269.3
581.896,2261.6
582.063,2274.35
582.229,2265.4
582.395,2268.15
582.562,2266.05
582.728,2270.25
582.895,2256.45
583.061,2278.4
583.227,2271.8
583.394,2264.3
583.56,2263.05
583.726,2277.3
583.893,2268.05
584.059,2268.45
584.225,2263.1
584.391,2264.7
584.558,2265.95
584.724,2262.0
584.89,2259.25
585.057,2265.5
585.223,2267.85
585.389,2265.1
585.555,2266.55
585.722,2270.4
585.888,2272.55
586.054,2266.85
586.22,2277.3
586.386,2298.1
586.553,2307.6
586.719,2351.5
586.885,2377.85
587.051,2389.45
587.217,2443.15
587.384,2444.6
587.55,2433.85
587.716,2415.1
587.882,2352.2
588.048,2310.6
588.214,2292.85
588.38,2276.2
588.546,2289.0
588.713,2264.8
588.879,2263.65
589.045,2261.9
589.211,2252.35
589.377,2259.45
589.543,2248.05
589.709,2253.7
589.875,2256.1
590.041,2247.55
590.207,2253.0
590.373,2243.9
590.539,2249.85
590.705,2245.15
590.871,2250.15
591.037,2247.75
591.203,2250.9
591.369,2250.2
591.535,2251.6
591.701,2255.1
591.867,2250.2
592.033,2253.95
592.199,2267.9
592.365,2254.0
592.531,2250.3
592.697,2250.7
592.863,2244.2
593.029,2252.65
593.195,2250.85
593.361,2249.7
593.526,2260.7
593.692,2254.95
593.858,2257.45
594.024,2242.05
594.19,2244.2
594.356,2250.15
594.522,2246.6
594.687,2249.4
594.853,2248.9
595.019,2249.4
595.185,2248.5
595.351,2270.55
595.516,2259.25
595.682,2252.85
595.848,2245.65
596.014,2251.35
596.18,2262.05
596.345,2258.25
596.511,2253.0
596.677,2262.15
596.843,2267.6
597.008,2269.35
597.174,2242.3
597.34,2255.8
597.505,2272.85
597.671,2260.15
597.837,2258.95
598.002,2271.75
598.168,2254.35
598.334,2259.85
598.499,2266.2
598.665,2263.25
598.831,2248.4
598.996,2253.05
599.162,2256.35
599.328,2264.55
599.493,2252.8
599.659,2249.35
599.824,2265.5
599.99,2264.65
600.156,2266.55
600.321,2253.45
600.487,2252.6
600.652,2261.75
600.818,2253.3
600.983,2264.85
601.149,2265.45
601.314,2246.8
601.48,2258.65
601.645,2245.9
601.811,2256.05
601.976,2262.75
602.142,2261.4
602.307,2244.45
602.473,2253.5
602.638,2250.55
602.804,2262.05
602.969,2254.05
603.135,2252.3
603.3,2255.35
603.466,2248.85
603.631,2243.6
603.796,2248.6
603.962,2251.5
604.127,2250.9
604.293,2251.45
604.458,2250.15
604.623,2255.4
604.789,2244.55
604.954,2253.15
605.119,2249.4
605.285,2250.8
605.45,2259.45
605.615,2253.5
605.781,2253.05
605.946,2234.3
606.111,2257.4
606.277,2246.65
606.442,2241.75
606.607,2247.2
606.772,2241.0
606.938,2241.35
607.103,2250.55
607.268,2251.85
607.433,2250.65
607.599,2259.65
607.764,2256.15
607.929,2240.05
608.094,2244.1
608.259,2257.05
608.425,2249.2
608.59,2240.9
608.755,2249.85
608.92,2251.3
609.085,2240.9
609.25,2241.6
609.415,2243.45
609.581,2244.15
609.746,2238.15
609.911,2232.2
610.076,2253.05
610.241,2247.5
610.406,2238.75
610.571,2255.9
610.736,2246.45
610.901,2252.2
611.066,2259.4
611.231,2240.95
611.396,2241.4
611.561,2248.3
611.727,2253.2
611.892,2253.5
612.057,2240.3
612.222,2251.6
612.386,2253.3
612.551,2241.7
612.716,2236.5
612.881,2245.95
613.046,2241.95
613.211,2239.8
613.376,2239.8
613.541,2237.9
613.706,2232.6
613.871,2252.1
614.036,2249.95
614.201,2240.85
614.366,2259.4
614.531,2240.6
614.695,2239.65
614.86,2244.2
615.025,2247.95
615.19,2240.3
615.355,2241.15
615.52,2257.75
615.684,2240.05
615.849,2250.65
616.014,2245.05
616.179,2224.5
616.344,2234.8
616.508,2259.95
616.673,2240.85
616.838,2234.3
617.003,2253.1
617.168,2243.3
617.332,2254.7
617.497,2224.2
617.662,2237.7
617.826,2253.2
617.991,2243.45
618.156,2233.5
618.32,2242.85
618.485,2236.1
618.65,2231.85
618.814,2242.3
618.979,2235.8
619.144,2225.65
619.308,2236.1
619.473,2236.85
619.638,2238.5
619.802,2239.6
619.967,2239.6
620.131,2241.55
620.296,2232.0
620.461,2226.0
620.625,2233.95
620.79,2241.65
620.954,2240.1
621.119,2237.5
621.283,2232.95
621.448,2228.75
621.612,2245.15
621.777,2233.7
621.941,2231.5
622.106,2250.75
622.27,2242.9
622.435,2244.4
622.599,2270.7
622.764,2273.0
622.928,2264.35
623.093,2266.5
623.257,2273.7
623.422,2259.95
623.586,2262.65
623.75,2256.95
623.915,2258.05
624.079,2253.35
624.244,2236.0
624.408,2250.25
624.572,2244.15
624.737,2247.95
624.901,2230.7
625.065,2223.85
625.23,2227.35
625.394,2224.3
625.558,2218.6
625.723,2229.45
625.887,2229.85
626.051,2235.5
626.215,2227.0
626.38,2224.8
626.544,2220.55
626.708,2241.25
626.872,2235.55
627.037,2241.9
627.201,2229.1
627.365,2236.15
627.529,2238.25
627.693,2252.2
627.858,2261.75
628.022,2288.7
628.186,2368.1
628.35,2421.6
628.514,2429.0
628.678,2431.1
628.843,2387.5
629.007,2386.75
629.171,2400.1
629.335,2388.4
629.499,2397.6
629.663,2395.2
629.827,2388.2
629.991,2400.65
630.155,2401.65
630.319,2453.85
630.483,2568.05
630.647,2764.65
630.812,3145.25
630.976,3492.95
631.14,3555.05
631.304,3313.95
631.468,3067.6
631.632,2815.6
631.796,2700.75
631.959,2624.95
632.123,2561.6
632.287,2514.35
632.451,2482.65
632.615,2487.25
632.779,2534.35
632.943,2631.8
633.107,2722.4
633.271,2758.6
633.435,2735.95
633.599,2683.8
633.763,2610.0
633.926,2517.65
634.09,2417.7
634.254,2372.7
634.418,2317.1
634.582,2270.1
634.746,2252.35
634.909,2238.5
635.073,2207.9
635.237,2221.85
635.401,2209.25
635.564,2200.2
635.728,2199.0
635.892,2199.5
636.056,2187.9
636.219,2195.8
636.383,2175.1
636.547,2183.3
636.711,2189.6
636.874,2174.55
637.038,2168.55
637.202,2174.75
637.365,2176.5
637.529,2177.45
637.693,2172.45
637.856,2167.4
638.02,2168.15
638.184,2173.9
638.347,2175.0
638.511,2169.8
638.674,2169.6
638.838,2154.0
639.002,2161.5
639.165,2160.55
639.329,2169.4
639.492,2167.85
639.656,2163.8
639.819,2157.8
639.983,2159.0
640.146,2151.35
640.31,2154.6
640.473,2163.0
640.637,2150.7
640.8,2150.0
640.964,2153.2
641.127,2156.6
641.291,2142.95
641.454,2151.7
641.618,2154.15
641.781,2153.6
641.944,2167.8
642.108,2148.75
642.271,2156.95
642.435,2150.0
642.598,2154.35
642.761,2145.7
642.925,2144.7
643.088,2136.9
643.251,2135.2
643.415,2126.4
643.578,2135.75
643.741,2143.15
643.905,2124.75
644.068,2131.8
644.231,2141.3
644.394,2135.8
644.558,2123.8
644.721,2120.9
644.884,2127.2
645.047,2119.45
645.211,2126.8
645.374,2121.9
645.537,2130.05
645.7,2115.25
645.863,2119.85
646.027,2114.75
646.19,2114.95
646.353,2120.4
646.516,2113.45
646.679,2110.1
646.842,2120.25
647.005,2115.1
647.169,2109.2
647.332,2106.4
647.495,2112.35
647.658,2107.25
647.821,2108.9
647.984,2095.7
648.147,2117.65
648.31,2100.75
648.473,2106.4
648.636,2104.1
648.799,2108.1
648.962,2099.6
649.125,2100.05
649.288,2089.05
649.451,2111.3
649.614,2103.65
649.777,2110.3
649.94,2098.0
650.103,2109.8
650.266,2097.4
650.429,2099.15
650.592,2097.4
650.755,2105.1
650.918,2094.95
651.08,2083.1
651.243,2092.65
651.406,2089.9
651.569,2085.1
651.732,2088.95
651.895,2092.15
652.058,2087.2
652.22,2083.4
652.383,2087.5
652.546,2088.6
652.709,2064.85
652.872,2071.55
653.034,2078.35
653.197,2083.45
653.36,2075.7
653.523,2073.75
653.685,2070.85
653.848,2076.95
654.011,2078.05
654.173,2063.4
654.336,2058.15
654.499,2055.7
654.662,2064.2
654.824,2067.75
654.987,2066.1
655.149,2061.65
655.312,2063.95
655.475,2056.65
655.637,2056.9
655.8,2067.7
655.963,2060.25
656.125,2053.65
656.288,2049.8
656.45,2056.65
656.613,2058.15
656.775,2060.7
656.938,2057.05
657.1,2059.25
657.263,2054.4
657.425,2044.6
657.588,2048.55
657.75,2049.0
657.913,2051.7
658.075,2044.8
658.238,2051.55
658.4,2045.35
658.563,2045.65
658.725,2047.75
658.888,2043.8
659.05,2042.75
659.212,2049.0
659.375,2043.65
659.537,2037.65
659.7,2030.9
659.862,2036.6
660.024,2046.95
660.187,2043.65
660.349,2028.3
660.511,2024.85
660.674,2042.25
660.836,2033.45
660.998,2030.25
661.079,2022.5