File: spectra/VLFR_06-PET_bio_Raman_c63d015b.csv
nm,Intensity
528.626,1865.0
528.795,1864.8
528.963,1866.0
529.132,1865.4
529.3,1867.6
529.469,1865.2
529.637,1865.3
529.806,1864.0
529.974,1866.1
530.143,1865.8
530.311,1867.1
530.48,1867.2
530.648,1867.0
530.816,1867.3
530.985,1867.7
531.153,1870.5
531.322,1874.0
531.49,1880.8
531.658,1921.4
531.827,2533.8
531.995,5647.5
532.164,6209.4
532.332,2560.7
532.5,1881.3
532.669,1871.3
532.837,1871.7
533.006,1871.7
533.174,1878.9
533.342,1892.3
533.511,2041.5
533.679,3137.3
533.847,5501.4
534.016,6844.9
534.184,7108.8
534.352,6500.9
534.521,5949.1
534.689,5564.7
534.857,5175.9
535.025,4767.1
535.194,4401.1
535.362,4085.1
535.53,3781.9
535.699,3462.0
535.867,3172.8
536.035,2960.3
536.203,2862.5
536.372,2755.1
536.54,2685.8
536.708,2650.0
536.876,2620.6
537.044,2549.4
537.213,2526.2
537.381,2515.5
537.549,2536.6
537.717,2503.1
537.885,2486.2
538.054,2516.3
538.222,2500.3
538.39,2503.6
538.558,2532.5
538.726,2509.0
538.894,2509.4
539.063,2505.0
539.231,2547.7
539.399,2573.9
539.567,2585.9
539.735,2632.7
539.903,2619.4
540.071,2599.0
540.239,2519.5
540.408,2479.3
540.576,2416.1
540.744,2386.3
540.912,2359.2
541.08,2345.3
541.248,2304.9
541.416,2303.2
541.584,2289.2
541.752,2314.5
541.92,2299.5
542.088,2292.0
542.256,2319.2
542.424,2311.9
542.592,2306.1
542.76,2308.0
542.928,2316.3
543.096,2294.8
543.264,2302.9
543.432,2316.2
543.6,2293.3
543.768,2321.4
543.936,2349.6
544.104,2324.6
544.272,2322.2
544.44,2330.6
544.608,2332.4
544.776,2318.5
544.944,2357.3
545.112,2352.1
545.28,2343.0
545.448,2333.4
545.616,2332.3
545.784,2338.2
545.951,2339.8
546.119,2341.6
546.287,2350.1
546.455,2343.0
546.623,2362.2
546.791,2361.0
546.959,2387.8
547.127,2365.5
547.294,2370.0
547.462,2399.4
547.63,2394.1
547.798,2395.9
547.966,2389.2
548.134,2392.4
548.301,2388.9
548.469,2380.0
548.637,2396.6
548.805,2425.7
548.972,2401.5
549.14,2386.2
549.308,2404.1
549.476,2401.3
549.644,2401.3
549.811,2404.3
549.979,2416.3
550.147,2439.2
550.315,2516.5
550.482,2885.9
550.65,3353.9
550.818,2997.4
550.985,2533.6
551.153,2463.7
551.321,2475.1
551.488,2467.2
551.656,2472.5
551.824,2480.2
551.991,2515.9
552.159,2509.1
552.327,2487.5
552.494,2546.2
552.662,2743.2
552.83,2840.7
552.997,2751.4
553.165,2580.6
553.333,2525.4
553.5,2522.1
553.668,2493.9
553.835,2553.3
554.003,2515.5
554.171,2528.7
554.338,2534.6
554.506,2537.2
554.673,2534.7
554.841,2548.0
555.008,2582.9
555.176,2613.5
555.343,2715.1
555.511,2902.3
555.679,2985.4
555.846,2936.7
556.014,2910.6
556.181,2943.6
556.349,3000.1
556.516,3020.0
556.684,3019.9
556.851,3088.5
557.018,3161.2
557.186,3351.8
557.353,3782.3
557.521,4010.5
557.688,3942.0
557.856,3472.5
558.023,3210.5
558.191,3168.3
558.358,3178.7
558.525,3153.4
558.693,3053.5
558.86,2994.2
559.028,2853.6
559.195,2787.1
559.362,2720.0
559.53,2705.7
559.697,2690.1
559.864,2680.9
560.032,2676.3
560.199,2675.9
560.366,2684.3
560.534,2713.1
560.701,2713.5
560.868,2698.2
561.036,2737.6
561.203,2742.2
561.37,2773.2
561.538,2796.6
561.705,2841.6
561.872,2808.3
562.039,2886.5
562.207,2898.0
562.374,2900.7
562.541,2902.6
562.708,2905.1
562.876,2968.5
563.043,2969.1
563.21,2954.9
563.377,2927.5
563.545,2931.0
563.712,2864.5
563.879,2823.0
564.046,2829.1
564.213,2870.6
564.38,2882.7
564.548,2931.1
564.715,3041.3
564.882,3103.8
565.049,3289.9
565.216,3403.8
565.383,3519.9
565.551,3615.5
565.718,3684.1
565.885,3727.4
566.052,3655.7
566.219,3366.4
566.386,3189.2
566.553,3039.3
566.72,2975.2
566.887,2943.8
567.054,2943.4
567.221,2986.8
567.388,3095.5
567.555,3316.1
567.722,3419.9
567.889,3310.8
568.057,3127.2
568.224,3022.9
568.391,3008.8
568.558,2968.1
568.725,2959.9
568.892,2954.4
569.058,2981.7
569.225,3010.6
569.392,3027.6
569.559,3107.5
569.726,3131.3
569.893,3200.0
570.06,3297.6
570.227,3335.3
570.394,3577.2
570.561,3851.2
570.728,4157.4
570.895,4386.0
571.062,4793.8
571.229,5021.5
571.395,5080.3
571.562,4800.5
571.729,4323.9
571.896,4112.8
572.063,3944.6
572.23,3619.4
572.397,3465.8
572.563,3299.0
572.73,3252.2
572.897,3183.3
573.064,3158.9
573.231,3169.2
573.397,3207.1
573.564,3192.8
573.731,3179.6
573.898,3275.7
574.064,3328.8
574.231,3305.2
574.398,3266.6
574.565,3212.5
574.731,3241.0
574.898,3291.6
575.065,3361.6
575.232,3437.2
575.398,3554.0
575.565,3404.2
575.732,3295.6
575.898,3285.8
576.065,3342.8
576.232,3453.5
576.398,3448.6
576.565,3558.7
576.732,3535.6
576.898,3528.9
577.065,3502.0
577.232,3344.9
577.398,3339.5
577.565,3287.9
577.731,3236.2
577.898,3231.7
578.065,3237.8
578.231,3220.4
578.398,3239.7
578.564,3239.0
578.731,3234.6
578.897,3239.4
579.064,3272.4
579.23,3273.0
579.397,3260.9
579.563,3268.4
579.73,3308.5
579.896,3311.6
580.063,3319.7
580.229,3316.1
580.396,3361.1
580.562,3395.9
580.729,3432.2
580.895,3455.1
581.062,3508.1
581.228,3548.9
581.395,3662.5
581.561,4025.2
581.728,4957.6
581.894,6938.4
582.06,9879.3
582.227,10181.7
582.393,6997.8
582.56,4399.3
582.726,3732.6
582.892,3542.4
583.059,3434.4
583.225,3460.7
583.391,3417.4
583.558,3410.2
583.724,3376.3
583.89,3443.4
584.057,3419.2
584.223,3502.9
584.389,3497.8
584.556,3498.3
584.722,3531.7
584.888,3649.6
585.054,3659.2
585.221,3906.0
585.387,4533.9
585.553,5640.2
585.719,6669.3
585.886,7545.8
586.052,7301.5
586.218,6825.1
586.384,6104.0
586.55,4995.1
586.717,4273.6
586.883,3895.9
587.049,3754.2
587.215,3622.6
587.381,3489.3
587.548,3530.8
587.714,3476.7
587.88,3490.6
588.046,3517.5
588.212,3451.5
588.378,3477.9
588.544,3447.2
588.71,3441.6
588.876,3483.8
589.043,3423.0
589.209,3427.3
589.375,3463.0
589.541,3439.7
589.707,3452.5
589.873,3437.7
590.039,3372.4
590.205,3430.6
590.371,3434.2
590.537,3445.8
590.703,3441.4
590.869,3433.8
591.035,3418.4
591.201,3398.3
591.367,3476.4
591.533,3434.0
591.699,3455.6
591.865,3442.1
592.031,3472.5
592.197,3457.1
592.363,3496.7
592.529,3520.9
592.694,3432.5
592.86,3445.3
593.026,3476.1
593.192,3444.6
593.358,3413.2
593.524,3444.8
593.69,3482.2
593.856,3452.7
594.021,3438.5
594.187,3491.6
594.353,3459.2
594.519,3480.1
594.685,3434.9
594.851,3467.6
595.016,3486.1
595.182,3463.8
595.348,3540.6
595.514,3522.0
595.68,3499.4
595.845,3470.0
596.011,3533.9
596.177,3509.0
596.342,3534.9
596.508,3493.0
596.674,3507.1
596.84,3524.3
597.005,3564.7
597.171,3506.1
597.337,3438.2
597.502,3509.8
597.668,3527.8
597.834,3516.4
597.999,3500.5
598.165,3529.2
598.331,3525.0
598.496,3530.9
598.662,3517.1
598.828,3502.1
598.993,3503.0
599.159,3511.6
599.324,3533.6
599.49,3562.2
599.656,3541.0
599.821,3544.1
599.987,3518.4
600.152,3561.9
600.318,3598.0
600.483,3491.3
600.649,3536.7
600.814,3541.4
600.98,3552.8
601.145,3531.3
601.311,3556.8
601.476,3559.5
601.642,3540.4
601.807,3588.9
601.973,3567.0
602.138,3545.1
602.304,3561.3
602.469,3543.7
602.635,3601.0
602.8,3537.9
602.965,3602.5
603.131,3613.0
603.296,3543.5
603.462,3570.3
603.627,3542.1
603.792,3616.5
603.958,3586.9
604.123,3585.6
604.288,3586.1
604.454,3595.6
604.619,3561.6
604.784,3584.5
604.95,3597.3
605.115,3589.3
605.28,3547.3
605.446,3589.4
605.611,3616.4
605.776,3597.8
605.941,3601.2
606.107,3604.2
606.272,3597.5
606.437,3587.8
606.602,3596.3
606.767,3648.2
606.933,3579.0
607.098,3628.9
607.263,3566.8
607.428,3613.9
607.593,3655.1
607.759,3618.9
607.924,3595.8
608.089,3636.1
608.254,3615.3
608.419,3653.6
608.584,3607.1
608.749,3667.0
608.915,3658.6
609.08,3603.8
609.245,3625.8
609.41,3659.9
609.575,3600.4
609.74,3698.2
609.905,3626.1
610.07,3602.7
610.235,3646.9
610.4,3628.4
610.565,3712.7
610.73,3637.6
610.895,3659.4
611.06,3709.1
611.225,3649.1
611.39,3621.9
611.555,3662.7
611.72,3653.1
611.885,3602.2
612.05,3663.9
612.215,3710.1
612.38,3655.2
612.545,3617.3
612.71,3667.8
612.875,3702.8
613.04,3674.2
613.204,3690.2
613.369,3687.4
613.534,3601.4
613.699,3700.3
613.864,3721.9
614.029,3696.1
614.194,3722.2
614.358,3644.5
614.523,3700.1
614.688,3754.2
614.853,3773.4
615.018,3695.5
615.182,3708.2
615.347,3701.9
615.512,3777.7
615.677,3714.6
615.841,3785.6
616.006,3735.4
616.171,3728.1
616.336,3722.4
616.5,3741.5
616.665,3720.9
616.83,3706.0
616.994,3788.5
617.159,3780.0
617.324,3791.7
617.489,3825.6
617.653,3809.7
617.818,3852.2
617.982,3845.8
618.147,3827.7
618.312,3879.9
618.476,3785.8
618.641,3790.8
618.805,3839.4
618.97,3826.1
619.135,3820.1
619.299,3854.8
619.464,3790.8
619.628,3821.5
619.793,3798.3
619.957,3731.6
620.122,3772.0
620.286,3789.1
620.451,3858.2
620.615,3836.0
620.78,3800.7
620.944,3807.1
621.109,3804.8
621.273,3776.9
621.438,3821.7
621.602,3826.3
621.767,3821.4
621.931,3806.2
622.095,3839.4
622.26,3853.5
622.424,3827.3
622.589,3863.3
622.753,3830.3
622.917,3875.8
623.082,3823.8
623.246,3900.9
623.41,3887.6
623.575,3837.0
623.739,3934.1
623.903,3922.1
624.068,3928.0
624.232,3928.2
624.396,3884.0
624.561,3994.0
624.725,3916.4
624.889,3913.6
625.053,3977.3
625.218,3966.7
625.382,3954.4
625.546,3884.2
625.71,3990.6
625.875,3910.6
626.039,3841.8
626.203,3961.7
626.367,4001.7
626.531,3915.4
626.695,3929.4
626.86,3878.0
627.024,3982.5
627.188,3924.0
627.352,3921.4
627.516,3981.0
627.68,4018.8
627.844,4083.7
628.008,4037.0
628.172,4087.2
628.337,4096.4
628.501,4135.3
628.665,4240.8
628.829,4234.8
628.993,4279.8
629.157,4354.5
629.321,4199.0
629.485,4261.5
629.649,4323.3
629.813,4158.3
629.977,4223.9
630.141,4209.5
630.305,4234.4
630.469,4256.9
630.633,4218.1
630.797,4382.5
630.96,4584.3
631.124,4842.5
631.288,5145.4
631.452,5254.6
631.616,5496.8
631.78,5506.0
631.944,5517.4
632.108,5274.0
632.272,5067.5
632.435,4935.7
632.599,4839.2
632.763,4764.6
632.927,4718.2
633.091,4699.4
633.254,4731.3
633.418,4704.7
633.582,4690.8
633.746,4571.6
633.91,4471.8
634.073,4446.2
634.237,4363.6
634.401,4394.1
634.564,4279.9
634.728,4328.1
634.892,4298.4
635.056,4320.2
635.219,4334.9
635.383,4435.1
635.547,4504.8
635.71,4579.6
635.874,4882.4
636.038,5057.8
636.201,5224.1
636.365,5644.5
636.528,5644.6
636.692,5705.5
636.856,5425.1
637.019,4941.2
637.183,4751.5
637.346,4648.1
637.51,4519.7
637.673,4377.9
637.837,4413.4
638.0,4375.8
638.164,4305.4
638.327,4366.9
638.491,4407.8
638.654,4255.0
638.818,4376.7
638.981,4247.6
639.145,4263.1
639.308,4338.2
639.472,4320.3
639.635,4231.8
639.799,4337.8
639.962,4235.0
640.125,4252.9
640.289,4225.5
640.452,4291.3
640.616,4256.6
640.779,4247.9
640.942,4159.5
641.106,4290.7
641.269,4290.0
641.432,4263.9
641.596,4355.1
641.759,4283.8
641.922,4248.2
642.085,4300.3
642.249,4415.3
642.412,4373.2
642.575,4306.1
642.738,4358.8
642.902,4298.0
643.065,4266.8
643.228,4228.0
643.391,4253.0
643.555,4235.4
643.718,4295.8
643.881,4265.5
644.044,4347.3
644.207,4341.4
644.37,4247.2
644.534,4286.0
644.697,4217.0
644.86,4226.1
645.023,4273.9
645.186,4369.1
645.349,4226.5
645.512,4360.3
645.675,4335.4
645.838,4246.7
646.001,4285.5
646.164,4322.7
646.327,4255.8
646.49,4154.1
646.653,4216.2
646.816,4325.1
646.979,4332.4
647.142,4348.0
647.305,4268.2
647.468,4323.1
647.631,4310.3
647.794,4254.7
647.957,4199.9
648.12,4161.3
648.283,4295.7
648.446,4210.0
648.609,4283.9
648.772,4200.1
648.935,4205.9
649.098,4122.1
649.26,4151.5
649.423,4234.6
649.586,4214.6
649.749,4140.3
649.912,4217.2
650.075,4176.8
650.237,4173.8
650.4,4238.1
650.563,4227.7
650.726,4125.4
650.888,4139.3
651.051,4193.5
651.214,4273.5
651.377,4185.6
651.539,4172.7
651.702,4150.3
651.865,4204.9
652.027,4119.0
652.19,4189.0
652.353,4134.2
652.515,4035.5
652.678,4136.7
652.841,4124.6
653.003,4104.2
653.166,4086.7
653.329,4059.7
653.491,4028.7
653.654,4104.2
653.816,4102.8
653.979,4125.8
654.142,4043.3
654.304,4016.9
654.467,4104.6
654.629,3980.7
654.792,3964.2
654.954,4042.2
655.117,3996.8
655.279,4031.4
655.442,4003.7
655.604,3973.2
655.767,4026.5
655.929,4005.3
656.091,4070.2
656.254,3970.1
656.416,4034.1
656.579,3977.6
656.741,3983.0
656.904,3997.0
657.066,3930.5
657.228,3938.6
657.391,3960.3
657.553,3981.2
657.715,3888.9
657.878,3978.6
658.04,3920.4
658.202,3863.9
658.365,3872.3
658.527,3898.8
658.689,3802.9
658.851,3861.6
659.014,3857.0
659.176,3867.1
659.338,3819.0
659.5,3809.7
659.663,3889.6
659.825,3785.8
659.987,3745.4
660.149,3733.2
660.311,3823.0
660.474,3834.6
660.636,3775.0
660.798,3744.2
660.96,3768.7
661.041,3769.9