File: spectra/VLFR_08-PLA_bio_Raman_d17de985.csv
nm,Intensity
528.626,1865.4
528.795,1865.9
528.963,1864.7
529.132,1864.9
529.3,1865.3
529.469,1864.8
529.637,1865.3
529.806,1865.3
529.974,1866.9
530.143,1864.6
530.311,1864.7
530.48,1865.5
530.648,1867.1
530.816,1868.1
530.985,1865.2
531.153,1866.5
531.322,1866.2
531.49,1871.2
531.658,1879.1
531.827,2062.7
531.995,3072.6
532.164,3466.0
532.332,2259.0
532.5,1870.1
532.669,1865.9
532.837,1865.7
533.006,1865.5
533.174,1867.7
533.342,1870.0
533.511,1892.7
533.679,2066.8
533.847,2477.2
534.016,2770.6
534.184,2800.1
534.352,2730.9
534.521,2672.0
534.689,2613.8
534.857,2649.8
535.025,2586.8
535.194,2565.5
535.362,2583.5
535.53,2555.6
535.699,2486.1
535.867,2435.5
536.035,2410.4
536.203,2414.0
536.372,2432.0
536.54,2473.3
536.708,2441.7
536.876,2419.5
537.044,2355.8
537.213,2350.5
537.381,2361.1
537.549,2392.0
537.717,2405.3
537.885,2418.9
538.054,2392.0
538.222,2380.1
538.39,2338.7
538.558,2316.2
538.726,2320.7
538.894,2302.4
539.063,2310.0
539.231,2292.3
539.399,2283.0
539.567,2270.3
539.735,2262.3
539.903,2234.0
540.071,2259.9
540.239,2271.1
540.408,2312.6
540.576,2384.5
540.744,2406.7
540.912,2424.3
541.08,2417.4
541.248,2374.7
541.416,2353.1
541.584,2323.5
541.752,2293.5
541.92,2282.8
542.088,2291.9
542.256,2289.7
542.424,2279.5
542.592,2285.6
542.76,2281.5
542.928,2309.0
543.096,2363.9
543.264,2423.1
543.432,2517.6
543.6,2586.4
543.768,2589.8
543.936,2585.1
544.104,2535.8
544.272,2422.1
544.44,2347.7
544.608,2296.6
544.776,2311.8
544.944,2278.2
545.112,2258.4
545.28,2253.4
545.448,2249.2
545.616,2264.6
545.784,2245.5
545.951,2246.4
546.119,2266.3
546.287,2267.9
546.455,2282.4
546.623,2278.3
546.791,2282.3
546.959,2288.6
547.127,2300.2
547.294,2285.8
547.462,2298.2
547.63,2295.0
547.798,2275.7
547.966,2289.3
548.134,2282.4
548.301,2294.8
548.469,2280.9
548.637,2297.1
548.805,2302.6
548.972,2297.7
549.14,2287.6
549.308,2300.8
549.476,2312.9
549.644,2305.1
549.811,2287.9
549.979,2301.2
550.147,2293.2
550.315,2301.7
550.482,2288.4
550.65,2333.5
550.818,2329.5
550.985,2313.1
551.153,2338.6
551.321,2354.5
551.488,2331.3
551.656,2349.2
551.824,2359.9
551.991,2379.7
552.159,2373.1
552.327,2400.3
552.494,2372.1
552.662,2388.2
552.83,2412.1
552.997,2412.2
553.165,2413.7
553.333,2370.5
553.5,2358.2
553.668,2400.5
553.835,2449.5
554.003,2446.5
554.171,2425.2
554.338,2404.5
554.506,2396.7
554.673,2393.9
554.841,2350.2
555.008,2362.3
555.176,2363.3
555.343,2348.0
555.511,2330.1
555.679,2338.5
555.846,2327.4
556.014,2337.9
556.181,2330.1
556.349,2339.7
556.516,2353.0
556.684,2349.3
556.851,2341.3
557.018,2378.8
557.186,2390.0
557.353,2429.7
557.521,2513.8
557.688,2660.3
557.856,3027.4
558.023,3463.1
558.191,3532.1
558.358,3030.1
558.525,2660.5
558.693,2526.2
558.86,2491.9
559.028,2497.5
559.195,2459.8
559.362,2470.5
559.53,2477.5
559.697,2494.6
559.864,2448.4
560.032,2420.8
560.199,2423.0
560.366,2403.7
560.534,2401.6
560.701,2406.8
560.868,2418.6
561.036,2408.3
561.203,2389.7
561.37,2386.9
561.538,2379.2
561.705,2392.3
561.872,2404.5
562.039,2409.6
562.207,2423.4
562.374,2394.9
562.541,2417.5
562.708,2436.7
562.876,2495.2
563.043,2547.8
563.21,2659.4
563.377,2744.8
563.545,2747.9
563.712,2661.0
563.879,2584.4
564.046,2478.7
564.213,2479.0
564.38,2483.2
564.548,2503.1
564.715,2555.5
564.882,2635.8
565.049,2633.1
565.216,2636.3
565.383,2644.1
565.551,2618.2
565.718,2605.6
565.885,2729.6
566.052,2849.8
566.219,2880.7
566.386,2779.8
566.553,2645.2
566.72,2558.0
566.887,2500.3
567.054,2469.1
567.221,2452.8
567.388,2455.9
567.555,2455.6
567.722,2520.4
567.889,2520.2
568.057,2540.2
568.224,2493.6
568.391,2502.4
568.558,2493.9
568.725,2495.9
568.892,2515.8
569.058,2509.6
569.225,2505.7
569.392,2479.8
569.559,2482.8
569.726,2466.9
569.893,2460.7
570.06,2451.3
570.227,2462.5
570.394,2476.8
570.561,2484.8
570.728,2469.0
570.895,2490.3
571.062,2499.4
571.229,2551.6
571.395,2664.9
571.562,2747.3
571.729,2712.7
571.896,2646.8
572.063,2606.4
572.23,2573.2
572.397,2540.0
572.563,2550.7
572.73,2552.1
572.897,2544.7
573.064,2562.5
573.231,2559.3
573.397,2576.6
573.564,2609.5
573.731,2622.9
573.898,2615.3
574.064,2590.4
574.231,2592.7
574.398,2649.4
574.565,2680.5
574.731,2658.4
574.898,2578.6
575.065,2514.7
575.232,2496.5
575.398,2496.9
575.565,2482.7
575.732,2495.0
575.898,2512.4
576.065,2522.4
576.232,2601.9
576.398,2768.6
576.565,2934.2
576.732,3056.2
576.898,3014.4
577.065,2864.7
577.232,2761.8
577.398,2622.6
577.565,2532.9
577.731,2527.6
577.898,2501.2
578.065,2495.1
578.231,2483.8
578.398,2471.4
578.564,2490.2
578.731,2487.1
578.897,2461.1
579.064,2471.0
579.23,2476.1
579.397,2478.8
579.563,2473.0
579.73,2475.2
579.896,2474.1
580.063,2475.6
580.229,2471.2
580.396,2483.6
580.562,2476.6
580.729,2477.4
580.895,2452.8
581.062,2475.3
581.228,2475.3
581.395,2465.8
581.561,2485.2
581.728,2481.2
581.894,2491.1
582.06,2479.4
582.227,2473.3
582.393,2471.5
582.56,2471.6
582.726,2479.0
582.892,2466.2
583.059,2486.1
583.225,2480.2
583.391,2468.7
583.558,2482.2
583.724,2481.9
583.89,2509.4
584.057,2485.0
584.223,2482.0
584.389,2488.6
584.556,2487.1
584.722,2501.7
584.888,2491.1
585.054,2466.3
585.221,2475.4
585.387,2475.6
585.553,2486.3
585.719,2482.9
585.886,2497.4
586.052,2502.2
586.218,2497.5
586.384,2534.3
586.55,2596.5
586.717,2652.1
586.883,2737.9
587.049,2798.6
587.215,2879.6
587.381,2955.3
587.548,2966.1
587.714,2888.5
587.88,2775.7
588.046,2647.9
588.212,2549.8
588.378,2526.4
588.544,2516.0
588.71,2492.7
588.876,2485.6
589.043,2482.5
589.209,2490.1
589.375,2488.9
589.541,2487.9
589.707,2470.0
589.873,2467.1
590.039,2468.1
590.205,2480.9
590.371,2478.4
590.537,2470.5
590.703,2480.4
590.869,2476.6
591.035,2479.8
591.201,2480.0
591.367,2478.2
591.533,2457.8
591.699,2502.2
591.865,2469.7
592.031,2454.2
592.197,2488.2
592.363,2460.8
592.529,2476.8
592.694,2473.6
592.86,2462.2
593.026,2473.6
593.192,2459.2
593.358,2468.5
593.524,2458.5
593.69,2455.3
593.856,2475.5
594.021,2452.7
594.187,2467.5
594.353,2445.5
594.519,2466.2
594.685,2468.9
594.851,2467.5
595.016,2463.5
595.182,2473.2
595.348,2475.0
595.514,2468.2
595.68,2479.3
595.845,2473.2
596.011,2477.4
596.177,2471.7
596.342,2486.7
596.508,2457.8
596.674,2483.0
596.84,2473.3
597.005,2491.6
597.171,2471.3
597.337,2462.3
597.502,2452.7
597.668,2476.3
597.834,2468.8
597.999,2457.9
598.165,2491.9
598.331,2465.8
598.496,2481.4
598.662,2463.3
598.828,2475.8
598.993,2478.1
599.159,2467.8
599.324,2477.3
599.49,2458.1
599.656,2464.5
599.821,2463.0
599.987,2455.6
600.152,2473.7
600.318,2491.2
600.483,2472.3
600.649,2455.6
600.814,2482.8
600.98,2456.0
601.145,2469.7
601.311,2452.1
601.476,2484.6
601.642,2491.2
601.807,2455.2
601.973,2456.5
602.138,2456.1
602.304,2457.2
602.469,2466.2
602.635,2471.4
602.8,2466.4
602.965,2490.3
603.131,2465.2
603.296,2450.8
603.462,2461.6
603.627,2501.5
603.792,2478.6
603.958,2454.6
604.123,2467.6
604.288,2458.7
604.454,2476.0
604.619,2485.9
604.784,2447.7
604.95,2443.9
605.115,2459.3
605.28,2448.7
605.446,2470.8
605.611,2439.9
605.776,2481.9
605.941,2430.6
606.107,2452.2
606.272,2455.1
606.437,2447.1
606.602,2448.2
606.767,2467.1
606.933,2467.5
607.098,2453.4
607.263,2436.6
607.428,2442.7
607.593,2473.8
607.759,2460.4
607.924,2451.1
608.089,2445.2
608.254,2462.5
608.419,2457.3
608.584,2447.3
608.749,2456.7
608.915,2435.9
609.08,2454.1
609.245,2452.3
609.41,2440.7
609.575,2453.0
609.74,2427.7
609.905,2438.7
610.07,2445.5
610.235,2463.1
610.4,2469.8
610.565,2456.0
610.73,2425.2
610.895,2440.8
611.06,2435.6
611.225,2448.0
611.39,2454.0
611.555,2439.1
611.72,2442.8
611.885,2416.0
612.05,2413.8
612.215,2448.4
612.38,2444.6
612.545,2450.9
612.71,2437.7
612.875,2426.9
613.04,2424.8
613.204,2448.5
613.369,2423.9
613.534,2425.0
613.699,2439.2
613.864,2435.0
614.029,2450.4
614.194,2428.5
614.358,2431.9
614.523,2421.8
614.688,2448.2
614.853,2445.1
615.018,2453.2
615.182,2432.1
615.347,2416.7
615.512,2440.1
615.677,2441.3
615.841,2418.0
616.006,2424.2
616.171,2450.2
616.336,2426.2
616.5,2430.8
616.665,2418.9
616.83,2414.9
616.994,2441.5
617.159,2428.7
617.324,2445.8
617.489,2435.1
617.653,2441.8
617.818,2418.0
617.982,2433.7
618.147,2402.4
618.312,2434.0
618.476,2434.1
618.641,2415.0
618.805,2416.1
618.97,2399.6
619.135,2436.7
619.299,2407.1
619.464,2435.7
619.628,2425.8
619.793,2432.4
619.957,2412.8
620.122,2411.1
620.286,2406.8
620.451,2404.3
620.615,2401.2
620.78,2420.1
620.944,2411.6
621.109,2404.4
621.273,2394.4
621.438,2426.5
621.602,2417.2
621.767,2418.5
621.931,2413.1
622.095,2431.0
622.26,2435.5
622.424,2442.8
622.589,2489.7
622.753,2501.9
622.917,2494.2
623.082,2512.7
623.246,2521.5
623.41,2481.5
623.575,2507.5
623.739,2500.0
623.903,2445.0
624.068,2462.7
624.232,2442.1
624.396,2426.9
624.561,2426.3
624.725,2422.5
624.889,2403.0
625.053,2389.9
625.218,2405.8
625.382,2404.3
625.546,2395.2
625.71,2399.2
625.875,2392.2
626.039,2404.0
626.203,2399.0
626.367,2415.5
626.531,2411.6
626.695,2407.4
626.86,2416.6
627.024,2406.0
627.188,2423.8
627.352,2426.0
627.516,2420.4
627.68,2445.7
627.844,2488.8
628.008,2575.1
628.172,2729.7
628.337,2845.5
628.501,2892.9
628.665,2954.1
628.829,2913.3
628.993,2813.5
629.157,2804.9
629.321,2798.6
629.485,2824.1
629.649,2807.1
629.813,2804.0
629.977,2849.0
630.141,2895.5
630.305,2968.0
630.469,3144.9
630.633,3537.2
630.797,4271.9
630.96,5239.0
631.124,5941.2
631.288,5360.3
631.452,4689.9
631.616,4113.4
631.78,3677.9
631.944,3378.6
632.108,3244.1
632.272,3110.4
632.435,3081.3
632.599,3087.3
632.763,3096.4
632.927,3291.2
633.091,3565.7
633.254,3745.9
633.418,3704.2
633.582,3587.7
633.746,3372.7
633.91,3203.8
634.073,2985.7
634.237,2813.0
634.401,2671.1
634.564,2581.8
634.728,2509.4
634.892,2457.9
635.056,2451.6
635.219,2394.5
635.383,2393.1
635.547,2380.7
635.71,2383.6
635.874,2358.8
636.038,2354.5
636.201,2346.8
636.365,2348.7
636.528,2352.1
636.692,2346.4
636.856,2332.6
637.019,2332.7
637.183,2340.9
637.346,2354.0
637.51,2337.2
637.673,2315.7
637.837,2311.1
638.0,2334.4
638.164,2328.7
638.327,2314.1
638.491,2319.4
638.654,2313.9
638.818,2322.1
638.981,2323.8
639.145,2311.5
639.308,2300.6
639.472,2299.9
639.635,2318.7
639.799,2303.0
639.962,2308.4
640.125,2322.8
640.289,2316.1
640.452,2317.9
640.616,2319.0
640.779,2289.8
640.942,2309.5
641.106,2300.5
641.269,2309.0
641.432,2314.9
641.596,2310.2
641.759,2286.6
641.922,2309.3
642.085,2311.1
642.249,2302.3
642.412,2306.9
642.575,2292.5
642.738,2290.1
642.902,2291.4
643.065,2290.5
643.228,2271.0
643.391,2287.3
643.555,2279.3
643.718,2268.8
643.881,2283.6
644.044,2273.3
644.207,2269.1
644.37,2279.0
644.534,2247.3
644.697,2265.3
644.86,2251.5
645.023,2259.0
645.186,2274.1
645.349,2267.6
645.512,2275.5
645.675,2249.8
645.838,2245.6
646.001,2238.7
646.164,2259.6
646.327,2239.9
646.49,2240.0
646.653,2241.0
646.816,2242.1
646.979,2229.1
647.142,2244.3
647.305,2227.3
647.468,2236.7
647.631,2232.5
647.794,2226.2
647.957,2244.8
648.12,2237.5
648.283,2251.6
648.446,2222.9
648.609,2221.0
648.772,2226.7
648.935,2212.9
649.098,2230.1
649.26,2218.1
649.423,2217.3
649.586,2230.4
649.749,2208.2
649.912,2212.1
650.075,2203.8
650.237,2200.4
650.4,2210.5
650.563,2208.9
650.726,2214.2
650.888,2203.1
651.051,2205.6
651.214,2208.4
651.377,2193.3
651.539,2217.6
651.702,2190.9
651.865,2198.0
652.027,2217.8
652.19,2195.8
652.353,2195.8
652.515,2188.1
652.678,2197.2
652.841,2186.3
653.003,2193.4
653.166,2187.3
653.329,2162.3
653.491,2181.0
653.654,2190.0
653.816,2186.9
653.979,2164.5
654.142,2174.0
654.304,2176.5
654.467,2170.0
654.629,2160.5
654.792,2168.3
654.954,2198.5
655.117,2171.6
655.279,2178.4
655.442,2175.9
655.604,2182.1
655.767,2163.1
655.929,2154.0
656.091,2162.9
656.254,2152.7
656.416,2162.0
656.579,2160.2
656.741,2171.6
656.904,2157.6
657.066,2155.5
657.228,2151.0
657.391,2155.3
657.553,2153.8
657.715,2157.9
657.878,2151.3
658.04,2161.4
658.202,2135.1
658.365,2148.4
658.527,2133.0
658.689,2139.2
658.851,2145.1
659.014,2136.1
659.176,2129.0
659.338,2138.7
659.5,2130.1
659.663,2123.3
659.825,2132.7
659.987,2142.2
660.149,2120.4
660.311,2128.3
660.474,2114.3
660.636,2135.2
660.798,2112.4
660.96,2124.5
661.041,2126.3