File: spectra/VLFR_01-LDPE_bio_Raman_e18548b1.csv
nm,Intensity
528.65,1838.7
528.819,1838.45
528.987,1838.3
529.155,1838.75
529.324,1838.45
529.492,1839.45
529.66,1839.65
529.829,1839.9
529.997,1840.15
530.165,1838.8
530.334,1839.25
530.502,1838.55
530.67,1838.35
530.839,1838.75
531.007,1839.35
531.175,1839.1
531.344,1841.0
531.512,1840.7
531.68,1848.5
531.848,1976.4
532.017,2385.2
532.185,2231.25
532.353,1856.25
532.521,1839.0
532.69,1839.35
532.858,1839.7
533.026,1841.2
533.194,1839.95
533.363,1841.15
533.531,1860.25
533.699,1956.55
533.867,2091.6
534.036,2148.1
534.204,2148.15
534.372,2127.1
534.54,2122.45
534.708,2117.5
534.877,2095.8
535.045,2095.15
535.213,2069.75
535.381,2046.95
535.549,2021.05
535.717,2014.05
535.886,1998.65
536.054,1984.9
536.222,1977.65
536.39,1978.35
536.558,1971.3
536.726,1966.25
536.894,1970.4
537.062,1971.25
537.231,1968.5
537.399,1966.8
537.567,1969.65
537.735,1964.35
537.903,1963.65
538.071,1964.4
538.239,1958.65
538.407,1954.1
538.575,1944.2
538.743,1943.9
538.911,1940.15
539.079,1935.9
539.247,1929.1
539.415,1931.55
539.583,1923.6
539.751,1929.05
539.919,1928.9
540.087,1926.25
540.255,1922.6
540.423,1923.8
540.591,1922.55
540.759,1923.65
540.927,1916.45
541.095,1916.9
541.263,1916.6
541.431,1914.95
541.599,1917.85
541.767,1913.85
541.935,1920.1
542.103,1916.35
542.271,1919.25
542.439,1914.75
542.607,1920.85
542.775,1912.5
542.943,1910.25
543.111,1911.5
543.279,1910.8
543.446,1917.25
543.614,1916.05
543.782,1911.5
543.95,1912.45
544.118,1916.05
544.286,1913.35
544.454,1910.0
544.622,1910.65
544.789,1907.9
544.957,1917.9
545.125,1911.9
545.293,1910.0
545.461,1911.1
545.629,1908.35
545.796,1910.95
545.964,1910.5
546.132,1913.45
546.3,1905.2
546.468,1913.95
546.635,1911.7
546.803,1909.25
546.971,1911.2
547.139,1911.9
547.306,1907.9
547.474,1909.55
547.642,1906.1
547.81,1905.6
547.977,1910.75
548.145,1908.95
548.313,1905.3
548.481,1909.3
548.648,1904.3
548.816,1906.25
548.984,1906.0
549.151,1905.6
549.319,1904.65
549.487,1908.0
549.655,1906.35
549.822,1905.25
549.99,1906.35
550.158,1904.35
550.325,1905.45
550.493,1898.15
550.66,1902.5
550.828,1903.8
550.996,1902.0
551.163,1904.3
551.331,1904.0
551.499,1904.3
551.666,1911.3
551.834,1905.55
552.001,1907.25
552.169,1907.9
552.337,1910.55
552.504,1907.45
552.672,1910.1
552.839,1905.05
553.007,1914.65
553.174,1923.1
553.342,1926.8
553.509,1931.15
553.677,1923.8
553.844,1922.75
554.012,1924.1
554.179,1931.25
554.347,1929.95
554.514,1932.75
554.682,1930.2
554.849,1929.75
555.017,1936.45
555.184,1934.9
555.352,1940.6
555.519,1940.4
555.687,1939.1
555.854,1945.15
556.022,1944.5
556.189,1952.1
556.357,1946.55
556.524,1949.85
556.691,1955.1
556.859,1954.25
557.026,1962.4
557.194,1974.0
557.361,1972.05
557.528,1966.65
557.696,1973.1
557.863,1979.25
558.031,1986.0
558.198,1989.15
558.365,1987.25
558.533,1989.85
558.7,1992.4
558.867,1985.8
559.035,1972.65
559.202,1965.2
559.369,1963.1
559.537,1967.25
559.704,1963.4
559.871,1960.25
560.038,1965.4
560.206,1952.95
560.373,1958.25
560.54,1956.7
560.708,1963.3
560.875,1953.35
561.042,1963.5
561.209,1968.0
561.377,1973.05
561.544,1980.3
561.711,1976.6
561.878,1983.1
562.045,1979.0
562.213,1981.95
562.38,1983.1
562.547,1983.6
562.714,1992.7
562.881,2001.95
563.049,2001.95
563.216,2009.15
563.383,2027.1
563.55,2059.2
563.717,2166.4
563.884,2382.0
564.052,2472.7
564.219,2248.6
564.386,2134.55
564.553,2125.4
564.72,2115.0
564.887,2098.45
565.054,2076.0
565.221,2052.85
565.388,2040.1
565.556,2060.8
565.723,2109.35
565.89,2241.25
566.057,2437.85
566.224,2402.8
566.391,2186.45
566.558,2074.0
566.725,2045.7
566.892,2022.45
567.059,2020.65
567.226,2036.3
567.393,2065.25
567.56,2054.25
567.727,2021.95
567.894,2001.8
568.061,1997.0
568.228,1995.95
568.395,1996.65
568.562,1987.55
568.729,1992.6
568.896,1996.3
569.063,2004.35
569.23,2002.65
569.396,2006.75
569.563,2007.4
569.73,2010.6
569.897,2011.85
570.064,2030.0
570.231,2031.0
570.398,2038.2
570.565,2059.45
570.732,2062.3
570.898,2081.85
571.065,2116.4
571.232,2280.25
571.399,2637.3
571.566,2816.05
571.733,2456.75
571.9,2264.3
572.066,2189.4
572.233,2156.7
572.4,2114.2
572.567,2093.6
572.734,2072.65
572.9,2064.15
573.067,2066.5
573.234,2062.4
573.401,2077.9
573.567,2083.95
573.734,2104.7
573.901,2124.1
574.068,2116.45
574.234,2090.6
574.401,2084.55
574.568,2073.8
574.734,2078.4
574.901,2094.05
575.068,2104.85
575.235,2162.85
575.401,2302.55
575.568,2381.85
575.735,2376.3
575.901,2460.2
576.068,2698.8
576.235,2875.95
576.401,2840.05
576.568,2673.35
576.734,2636.3
576.901,2621.3
577.068,2608.0
577.234,2492.4
577.401,2381.0
577.567,2313.85
577.734,2279.7
577.901,2284.55
578.067,2257.8
578.234,2260.95
578.4,2273.6
578.567,2275.05
578.733,2284.85
578.9,2300.25
579.066,2314.2
579.233,2313.85
579.399,2328.0
579.566,2356.7
579.732,2355.5
579.899,2382.95
580.065,2389.85
580.232,2396.9
580.398,2406.1
580.565,2432.65
580.731,2438.5
580.898,2430.8
581.064,2463.9
581.231,2487.6
581.397,2465.5
581.563,2496.55
581.73,2496.55
581.896,2515.2
582.063,2521.35
582.229,2536.6
582.395,2535.4
582.562,2556.65
582.728,2562.35
582.895,2565.8
583.061,2562.6
583.227,2588.8
583.394,2601.9
583.56,2615.35
583.726,2614.3
583.893,2626.1
584.059,2625.0
584.225,2652.25
584.391,2661.25
584.558,2629.75
584.724,2679.4
584.89,2676.7
585.057,2684.95
585.223,2669.0
585.389,2710.0
585.555,2688.6
585.722,2733.4
585.888,2752.75
586.054,2736.3
586.22,2765.45
586.386,2755.15
586.553,2788.2
586.719,2788.65
586.885,2767.8
587.051,2804.7
587.217,2802.6
587.384,2842.05
587.55,2871.5
587.716,2891.3
587.882,2859.7
588.048,2887.3
588.214,2899.1
588.38,2909.7
588.546,2948.7
588.713,2945.0
588.879,2978.5
589.045,2992.15
589.211,2974.45
589.377,2999.0
589.543,3010.45
589.709,3065.0
589.875,3052.2
590.041,3060.8
590.207,3095.0
590.373,3107.25
590.539,3091.05
590.705,3137.4
590.871,3148.75
591.037,3125.6
591.203,3183.7
591.369,3170.65
591.535,3206.9
591.701,3233.6
591.867,3235.9
592.033,3251.9
592.199,3228.55
592.365,3262.65
592.531,3302.0
592.697,3261.8
592.863,3284.05
593.029,3337.7
593.195,3330.65
593.361,3331.85
593.526,3379.05
593.692,3341.4
593.858,3327.9
594.024,3336.9
594.19,3343.8
594.356,3372.1
594.522,3426.0
594.687,3396.3
594.853,3446.9
595.019,3433.3
595.185,3465.7
595.351,3461.35
595.516,3473.45
595.682,3526.3
595.848,3538.5
596.014,3533.6
596.18,3611.8
596.345,3591.75
596.511,3627.4
596.677,3676.25
596.843,3624.95
597.008,3679.8
597.174,3690.6
597.34,3708.1
597.505,3700.15
597.671,3746.35
597.837,3781.55
598.002,3813.8
598.168,3779.9
598.334,3833.7
598.499,3832.55
598.665,3892.8
598.831,3897.9
598.996,3907.45
599.162,3878.0
599.328,3978.25
599.493,3937.3
599.659,3993.05
599.824,3957.1
599.99,4054.85
600.156,3983.8
600.321,3967.65
600.487,4031.3
600.652,3992.8
600.818,3993.3
600.983,4008.25
601.149,4002.95
601.314,4003.65
601.48,4022.95
601.645,4043.2
601.811,3989.65
601.976,3959.6
602.142,4019.75
602.307,3962.85
602.473,3974.4
602.638,3969.1
602.804,3897.65
602.969,3917.6
603.135,3875.5
603.3,3932.45
603.466,3810.25
603.631,3821.45
603.796,3823.3
603.962,3835.95
604.127,3724.85
604.293,3744.9
604.458,3748.55
604.623,3663.65
604.789,3660.2
604.954,3630.35
605.119,3619.25
605.285,3617.6
605.45,3530.7
605.615,3577.15
605.781,3512.9
605.946,3485.6
606.111,3461.5
606.277,3413.2
606.442,3389.95
606.607,3402.55
606.772,3384.6
606.938,3337.65
607.103,3360.55
607.268,3275.0
607.433,3248.05
607.599,3267.2
607.764,3260.65
607.929,3249.5
608.094,3235.8
608.259,3177.25
608.425,3144.6
608.59,3162.2
608.755,3141.65
608.92,3114.0
609.085,3088.85
609.25,3100.45
609.415,3043.1
609.581,3036.65
609.746,3049.5
609.911,3077.35
610.076,3032.95
610.241,3025.3
610.406,3015.6
610.571,3019.75
610.736,2991.85
610.901,3002.3
611.066,2994.25
611.231,2985.5
611.396,2939.55
611.561,2965.05
611.727,2949.5
611.892,2932.15
612.057,2902.6
612.222,2939.55
612.386,2883.65
612.551,2887.35
612.716,2858.45
612.881,2878.05
613.046,2861.55
613.211,2859.35
613.376,2826.6
613.541,2828.25
613.706,2824.85
613.871,2819.25
614.036,2810.55
614.201,2792.7
614.366,2789.05
614.531,2796.35
614.695,2768.8
614.86,2778.9
615.025,2787.2
615.19,2753.65
615.355,2756.55
615.52,2733.3
615.684,2735.05
615.849,2753.85
616.014,2712.25
616.179,2718.6
616.344,2719.05
616.508,2706.15
616.673,2698.2
616.838,2706.45
617.003,2714.8
617.168,2727.45
617.332,2689.0
617.497,2668.7
617.662,2707.5
617.826,2685.65
617.991,2694.45
618.156,2689.75
618.32,2664.4
618.485,2689.65
618.65,2674.4
618.814,2667.55
618.979,2671.6
619.144,2684.15
619.308,2673.15
619.473,2666.2
619.638,2654.35
619.802,2680.1
619.967,2657.6
620.131,2655.45
620.296,2687.2
620.461,2652.95
620.625,2642.6
620.79,2654.9
620.954,2668.7
621.119,2666.7
621.283,2690.75
621.448,2701.3
621.612,2738.15
621.777,2772.55
621.941,2798.05
622.106,2862.55
622.27,2834.85
622.435,2794.8
622.599,2774.75
622.764,2746.85
622.928,2687.5
623.093,2649.7
623.257,2599.5
623.422,2601.3
623.586,2580.75
623.75,2589.4
623.915,2600.5
624.079,2575.6
624.244,2578.55
624.408,2590.55
624.572,2571.45
624.737,2580.45
624.901,2586.75
625.065,2582.75
625.23,2574.3
625.394,2595.25
625.558,2612.5
625.723,2623.9
625.887,2646.25
626.051,2710.35
626.215,2781.05
626.38,2912.3
626.544,3218.7
626.708,3818.15
626.872,4837.2
627.037,5918.7
627.201,6293.6
627.365,5928.9
627.529,5441.5
627.693,5009.25
627.858,4802.6
628.022,4797.3
628.186,5276.7
628.35,5954.15
628.514,6540.4
628.678,5847.15
628.843,5167.45
629.007,4870.3
629.171,4704.3
629.335,4588.9
629.499,4423.35
629.663,4172.2
629.827,3987.8
629.991,3917.75
630.155,3930.0
630.319,3901.75
630.483,3757.0
630.647,3611.6
630.812,3367.85
630.976,3200.2
631.14,2971.8
631.304,2818.7
631.468,2763.45
631.632,2750.35
631.796,2696.45
631.959,2660.4
632.123,2619.4
632.287,2606.45
632.451,2579.8
632.615,2585.3
632.779,2572.55
632.943,2572.1
633.107,2531.1
633.271,2554.5
633.435,2575.75
633.599,2536.9
633.763,2529.0
633.926,2531.35
634.09,2523.9
634.254,2511.0
634.418,2499.2
634.582,2517.85
634.746,2503.75
634.909,2512.65
635.073,2505.9
635.237,2496.45
635.401,2481.7
635.564,2479.5
635.728,2486.2
635.892,2515.1
636.056,2503.65
636.219,2500.35
636.383,2482.7
636.547,2509.55
636.711,2491.25
636.874,2501.85
637.038,2518.55
637.202,2490.05
637.365,2474.3
637.529,2478.35
637.693,2488.35
637.856,2499.3
638.02,2477.25
638.184,2500.1
638.347,2487.45
638.511,2493.45
638.674,2472.25
638.838,2495.1
639.002,2499.85
639.165,2490.35
639.329,2492.2
639.492,2474.65
639.656,2472.8
639.819,2483.95
639.983,2497.35
640.146,2503.95
640.31,2486.05
640.473,2500.05
640.637,2492.85
640.8,2521.5
640.964,2500.1
641.127,2491.95
641.291,2519.65
641.454,2511.95
641.618,2524.0
641.781,2526.8
641.944,2498.05
642.108,2499.0
642.271,2522.6
642.435,2537.85
642.598,2525.7
642.761,2511.75
642.925,2530.45
643.088,2530.55
643.251,2513.55
643.415,2540.8
643.578,2522.75
643.741,2546.55
643.905,2548.9
644.068,2546.9
644.231,2539.6
644.394,2571.2
644.558,2566.1
644.721,2526.15
644.884,2534.8
645.047,2564.4
645.211,2558.7
645.374,2562.05
645.537,2518.0
645.7,2539.6
645.863,2555.65
646.027,2527.5
646.19,2550.8
646.353,2552.15
646.516,2560.25
646.679,2584.45
646.842,2561.85
647.005,2527.2
647.169,2549.85
647.332,2552.8
647.495,2563.25
647.658,2558.0
647.821,2528.2
647.984,2541.95
648.147,2555.45
648.31,2570.35
648.473,2548.2
648.636,2572.2
648.799,2569.25
648.962,2555.35
649.125,2549.65
649.288,2560.35
649.451,2528.85
649.614,2555.45
649.777,2548.45
649.94,2563.9
650.103,2554.1
650.266,2533.9
650.429,2566.9
650.592,2551.9
650.755,2567.35
650.918,2568.4
651.08,2555.6
651.243,2564.1
651.406,2550.55
651.569,2560.05
651.732,2557.4
651.895,2573.15
652.058,2589.45
652.22,2583.6
652.383,2538.9
652.546,2554.75
652.709,2549.4
652.872,2565.5
653.034,2550.25
653.197,2550.5
653.36,2532.55
653.523,2529.5
653.685,2589.6
653.848,2580.3
654.011,2541.4
654.173,2543.5
654.336,2548.0
654.499,2542.9
654.662,2532.25
654.824,2535.3
654.987,2543.95
655.149,2542.25
655.312,2529.55
655.475,2538.35
655.637,2552.35
655.8,2539.8
655.963,2530.35
656.125,2505.1
656.288,2483.6
656.45,2536.35
656.613,2543.55
656.775,2504.85
656.938,2504.75
657.1,2487.85
657.263,2509.3
657.425,2466.4
657.588,2477.65
657.75,2459.15
657.913,2452.95
658.075,2458.3
658.238,2453.8
658.4,2454.7
658.563,2439.75
658.725,2413.65
658.888,2413.25
659.05,2408.2
659.212,2411.9
659.375,2381.15
659.537,2378.4
659.7,2370.9
659.862,2373.8
660.024,2360.4
660.187,2359.75
660.349,2367.2
660.511,2354.8
660.674,2362.0
660.836,2315.55
660.998,2327.35
661.079,2323.1