File: spectra/VLFR_02-HDPE_bio_Raman_822efd73.csv
nm,Intensity
526.508,829.7
526.645,830.3
526.782,831.1
526.919,831.5
527.055,830.8
527.192,831.0
527.329,831.0
527.465,829.8
527.602,830.8
527.739,830.3
527.875,830.5
528.012,829.8
528.149,828.6
528.285,830.2
528.422,829.6
528.558,829.3
528.695,829.5
528.832,828.9
528.968,829.5
529.105,829.9
529.241,828.5
529.378,830.0
529.514,829.8
529.651,830.0
529.787,829.8
529.924,831.5
530.061,829.1
530.197,828.7
530.334,829.3
530.47,828.7
530.606,829.2
530.743,829.7
530.879,830.4
531.016,828.3
531.152,830.1
531.289,830.0
531.425,830.8
531.562,830.2
531.698,830.1
531.834,830.1
531.971,832.5
532.107,865.2
532.244,883.7
532.38,842.1
532.516,829.7
532.653,829.9
532.789,829.8
532.925,829.8
533.062,830.3
533.198,830.3
533.334,829.6
533.471,830.3
533.607,830.6
533.743,835.5
533.879,846.0
534.016,875.1
534.152,888.5
534.288,888.6
534.424,887.3
534.561,887.8
534.697,887.7
534.833,891.1
534.969,889.2
535.106,891.8
535.242,888.6
535.378,883.1
535.514,873.2
535.65,864.5
535.786,859.3
535.923,859.3
536.059,858.5
536.195,854.2
536.331,851.3
536.467,851.0
536.603,851.3
536.739,850.4
536.876,848.8
537.012,850.3
537.148,849.1
537.284,850.5
537.42,851.5
537.556,850.6
537.692,847.2
537.828,847.7
537.964,849.1
538.1,847.1
538.236,850.0
538.372,846.5
538.508,846.0
538.644,846.4
538.78,845.9
538.916,845.4
539.052,842.8
539.188,842.0
539.324,841.3
539.46,844.0
539.596,842.2
539.732,841.3
539.868,841.9
540.004,840.8
540.14,841.7
540.275,840.4
540.411,839.3
540.547,840.6
540.683,841.8
540.819,838.7
540.955,839.2
541.091,841.3
541.227,840.3
541.362,841.2
541.498,838.7
541.634,840.2
541.77,840.8
541.906,839.6
542.041,839.8
542.177,840.7
542.313,837.5
542.449,839.7
542.585,838.7
542.72,840.2
542.856,840.5
542.992,839.5
543.128,839.0
543.263,838.8
543.399,840.3
543.535,840.1
543.67,839.1
543.806,838.1
543.942,839.3
544.078,838.4
544.213,839.8
544.349,840.1
544.485,837.1
544.62,839.3
544.756,836.6
544.892,837.0
545.027,838.8
545.163,835.4
545.298,837.0
545.434,837.2
545.57,840.6
545.705,839.5
545.841,838.8
545.976,841.1
546.112,838.4
546.248,842.6
546.383,850.9
546.519,859.0
546.654,855.6
546.79,846.5
546.925,841.4
547.061,839.4
547.196,838.8
547.332,837.7
547.467,838.4
547.603,839.5
547.738,839.5
547.874,838.7
548.009,838.3
548.145,836.9
548.28,836.9
548.416,839.3
548.551,836.8
548.686,837.5
548.822,838.7
548.957,838.0
549.093,837.2
549.228,839.2
549.363,838.4
549.499,840.5
549.634,840.8
549.77,839.7
549.905,838.9
550.04,840.9
550.176,841.7
550.311,841.0
550.446,844.7
550.582,838.4
550.717,838.3
550.852,839.2
550.988,838.8
551.123,838.9
551.258,838.8
551.394,837.8
551.529,837.5
551.664,837.3
551.799,836.8
551.935,837.4
552.07,838.5
552.205,837.8
552.34,837.5
552.476,836.1
552.611,838.5
552.746,840.0
552.881,838.5
553.016,838.8
553.152,837.2
553.287,840.3
553.422,839.1
553.557,839.3
553.692,840.0
553.827,840.6
553.963,839.0
554.098,837.8
554.233,839.5
554.368,841.5
554.503,839.5
554.638,842.6
554.773,839.9
554.908,840.6
555.043,841.0
555.179,841.7
555.314,840.4
555.449,841.4
555.584,843.3
555.719,842.1
555.854,839.9
555.989,841.7
556.124,842.7
556.259,840.9
556.394,843.7
556.529,843.0
556.664,843.9
556.799,842.5
556.934,842.9
557.069,842.1
557.204,842.9
557.339,845.8
557.474,845.7
557.609,846.0
557.744,845.3
557.879,844.2
558.014,844.7
558.149,845.6
558.284,846.9
558.419,846.6
558.553,845.1
558.688,845.0
558.823,845.8
558.958,844.8
559.093,842.9
559.228,845.3
559.363,844.1
559.498,844.3
559.632,846.2
559.767,845.6
559.902,844.9
560.037,843.7
560.172,844.2
560.307,844.8
560.441,843.3
560.576,842.9
560.711,844.1
560.846,843.7
560.981,843.4
561.115,845.6
561.25,842.4
561.385,844.1
561.52,844.8
561.654,845.6
561.789,845.1
561.924,846.2
562.059,851.7
562.193,868.4
562.328,907.8
562.463,893.4
562.598,861.0
562.732,850.0
562.867,849.1
563.002,847.8
563.136,847.2
563.271,848.6
563.406,850.1
563.54,849.1
563.675,854.3
563.81,867.3
563.944,909.6
564.079,959.0
564.213,920.7
564.348,874.0
564.483,863.7
564.617,860.5
564.752,861.1
564.887,859.1
565.021,859.1
565.156,854.3
565.29,853.6
565.425,852.3
565.559,851.2
565.694,854.9
565.828,859.5
565.963,868.0
566.098,894.9
566.232,931.6
566.367,901.0
566.501,866.8
566.636,859.0
566.77,855.1
566.905,852.5
567.039,850.9
567.174,853.4
567.308,855.9
567.443,871.1
567.577,873.1
567.711,856.0
567.846,850.3
567.98,851.6
568.115,850.5
568.249,848.1
568.384,848.1
568.518,847.4
568.652,849.1
568.787,849.7
568.921,847.4
569.056,849.6
569.19,849.3
569.324,850.5
569.459,848.4
569.593,850.6
569.727,852.1
569.862,851.7
569.996,850.4
570.131,851.6
570.265,849.2
570.399,851.9
570.534,855.6
570.668,857.5
570.802,860.4
570.936,860.5
571.071,862.6
571.205,864.7
571.339,880.8
571.474,951.1
571.608,1051.7
571.742,958.8
571.876,892.9
572.011,876.5
572.145,870.4
572.279,865.4
572.413,862.3
572.548,859.4
572.682,859.4
572.816,858.6
572.95,855.6
573.084,854.3
573.219,857.4
573.353,856.9
573.487,857.8
573.621,860.1
573.755,863.3
573.889,865.7
574.024,868.9
574.158,867.7
574.292,862.9
574.426,861.6
574.56,861.1
574.694,862.5
574.828,861.8
574.963,861.0
575.097,864.9
575.231,867.1
575.365,873.9
575.499,898.7
575.633,916.7
575.767,896.8
575.901,894.6
576.035,913.8
576.169,957.2
576.303,1005.0
576.437,1012.1
576.571,965.4
576.706,944.4
576.84,943.9
576.974,949.3
577.108,954.6
577.242,948.8
577.376,927.2
577.51,910.8
577.644,899.1
577.778,891.4
577.912,888.2
578.046,889.4
578.179,887.3
578.313,888.2
578.447,887.4
578.581,886.5
578.715,890.2
578.849,890.1
578.983,892.5
579.117,893.2
579.251,896.5
579.385,895.9
579.519,896.8
579.653,898.5
579.787,899.2
579.921,898.9
580.054,904.1
580.188,905.1
580.322,902.1
580.456,904.9
580.59,904.3
580.724,907.0
580.858,910.0
580.991,910.7
581.125,915.8
581.259,912.3
581.393,916.5
581.527,918.5
581.661,917.1
581.794,922.5
581.928,919.0
582.062,922.3
582.196,922.2
582.33,922.4
582.463,925.3
582.597,925.5
582.731,924.2
582.865,927.2
582.998,931.1
583.132,927.7
583.266,931.3
583.4,928.0
583.533,929.0
583.667,933.5
583.801,933.5
583.935,935.1
584.068,935.4
584.202,934.5
584.336,935.8
584.469,936.4
584.603,937.3
584.737,936.0
584.87,933.0
585.004,936.0
585.138,936.0
585.271,934.5
585.405,936.4
585.539,933.8
585.672,936.3
585.806,935.7
585.94,934.0
586.073,931.0
586.207,936.5
586.34,937.4
586.474,935.2
586.608,940.1
586.741,940.0
586.875,935.4
587.008,938.6
587.142,939.6
587.276,938.0
587.409,940.3
587.543,939.7
587.676,942.6
587.81,942.2
587.943,937.2
588.077,941.5
588.21,946.9
588.344,942.5
588.478,940.4
588.611,943.1
588.745,943.0
588.878,942.1
589.012,942.5
589.145,943.3
589.279,943.0
589.412,942.8
589.546,946.9
589.679,951.1
589.812,947.2
589.946,949.1
590.079,952.8
590.213,954.3
590.346,954.0
590.48,955.7
590.613,958.5
590.747,959.3
590.88,958.9
591.013,963.5
591.147,961.1
591.28,961.5
591.414,966.6
591.547,962.0
591.68,963.5
591.814,964.7
591.947,968.0
592.081,965.4
592.214,967.7
592.347,969.1
592.481,966.8
592.614,971.4
592.747,969.5
592.881,968.6
593.014,972.1
593.147,970.8
593.281,967.1
593.414,968.9
593.547,972.6
593.681,969.2
593.814,972.2
593.947,973.7
594.081,972.1
594.214,973.0
594.347,972.4
594.48,975.0
594.614,973.0
594.747,973.6
594.88,975.4
595.014,971.3
595.147,972.7
595.28,976.5
595.413,977.5
595.547,971.4
595.68,972.1
595.813,972.8
595.946,974.2
596.079,968.6
596.213,970.1
596.346,973.2
596.479,975.2
596.612,976.0
596.745,973.8
596.879,979.0
597.012,976.1
597.145,973.8
597.278,970.2
597.411,975.3
597.545,973.1
597.678,971.2
597.811,976.3
597.944,979.2
598.077,977.0
598.21,979.5
598.343,978.3
598.476,973.8
598.61,974.7
598.743,979.6
598.876,980.7
599.009,980.1
599.142,982.0
599.275,979.4
599.408,978.7
599.541,975.8
599.674,975.3
599.807,984.2
599.941,978.8
600.074,978.2
600.207,978.2
600.34,979.1
600.473,974.3
600.606,974.9
600.739,977.9
600.872,974.2
601.005,979.6
601.138,979.3
601.271,975.8
601.404,980.7
601.537,975.8
601.67,977.2
601.803,979.9
601.936,980.9
602.069,978.0
602.202,974.0
602.335,973.7
602.468,974.7
602.601,975.6
602.734,977.9
602.867,978.4
603.0,975.7
603.133,972.3
603.266,975.2
603.399,973.5
603.532,972.0
603.664,972.3
603.797,979.7
603.93,974.6
604.063,973.6
604.196,968.0
604.329,967.6
604.462,966.9
604.595,965.2
604.728,969.8
604.861,965.5
604.994,960.8
605.126,962.0
605.259,964.8
605.392,961.9
605.525,958.3
605.658,955.7
605.791,953.9
605.924,955.8
606.056,951.3
606.189,952.3
606.322,947.5
606.455,947.7
606.588,946.7
606.721,945.3
606.853,946.7
606.986,944.2
607.119,946.8
607.252,942.7
607.385,944.3
607.517,944.7
607.65,941.0
607.783,945.4
607.916,943.3
608.049,943.5
608.181,945.2
608.314,940.0
608.447,941.2
608.58,941.2
608.712,942.6
608.845,941.1
608.978,940.7
609.111,938.6
609.243,937.4
609.376,938.5
609.509,936.3
609.641,934.4
609.774,934.5
609.907,933.7
610.04,934.0
610.172,931.0
610.305,929.1
610.438,932.2
610.57,930.6
610.703,933.1
610.836,931.0
610.968,929.6
611.101,929.4
611.234,931.6
611.366,929.8
611.499,928.8
611.632,927.1
611.764,930.2
611.897,925.5
612.03,929.7
612.162,932.7
612.295,927.4
612.428,928.3
612.56,929.7
612.693,927.7
612.825,924.9
612.958,926.5
613.091,928.6
613.223,927.0
613.356,926.1
613.488,928.1
613.621,923.7
613.754,928.6
613.886,924.7
614.019,921.5
614.151,928.4
614.284,925.2
614.416,924.9
614.549,924.8
614.681,925.3
614.814,925.8
614.947,924.0
615.079,926.2
615.212,915.5
615.344,921.6
615.477,923.9
615.609,922.3
615.742,921.0
615.874,925.2
616.007,923.6
616.139,921.7
616.272,920.2
616.404,924.5
616.537,921.6
616.669,920.8
616.802,923.1
616.934,931.6
617.067,929.6
617.199,927.3
617.332,925.9
617.464,930.5
617.596,932.3
617.729,931.6
617.861,929.6
617.994,929.4
618.126,932.0
618.259,926.2
618.391,927.3
618.524,927.4
618.656,924.3
618.788,926.9
618.921,926.3
619.053,930.4
619.186,927.2
619.318,931.3
619.45,929.8
619.583,930.3
619.715,932.0
619.848,932.4
619.98,933.2
620.112,928.2
620.245,929.1
620.377,927.7
620.509,924.3
620.642,929.2
620.774,932.5
620.907,931.0
621.039,932.6
621.171,936.7
621.304,942.7
621.436,947.8
621.568,948.3
621.701,958.6
621.833,967.4
621.965,978.8
622.097,988.0
622.23,995.8
622.362,1003.7
622.494,1004.3
622.627,979.5
622.759,969.1
622.891,955.5
623.024,946.4
623.156,939.9
623.288,933.2
623.42,932.2
623.553,927.8
623.685,932.3
623.817,926.8
623.949,925.0
624.082,927.0
624.214,931.6
624.346,926.2
624.479,924.6
624.611,930.1
624.743,928.8
624.875,924.7
625.007,928.7
625.14,930.1
625.272,932.1
625.404,934.0
625.536,932.4
625.669,933.4
625.801,940.9
625.933,945.4
626.065,951.9
626.197,962.3
626.33,979.4
626.462,1009.5
626.594,1060.2
626.726,1168.7
626.858,1337.3
626.99,1559.6
627.123,1831.2
627.255,1973.0
627.387,1916.6
627.519,1775.4
627.651,1643.2
627.783,1543.4
627.916,1483.8
628.048,1460.4
628.18,1476.0
628.312,1571.9
628.444,1801.1
628.576,2134.2
628.708,1993.2
628.84,1608.6
628.973,1453.9
629.105,1412.3
629.237,1402.5
629.369,1363.6
629.501,1327.3
629.633,1287.3
629.765,1243.1
629.897,1216.5
630.029,1192.0
630.161,1179.6
630.294,1181.0
630.426,1180.8
630.558,1166.0
630.69,1136.8
630.822,1097.0
630.954,1062.9
631.086,1026.3
631.218,995.1
631.35,970.0
631.482,956.8
631.614,949.5
631.746,945.4
631.878,943.1
632.01,939.9
632.142,931.2
632.274,935.6
632.406,930.1
632.538,928.0
632.67,927.0
632.802,930.8
632.934,929.1
633.066,926.3
633.198,929.7
633.33,925.6
633.462,922.5
633.594,923.3
633.726,919.6
633.858,918.7
633.99,919.5
634.122,918.2
634.254,919.3
634.386,918.1
634.518,912.7
634.65,917.8
634.782,919.0
634.914,914.4
635.046,914.7
635.178,916.5
635.31,914.7
635.442,916.0
635.574,911.4
635.706,914.0
635.838,913.6
635.97,912.2
636.102,912.6
636.234,911.3
636.365,913.2
636.497,914.1
636.629,914.4
636.761,915.4
636.893,914.5
637.025,909.8
637.157,911.5
637.289,909.1
637.421,904.6
637.553,908.5
637.685,906.8
637.816,905.4
637.948,903.6
638.08,904.8
638.212,902.7
638.344,903.0
638.476,903.5
638.608,905.8
638.74,905.7
638.871,903.6
639.003,905.4
639.135,904.3
639.267,903.0
639.399,904.5
639.531,905.8
639.662,905.0
639.794,903.1
639.926,904.1
640.058,905.2
640.19,906.3
640.322,901.6
640.453,905.0
640.585,904.1
640.717,904.2
640.849,905.9
640.981,902.5
641.113,908.3
641.244,906.6
641.376,907.1
641.508,906.8
641.64,903.5
641.772,903.1
641.903,904.5
642.035,907.2
642.167,903.1
642.299,906.2
642.43,904.3
642.562,906.5
642.694,904.6
642.826,902.3
642.958,906.1
643.089,905.7
643.221,905.1
643.353,909.8
643.485,909.0
643.616,909.6
643.748,907.5
643.88,908.1
644.012,904.4
644.143,907.1
644.275,903.9
644.407,906.3
644.538,906.7
644.67,909.2
644.802,906.4
644.934,906.1
645.065,903.9
645.197,903.4
645.329,903.5
645.461,906.0
645.592,905.6
645.724,904.6
645.856,908.9
645.987,906.0
646.119,904.5
646.251,907.9
646.382,904.7
646.514,908.2
646.646,906.2
646.777,906.1
646.909,909.6
647.041,906.2
647.172,908.9
647.304,906.6
647.436,912.0
647.567,907.5
647.699,906.7
647.831,906.2
647.962,901.6
648.094,907.3
648.226,903.2
648.357,906.6
648.489,903.4
648.621,905.9
648.752,904.1
648.884,905.4
649.016,906.0
649.147,905.3
649.279,903.4
649.411,903.6
649.542,903.8
649.674,904.9
649.805,902.8
649.937,903.6
650.069,904.3
650.2,902.2
650.332,906.2
650.463,901.3
650.595,902.3
650.727,899.6
650.858,900.2
650.99,900.4
651.121,898.7
651.253,900.8
651.385,903.3
651.516,900.0
651.648,901.0
651.779,899.8
651.911,899.6
652.043,899.9
652.174,897.5
652.306,899.5
652.437,899.5
652.569,900.6
652.7,898.1
652.832,899.2
652.963,898.3
653.095,900.9
653.227,899.5
653.358,902.2
653.49,899.8
653.621,900.8
653.753,899.4
653.884,898.4
654.016,902.4
654.147,897.9
654.279,897.4
654.41,899.7
654.542,896.0
654.674,897.1
654.805,900.7
654.937,897.2
655.068,895.7
655.2,897.0
655.331,893.2
655.463,896.8
655.594,896.2
655.726,893.4
655.857,893.6
655.989,894.6
656.12,897.0
656.252,895.0
656.383,894.9
656.515,892.8
656.646,897.7
656.778,893.9
656.909,892.4
657.041,892.6
657.172,892.1
657.304,895.8
657.435,891.6
657.567,894.2
657.698,888.2
657.829,890.9
657.961,888.2
658.092,891.7
658.224,890.5
658.355,894.3
658.487,890.0
658.618,889.5
658.75,888.1
658.881,891.5
659.013,892.2
659.144,891.8
659.275,887.5
659.407,889.2
659.538,888.7
659.67,888.8
659.801,891.3
659.933,889.5
660.064,889.2
660.196,889.7
660.327,889.4
660.458,888.2
660.59,887.0
660.721,888.5
660.853,886.6
660.984,884.1
661.116,884.4
661.247,886.2
661.378,882.9
661.51,884.8
661.641,880.8
661.773,881.4
661.904,881.3
662.035,880.2
662.167,880.7
662.298,877.6
662.43,877.5
662.561,881.2
662.692,878.5
662.824,881.3
662.955,881.9
663.087,873.7