File: spectra/VLFR_01-LDPE_bio_Raman_49a399cc.csv
nm,Intensity
528.65,1856.6
528.819,1855.6
528.987,1853.95
529.155,1855.55
529.324,1855.35
529.492,1856.1
529.66,1855.65
529.829,1855.4
529.997,1856.65
530.165,1855.3
530.334,1856.1
530.502,1856.2
530.67,1856.15
530.839,1855.05
531.007,1855.15
531.175,1856.25
531.344,1857.95
531.512,1858.0
531.68,1869.35
531.848,2055.55
532.017,2702.95
532.185,2559.5
532.353,1929.1
532.521,1858.3
532.69,1856.35
532.858,1857.05
533.026,1854.85
533.194,1855.05
533.363,1857.15
533.531,1864.95
533.699,1905.9
533.867,1987.85
534.036,2035.2
534.204,2053.5
534.372,2054.4
534.54,2054.25
534.708,2058.05
534.877,2057.75
535.045,2066.45
535.213,2070.25
535.381,2062.8
535.549,2069.25
535.717,2071.7
535.886,2069.25
536.054,2061.15
536.222,2054.75
536.39,2058.3
536.558,2051.15
536.726,2047.65
536.894,2048.95
537.062,2057.85
537.231,2067.5
537.399,2070.45
537.567,2054.2
537.735,2060.8
537.903,2063.45
538.071,2068.1
538.239,2069.0
538.407,2083.25
538.575,2088.85
538.743,2116.95
538.911,2134.6
539.079,2139.65
539.247,2134.1
539.415,2093.7
539.583,2081.8
539.751,2062.4
539.919,2063.0
540.087,2048.55
540.255,2051.75
540.423,2054.25
540.591,2051.3
540.759,2054.25
540.927,2051.45
541.095,2060.35
541.263,2064.1
541.431,2051.8
541.599,2056.85
541.767,2053.8
541.935,2058.4
542.103,2055.05
542.271,2062.7
542.439,2070.5
542.607,2078.95
542.775,2087.6
542.943,2092.1
543.111,2090.15
543.279,2079.3
543.446,2068.9
543.614,2066.05
543.782,2077.5
543.95,2085.95
544.118,2093.2
544.286,2083.55
544.454,2057.2
544.622,2063.35
544.789,2053.65
544.957,2058.8
545.125,2063.3
545.293,2058.8
545.461,2056.55
545.629,2060.7
545.796,2076.5
545.964,2089.25
546.132,2132.05
546.3,2230.35
546.468,2274.6
546.635,2223.3
546.803,2135.4
546.971,2096.1
547.139,2084.2
547.306,2076.75
547.474,2073.65
547.642,2062.55
547.81,2073.9
547.977,2066.7
548.145,2071.75
548.313,2066.05
548.481,2075.8
548.648,2064.95
548.816,2076.45
548.984,2088.2
549.151,2079.05
549.319,2086.55
549.487,2089.35
549.655,2092.15
549.822,2100.55
549.99,2110.6
550.158,2131.05
550.325,2137.95
550.493,2124.65
550.66,2101.65
550.828,2096.8
550.996,2098.2
551.163,2097.25
551.331,2097.5
551.499,2104.45
551.666,2103.15
551.834,2103.95
552.001,2103.1
552.169,2092.35
552.337,2080.95
552.504,2079.4
552.672,2073.4
552.839,2074.05
553.007,2079.5
553.174,2077.15
553.342,2080.1
553.509,2073.95
553.677,2077.05
553.844,2077.4
554.012,2071.15
554.179,2080.8
554.347,2074.65
554.514,2078.5
554.682,2075.25
554.849,2078.1
555.017,2092.25
555.184,2080.6
555.352,2072.75
555.519,2077.45
555.687,2078.85
555.854,2078.65
556.022,2076.25
556.189,2083.3
556.357,2075.7
556.524,2082.85
556.691,2075.75
556.859,2091.8
557.026,2087.2
557.194,2080.55
557.361,2079.05
557.528,2089.75
557.696,2087.05
557.863,2085.7
558.031,2081.15
558.198,2102.1
558.365,2083.2
558.533,2082.1
558.7,2089.8
558.867,2088.95
559.035,2090.7
559.202,2094.0
559.369,2079.65
559.537,2089.3
559.704,2088.95
559.871,2091.35
560.038,2088.45
560.206,2092.2
560.373,2092.65
560.54,2092.85
560.708,2095.8
560.875,2100.85
561.042,2106.15
561.209,2098.25
561.377,2125.5
561.544,2130.95
561.711,2154.4
561.878,2220.9
562.045,2580.6
562.213,3121.25
562.38,3146.1
562.547,2441.15
562.714,2194.0
562.881,2147.0
563.049,2137.25
563.216,2132.15
563.383,2130.95
563.55,2140.15
563.717,2153.6
563.884,2197.4
564.052,2232.2
564.219,2182.45
564.386,2159.55
564.553,2158.45
564.72,2158.65
564.887,2157.15
565.054,2149.8
565.221,2149.35
565.388,2140.85
565.556,2151.1
565.723,2168.4
565.89,2197.1
566.057,2265.2
566.224,2273.2
566.391,2268.35
566.558,2246.85
566.725,2206.15
566.892,2173.05
567.059,2165.45
567.226,2164.0
567.393,2166.7
567.56,2154.2
567.727,2154.6
567.894,2148.05
568.061,2156.7
568.228,2141.4
568.395,2156.5
568.562,2168.6
568.729,2153.15
568.896,2166.15
569.063,2165.45
569.23,2165.3
569.396,2169.25
569.563,2173.65
569.73,2182.45
569.897,2175.0
570.064,2189.7
570.231,2192.95
570.398,2203.0
570.565,2216.65
570.732,2204.95
570.898,2220.05
571.065,2234.05
571.232,2265.8
571.399,2341.4
571.566,2409.55
571.733,2339.1
571.9,2271.95
572.066,2284.15
572.233,2254.45
572.4,2247.1
572.567,2240.9
572.734,2245.7
572.9,2236.4
573.067,2244.1
573.234,2231.45
573.401,2230.5
573.567,2236.9
573.734,2216.55
573.901,2225.85
574.068,2221.8
574.234,2223.5
574.401,2225.1
574.568,2203.85
574.734,2215.45
574.901,2213.9
575.068,2204.7
575.235,2218.8
575.401,2238.85
575.568,2270.4
575.735,2276.5
575.901,2303.6
576.068,2338.3
576.235,2388.15
576.401,2380.2
576.568,2357.2
576.734,2334.25
576.901,2335.15
577.068,2315.05
577.234,2299.4
577.401,2257.05
577.567,2246.75
577.734,2224.65
577.901,2228.7
578.067,2229.35
578.234,2205.65
578.4,2219.3
578.567,2205.2
578.733,2224.6
578.9,2227.25
579.066,2215.75
579.233,2219.45
579.399,2227.25
579.566,2217.15
579.732,2222.05
579.899,2231.0
580.065,2225.45
580.232,2235.0
580.398,2237.1
580.565,2232.45
580.731,2222.95
580.898,2232.3
581.064,2233.05
581.231,2226.85
581.397,2241.1
581.563,2235.5
581.73,2230.65
581.896,2234.9
582.063,2243.35
582.229,2238.0
582.395,2233.25
582.562,2246.05
582.728,2249.15
582.895,2248.55
583.061,2236.55
583.227,2245.8
583.394,2234.85
583.56,2243.5
583.726,2248.15
583.893,2270.05
584.059,2249.35
584.225,2253.25
584.391,2256.7
584.558,2254.55
584.724,2260.6
584.89,2260.05
585.057,2256.4
585.223,2256.8
585.389,2253.05
585.555,2271.9
585.722,2251.85
585.888,2265.9
586.054,2273.15
586.22,2278.0
586.386,2256.4
586.553,2263.8
586.719,2271.45
586.885,2271.9
587.051,2273.6
587.217,2289.85
587.384,2288.05
587.55,2285.95
587.716,2281.8
587.882,2299.9
588.048,2290.1
588.214,2279.9
588.38,2296.8
588.546,2290.65
588.713,2286.95
588.879,2297.3
589.045,2302.1
589.211,2288.6
589.377,2290.6
589.543,2305.3
589.709,2321.45
589.875,2302.1
590.041,2306.9
590.207,2301.55
590.373,2306.45
590.539,2314.5
590.705,2330.05
590.871,2327.65
591.037,2316.6
591.203,2327.35
591.369,2327.6
591.535,2318.8
591.701,2330.95
591.867,2335.3
592.033,2344.25
592.199,2341.3
592.365,2335.65
592.531,2321.9
592.697,2339.35
592.863,2334.7
593.029,2352.0
593.195,2344.15
593.361,2338.9
593.526,2340.8
593.692,2349.2
593.858,2333.6
594.024,2351.25
594.19,2352.25
594.356,2354.2
594.522,2350.15
594.687,2359.2
594.853,2358.6
595.019,2363.45
595.185,2370.25
595.351,2392.3
595.516,2380.45
595.682,2390.85
595.848,2377.35
596.014,2385.55
596.18,2405.3
596.345,2411.45
596.511,2395.95
596.677,2401.6
596.843,2387.95
597.008,2396.6
597.174,2420.2
597.34,2422.0
597.505,2398.65
597.671,2423.5
597.837,2437.05
598.002,2414.35
598.168,2426.5
598.334,2424.4
598.499,2441.5
598.665,2434.0
598.831,2436.05
598.996,2444.55
599.162,2425.45
599.328,2437.6
599.493,2453.85
599.659,2455.75
599.824,2441.1
599.99,2468.35
600.156,2461.05
600.321,2457.8
600.487,2446.1
600.652,2450.65
600.818,2465.45
600.983,2457.2
601.149,2451.05
601.314,2445.4
601.48,2461.55
601.645,2443.95
601.811,2444.4
601.976,2448.15
602.142,2447.95
602.307,2437.2
602.473,2449.35
602.638,2435.2
602.804,2441.1
602.969,2435.0
603.135,2451.35
603.3,2427.55
603.466,2426.8
603.631,2423.15
603.796,2422.45
603.962,2403.4
604.127,2400.95
604.293,2400.95
604.458,2418.25
604.623,2410.55
604.789,2385.35
604.954,2397.1
605.119,2383.05
605.285,2381.95
605.45,2372.55
605.615,2374.7
605.781,2375.65
605.946,2359.95
606.111,2352.2
606.277,2365.0
606.442,2361.75
606.607,2351.85
606.772,2357.35
606.938,2349.7
607.103,2349.2
607.268,2346.6
607.433,2346.55
607.599,2341.25
607.764,2329.65
607.929,2337.75
608.094,2338.8
608.259,2327.7
608.425,2351.35
608.59,2324.65
608.755,2336.5
608.92,2308.4
609.085,2304.5
609.25,2326.75
609.415,2320.35
609.581,2318.35
609.746,2304.6
609.911,2302.8
610.076,2312.05
610.241,2313.05
610.406,2310.75
610.571,2306.25
610.736,2301.05
610.901,2309.9
611.066,2305.4
611.231,2308.8
611.396,2305.65
611.561,2297.95
611.727,2299.85
611.892,2306.65
612.057,2295.2
612.222,2295.9
612.386,2283.9
612.551,2294.8
612.716,2283.95
612.881,2279.25
613.046,2307.05
613.211,2293.75
613.376,2298.0
613.541,2295.15
613.706,2285.65
613.871,2288.25
614.036,2288.5
614.201,2289.45
614.366,2287.7
614.531,2289.15
614.695,2293.6
614.86,2265.5
615.025,2277.7
615.19,2279.05
615.355,2285.05
615.52,2271.65
615.684,2273.5
615.849,2266.6
616.014,2275.45
616.179,2288.1
616.344,2278.4
616.508,2278.95
616.673,2277.1
616.838,2280.9
617.003,2271.2
617.168,2278.8
617.332,2284.35
617.497,2279.95
617.662,2273.2
617.826,2288.05
617.991,2286.2
618.156,2279.85
618.32,2282.1
618.485,2278.3
618.65,2270.3
618.814,2272.45
618.979,2261.8
619.144,2280.3
619.308,2276.7
619.473,2295.55
619.638,2282.0
619.802,2278.1
619.967,2287.4
620.131,2285.1
620.296,2280.45
620.461,2277.35
620.625,2276.3
620.79,2282.45
620.954,2288.8
621.119,2294.95
621.283,2295.3
621.448,2306.8
621.612,2318.75
621.777,2311.4
621.941,2337.8
622.106,2337.05
622.27,2336.15
622.435,2343.1
622.599,2330.4
622.764,2297.35
622.928,2289.1
623.093,2294.05
623.257,2281.75
623.422,2268.65
623.586,2260.7
623.75,2279.95
623.915,2265.55
624.079,2263.8
624.244,2258.4
624.408,2278.8
624.572,2262.25
624.737,2269.1
624.901,2264.85
625.065,2260.55
625.23,2281.0
625.394,2275.35
625.558,2285.1
625.723,2283.05
625.887,2288.8
626.051,2305.75
626.215,2324.2
626.38,2370.6
626.544,2462.6
626.708,2662.15
626.872,2949.6
627.037,3342.6
627.201,3553.5
627.365,3450.9
627.529,3331.6
627.693,3158.2
627.858,3064.35
628.022,3060.65
628.186,3172.15
628.35,3421.6
628.514,3529.5
628.678,3458.55
628.843,3233.2
629.007,3121.7
629.171,3052.15
629.335,3007.1
629.499,2935.3
629.663,2844.6
629.827,2782.75
629.991,2786.1
630.155,2760.65
630.319,2728.3
630.483,2727.75
630.647,2659.25
630.812,2578.45
630.976,2498.85
631.14,2442.75
631.304,2369.35
631.468,2353.0
631.632,2302.1
631.796,2308.35
631.959,2284.75
632.123,2266.05
632.287,2263.65
632.451,2266.65
632.615,2274.15
632.779,2243.75
632.943,2243.6
633.107,2243.4
633.271,2235.75
633.435,2254.15
633.599,2244.4
633.763,2233.65
633.926,2219.75
634.09,2227.95
634.254,2229.35
634.418,2231.5
634.582,2224.45
634.746,2221.15
634.909,2223.8
635.073,2221.2
635.237,2230.85
635.401,2211.95
635.564,2210.25
635.728,2211.8
635.892,2215.95
636.056,2218.0
636.219,2223.95
636.383,2224.65
636.547,2197.65
636.711,2206.25
636.874,2215.05
637.038,2213.1
637.202,2209.45
637.365,2208.5
637.529,2210.85
637.693,2200.8
637.856,2214.8
638.02,2212.6
638.184,2204.65
638.347,2230.5
638.511,2203.8
638.674,2197.9
638.838,2208.35
639.002,2210.4
639.165,2212.85
639.329,2211.05
639.492,2201.1
639.656,2198.35
639.819,2200.45
639.983,2200.95
640.146,2205.45
640.31,2201.1
640.473,2201.95
640.637,2202.05
640.8,2195.55
640.964,2203.5
641.127,2194.05
641.291,2213.3
641.454,2192.15
641.618,2202.35
641.781,2197.0
641.944,2204.15
642.108,2190.2
642.271,2200.85
642.435,2201.1
642.598,2210.25
642.761,2211.95
642.925,2198.7
643.088,2217.15
643.251,2200.75
643.415,2206.55
643.578,2223.9
643.741,2204.45
643.905,2207.45
644.068,2208.5
644.231,2204.45
644.394,2207.2
644.558,2204.3
644.721,2202.15
644.884,2205.35
645.047,2213.85
645.211,2213.9
645.374,2196.7
645.537,2210.65
645.7,2209.15
645.863,2220.6
646.027,2206.3
646.19,2206.85
646.353,2201.4
646.516,2197.15
646.679,2212.95
646.842,2210.95
647.005,2212.45
647.169,2206.1
647.332,2205.2
647.495,2208.5
647.658,2210.15
647.821,2199.7
647.984,2203.5
648.147,2200.95
648.31,2214.85
648.473,2203.95
648.636,2213.05
648.799,2232.95
648.962,2219.75
649.125,2223.55
649.288,2247.95
649.451,2253.25
649.614,2276.9
649.777,2259.75
649.94,2266.65
650.103,2260.65
650.266,2277.1
650.429,2238.55
650.592,2243.3
650.755,2226.0
650.918,2223.15
651.08,2217.5
651.243,2225.5
651.406,2206.3
651.569,2208.6
651.732,2197.7
651.895,2213.35
652.058,2201.4
652.22,2185.2
652.383,2202.65
652.546,2191.2
652.709,2191.8
652.872,2184.7
653.034,2190.45
653.197,2196.4
653.36,2193.5
653.523,2171.1
653.685,2186.85
653.848,2202.25
654.011,2183.05
654.173,2169.45
654.336,2178.5
654.499,2183.75
654.662,2161.2
654.824,2168.75
654.987,2160.45
655.149,2155.8
655.312,2151.55
655.475,2167.8
655.637,2155.4
655.8,2166.05
655.963,2147.3
656.125,2170.85
656.288,2155.1
656.45,2146.25
656.613,2141.75
656.775,2139.8
656.938,2152.5
657.1,2153.05
657.263,2139.8
657.425,2135.8
657.588,2138.05
657.75,2139.35
657.913,2144.5
658.075,2140.05
658.238,2132.7
658.4,2120.4
658.563,2115.7
658.725,2122.95
658.888,2116.95
659.05,2113.35
659.212,2123.3
659.375,2106.05
659.537,2117.65
659.7,2112.35
659.862,2110.1
660.024,2111.05
660.187,2109.8
660.349,2090.6
660.511,2105.35
660.674,2106.9
660.836,2089.9
660.998,2090.15
661.079,2091.0