File: spectra/VLFR_08-PLA_bio_Raman_ce1097ca.csv
nm,Intensity
528.626,1864.7
528.795,1867.7
528.963,1864.3
529.132,1866.6
529.3,1867.2
529.469,1867.6
529.637,1867.2
529.806,1868.1
529.974,1866.5
530.143,1866.3
530.311,1867.6
530.48,1869.2
530.648,1866.6
530.816,1866.6
530.985,1866.5
531.153,1868.6
531.322,1873.4
531.49,1875.8
531.658,1898.0
531.827,2228.1
531.995,4409.3
532.164,5296.7
532.332,2440.7
532.5,1876.6
532.669,1869.9
532.837,1868.6
533.006,1869.4
533.174,1870.1
533.342,1870.7
533.511,1882.3
533.679,2016.4
533.847,2325.5
534.016,2610.4
534.184,2691.2
534.352,2645.0
534.521,2613.8
534.689,2611.3
534.857,2591.6
535.025,2591.9
535.194,2583.0
535.362,2550.6
535.53,2539.7
535.699,2529.4
535.867,2476.7
536.035,2448.2
536.203,2447.1
536.372,2453.0
536.54,2464.1
536.708,2466.5
536.876,2433.7
537.044,2426.9
537.213,2406.3
537.381,2417.0
537.549,2434.8
537.717,2438.9
537.885,2456.2
538.054,2434.5
538.222,2434.5
538.39,2424.2
538.558,2390.7
538.726,2397.7
538.894,2407.3
539.063,2406.4
539.231,2415.5
539.399,2397.3
539.567,2419.3
539.735,2403.0
539.903,2383.4
540.071,2398.9
540.239,2403.6
540.408,2435.2
540.576,2463.0
540.744,2469.5
540.912,2489.1
541.08,2484.9
541.248,2462.5
541.416,2462.7
541.584,2454.0
541.752,2441.1
541.92,2430.7
542.088,2432.2
542.256,2441.9
542.424,2448.9
542.592,2467.2
542.76,2466.6
542.928,2462.5
543.096,2484.0
543.264,2535.9
543.432,2579.4
543.6,2607.9
543.768,2608.4
543.936,2614.9
544.104,2575.6
544.272,2547.8
544.44,2521.2
544.608,2492.5
544.776,2507.7
544.944,2488.3
545.112,2486.6
545.28,2475.7
545.448,2473.1
545.616,2501.3
545.784,2495.2
545.951,2494.6
546.119,2525.6
546.287,2506.8
546.455,2503.3
546.623,2501.9
546.791,2505.5
546.959,2538.0
547.127,2537.7
547.294,2536.7
547.462,2551.5
547.63,2529.9
547.798,2547.2
547.966,2531.9
548.134,2533.3
548.301,2548.4
548.469,2564.0
548.637,2562.8
548.805,2553.1
548.972,2568.0
549.14,2552.5
549.308,2532.9
549.476,2558.2
549.644,2552.9
549.811,2549.0
549.979,2544.8
550.147,2593.8
550.315,2565.3
550.482,2564.5
550.65,2590.2
550.818,2589.5
550.985,2582.6
551.153,2592.6
551.321,2614.3
551.488,2572.6
551.656,2590.7
551.824,2619.5
551.991,2627.4
552.159,2629.3
552.327,2630.2
552.494,2604.5
552.662,2618.7
552.83,2611.8
552.997,2617.1
553.165,2662.8
553.333,2635.8
553.5,2618.5
553.668,2630.1
553.835,2645.6
554.003,2657.3
554.171,2644.0
554.338,2639.4
554.506,2633.7
554.673,2634.4
554.841,2641.7
555.008,2617.9
555.176,2622.5
555.343,2623.5
555.511,2605.7
555.679,2616.0
555.846,2597.9
556.014,2631.3
556.181,2607.3
556.349,2608.7
556.516,2635.0
556.684,2609.7
556.851,2629.8
557.018,2647.0
557.186,2654.8
557.353,2663.8
557.521,2722.3
557.688,2782.0
557.856,2914.2
558.023,3066.8
558.191,3103.1
558.358,2900.6
558.525,2779.0
558.693,2694.5
558.86,2693.4
559.028,2691.1
559.195,2685.2
559.362,2694.9
559.53,2701.8
559.697,2670.1
559.864,2680.2
560.032,2698.5
560.199,2691.6
560.366,2674.0
560.534,2666.5
560.701,2702.9
560.868,2688.3
561.036,2690.0
561.203,2645.6
561.37,2662.3
561.538,2667.1
561.705,2680.6
561.872,2674.8
562.039,2706.3
562.207,2741.8
562.374,2693.2
562.541,2679.9
562.708,2673.8
562.876,2713.1
563.043,2729.3
563.21,2773.9
563.377,2795.5
563.545,2817.1
563.712,2763.7
563.879,2729.0
564.046,2713.0
564.213,2704.1
564.38,2721.2
564.548,2708.0
564.715,2747.2
564.882,2744.9
565.049,2803.9
565.216,2769.5
565.383,2761.7
565.551,2735.5
565.718,2762.5
565.885,2815.9
566.052,2855.9
566.219,2854.5
566.386,2819.2
566.553,2761.3
566.72,2709.6
566.887,2702.0
567.054,2711.7
567.221,2681.4
567.388,2682.3
567.555,2691.8
567.722,2720.3
567.889,2716.7
568.057,2715.3
568.224,2706.7
568.391,2705.3
568.558,2721.9
568.725,2708.1
568.892,2736.8
569.058,2740.6
569.225,2726.5
569.392,2738.3
569.559,2727.0
569.726,2714.5
569.893,2755.7
570.06,2756.4
570.227,2755.1
570.394,2744.4
570.561,2728.6
570.728,2745.4
570.895,2739.9
571.062,2770.9
571.229,2787.7
571.395,2829.3
571.562,2871.2
571.729,2829.3
571.896,2812.2
572.063,2788.6
572.23,2756.1
572.397,2781.4
572.563,2753.8
572.73,2762.7
572.897,2737.1
573.064,2745.7
573.231,2732.1
573.397,2750.8
573.564,2766.1
573.731,2762.9
573.898,2769.3
574.064,2758.5
574.231,2745.2
574.398,2770.5
574.565,2787.6
574.731,2763.3
574.898,2744.1
575.065,2735.5
575.232,2731.2
575.398,2724.0
575.565,2711.9
575.732,2760.3
575.898,2788.6
576.065,2794.5
576.232,2812.2
576.398,2901.2
576.565,2980.3
576.732,2985.2
576.898,2991.8
577.065,2930.8
577.232,2837.1
577.398,2805.9
577.565,2740.0
577.731,2706.7
577.898,2702.8
578.065,2695.2
578.231,2691.8
578.398,2661.3
578.564,2676.1
578.731,2686.0
578.897,2679.9
579.064,2689.5
579.23,2705.6
579.397,2736.3
579.563,2781.5
579.73,2756.9
579.896,2723.7
580.063,2713.6
580.229,2682.1
580.396,2689.0
580.562,2680.1
580.729,2691.2
580.895,2691.7
581.062,2687.6
581.228,2701.7
581.395,2698.1
581.561,2725.0
581.728,2792.8
581.894,2857.2
582.06,2822.3
582.227,2762.7
582.393,2702.7
582.56,2682.2
582.726,2699.2
582.892,2698.2
583.059,2691.4
583.225,2729.9
583.391,2669.4
583.558,2705.1
583.724,2702.8
583.89,2706.4
584.057,2708.9
584.223,2716.3
584.389,2687.9
584.556,2701.6
584.722,2679.6
584.888,2661.5
585.054,2629.4
585.221,2663.2
585.387,2658.5
585.553,2671.2
585.719,2684.7
585.886,2662.8
586.052,2672.9
586.218,2656.8
586.384,2685.0
586.55,2712.2
586.717,2726.9
586.883,2756.1
587.049,2819.6
587.215,2834.4
587.381,2864.5
587.548,2858.2
587.714,2824.2
587.88,2781.0
588.046,2746.7
588.212,2698.5
588.378,2670.8
588.544,2670.7
588.71,2659.0
588.876,2650.9
589.043,2647.5
589.209,2657.0
589.375,2657.8
589.541,2639.8
589.707,2634.2
589.873,2648.4
590.039,2637.9
590.205,2662.2
590.371,2665.1
590.537,2640.8
590.703,2635.7
590.869,2654.8
591.035,2652.6
591.201,2660.3
591.367,2638.9
591.533,2630.9
591.699,2651.9
591.865,2658.1
592.031,2652.6
592.197,2652.2
592.363,2655.4
592.529,2645.5
592.694,2650.6
592.86,2654.7
593.026,2651.1
593.192,2642.9
593.358,2638.2
593.524,2645.1
593.69,2666.5
593.856,2629.8
594.021,2648.3
594.187,2644.9
594.353,2648.9
594.519,2628.2
594.685,2639.0
594.851,2640.9
595.016,2645.9
595.182,2648.9
595.348,2630.7
595.514,2656.8
595.68,2649.5
595.845,2652.9
596.011,2659.7
596.177,2637.4
596.342,2672.8
596.508,2675.2
596.674,2645.8
596.84,2658.9
597.005,2645.0
597.171,2684.1
597.337,2667.2
597.502,2643.3
597.668,2643.1
597.834,2666.6
597.999,2682.9
598.165,2654.4
598.331,2650.2
598.496,2651.9
598.662,2667.1
598.828,2653.5
598.993,2660.2
599.159,2660.3
599.324,2673.5
599.49,2671.3
599.656,2672.3
599.821,2671.1
599.987,2664.6
600.152,2670.3
600.318,2671.4
600.483,2674.1
600.649,2674.0
600.814,2653.3
600.98,2660.4
601.145,2666.6
601.311,2669.6
601.476,2677.8
601.642,2676.1
601.807,2675.7
601.973,2638.3
602.138,2680.6
602.304,2651.4
602.469,2639.2
602.635,2667.4
602.8,2663.0
602.965,2692.2
603.131,2665.5
603.296,2664.8
603.462,2668.5
603.627,2677.7
603.792,2640.5
603.958,2683.5
604.123,2676.1
604.288,2659.5
604.454,2654.9
604.619,2638.8
604.784,2680.0
604.95,2676.1
605.115,2663.7
605.28,2677.0
605.446,2649.1
605.611,2675.7
605.776,2661.5
605.941,2677.0
606.107,2633.3
606.272,2666.6
606.437,2673.0
606.602,2657.4
606.767,2663.9
606.933,2669.0
607.098,2654.7
607.263,2681.0
607.428,2678.9
607.593,2669.4
607.759,2650.6
607.924,2679.9
608.089,2654.9
608.254,2646.8
608.419,2670.7
608.584,2635.2
608.749,2665.2
608.915,2662.8
609.08,2649.3
609.245,2659.8
609.41,2657.6
609.575,2657.4
609.74,2651.5
609.905,2668.5
610.07,2671.3
610.235,2646.0
610.4,2640.5
610.565,2644.2
610.73,2655.1
610.895,2662.8
611.06,2663.3
611.225,2650.3
611.39,2651.5
611.555,2653.8
611.72,2677.6
611.885,2650.3
612.05,2637.6
612.215,2640.8
612.38,2656.9
612.545,2632.7
612.71,2634.9
612.875,2658.6
613.04,2610.9
613.204,2672.4
613.369,2640.0
613.534,2640.7
613.699,2645.9
613.864,2642.8
614.029,2624.0
614.194,2628.1
614.358,2633.2
614.523,2636.2
614.688,2625.6
614.853,2648.3
615.018,2622.6
615.182,2625.1
615.347,2634.9
615.512,2639.0
615.677,2614.9
615.841,2614.8
616.006,2642.6
616.171,2613.0
616.336,2637.3
616.5,2616.4
616.665,2612.6
616.83,2628.4
616.994,2609.4
617.159,2640.6
617.324,2612.1
617.489,2604.8
617.653,2618.6
617.818,2626.2
617.982,2628.5
618.147,2610.9
618.312,2611.5
618.476,2602.8
618.641,2600.1
618.805,2591.5
618.97,2605.9
619.135,2613.7
619.299,2602.7
619.464,2619.3
619.628,2604.3
619.793,2619.0
619.957,2593.1
620.122,2601.0
620.286,2620.8
620.451,2583.2
620.615,2597.1
620.78,2576.3
620.944,2614.5
621.109,2591.6
621.273,2574.5
621.438,2595.0
621.602,2593.6
621.767,2581.7
621.931,2603.3
622.095,2601.9
622.26,2577.3
622.424,2614.1
622.589,2612.1
622.753,2642.7
622.917,2602.6
623.082,2602.9
623.246,2619.3
623.41,2594.0
623.575,2588.5
623.739,2595.7
623.903,2608.8
624.068,2585.7
624.232,2583.5
624.396,2592.0
624.561,2582.6
624.725,2565.8
624.889,2581.0
625.053,2582.3
625.218,2595.4
625.382,2564.7
625.546,2537.4
625.71,2543.3
625.875,2544.1
626.039,2566.4
626.203,2551.3
626.367,2572.2
626.531,2567.5
626.695,2552.0
626.86,2606.1
627.024,2573.8
627.188,2603.6
627.352,2599.9
627.516,2626.9
627.68,2627.6
627.844,2627.6
628.008,2677.0
628.172,2752.1
628.337,2792.2
628.501,2835.5
628.665,2855.8
628.829,2806.9
628.993,2772.0
629.157,2787.5
629.321,2755.8
629.485,2797.4
629.649,2779.3
629.813,2800.0
629.977,2790.0
630.141,2794.8
630.305,2850.9
630.469,2937.3
630.633,3133.1
630.797,3423.5
630.96,3799.2
631.124,3916.2
631.288,3811.5
631.452,3569.2
631.616,3263.0
631.78,3122.7
631.944,3039.2
632.108,2934.1
632.272,2897.7
632.435,2840.1
632.599,2852.7
632.763,2859.9
632.927,2926.7
633.091,3089.4
633.254,3110.0
633.418,3083.7
633.582,3028.8
633.746,2988.9
633.91,2875.8
634.073,2776.0
634.237,2712.8
634.401,2643.1
634.564,2587.5
634.728,2571.9
634.892,2514.1
635.056,2536.0
635.219,2548.9
635.383,2491.0
635.547,2494.3
635.71,2491.9
635.874,2470.9
636.038,2517.6
636.201,2483.3
636.365,2472.8
636.528,2477.4
636.692,2491.0
636.856,2469.7
637.019,2467.1
637.183,2496.2
637.346,2467.8
637.51,2471.5
637.673,2462.0
637.837,2438.1
638.0,2455.8
638.164,2460.5
638.327,2468.5
638.491,2437.0
638.654,2441.7
638.818,2447.5
638.981,2447.1
639.145,2431.1
639.308,2438.9
639.472,2441.7
639.635,2453.7
639.799,2452.1
639.962,2436.0
640.125,2430.4
640.289,2442.9
640.452,2428.3
640.616,2436.0
640.779,2412.1
640.942,2411.5
641.106,2433.6
641.269,2419.9
641.432,2418.4
641.596,2423.0
641.759,2433.2
641.922,2436.2
642.085,2406.6
642.249,2426.4
642.412,2449.8
642.575,2393.2
642.738,2426.1
642.902,2416.4
643.065,2424.0
643.228,2401.5
643.391,2409.7
643.555,2389.7
643.718,2418.2
643.881,2402.7
644.044,2394.2
644.207,2420.1
644.37,2406.9
644.534,2392.5
644.697,2401.2
644.86,2390.5
645.023,2391.8
645.186,2388.3
645.349,2407.1
645.512,2376.6
645.675,2399.0
645.838,2378.5
646.001,2381.3
646.164,2390.7
646.327,2392.8
646.49,2368.4
646.653,2395.9
646.816,2374.4
646.979,2371.9
647.142,2366.5
647.305,2351.6
647.468,2357.9
647.631,2353.1
647.794,2356.4
647.957,2364.0
648.12,2363.5
648.283,2354.3
648.446,2340.4
648.609,2343.3
648.772,2365.7
648.935,2329.7
649.098,2345.3
649.26,2348.3
649.423,2352.9
649.586,2339.9
649.749,2319.7
649.912,2334.4
650.075,2347.4
650.237,2343.5
650.4,2335.9
650.563,2334.9
650.726,2307.6
650.888,2325.1
651.051,2328.0
651.214,2323.1
651.377,2314.7
651.539,2309.7
651.702,2331.9
651.865,2312.0
652.027,2320.4
652.19,2304.5
652.353,2315.8
652.515,2294.0
652.678,2306.5
652.841,2295.1
653.003,2304.8
653.166,2305.4
653.329,2287.4
653.491,2284.0
653.654,2297.9
653.816,2287.1
653.979,2284.3
654.142,2297.6
654.304,2290.7
654.467,2273.0
654.629,2267.8
654.792,2281.7
654.954,2286.0
655.117,2285.0
655.279,2280.2
655.442,2289.8
655.604,2273.0
655.767,2265.1
655.929,2270.0
656.091,2266.3
656.254,2274.7
656.416,2267.7
656.579,2267.2
656.741,2270.1
656.904,2263.1
657.066,2258.5
657.228,2252.7
657.391,2256.2
657.553,2234.3
657.715,2253.4
657.878,2252.2
658.04,2248.2
658.202,2234.1
658.365,2243.7
658.527,2243.2
658.689,2240.5
658.851,2234.2
659.014,2227.1
659.176,2219.3
659.338,2238.9
659.5,2231.8
659.663,2211.6
659.825,2209.7
659.987,2217.9
660.149,2208.5
660.311,2227.0
660.474,2204.2
660.636,2224.2
660.798,2215.0
660.96,2218.7
661.041,2218.6