File: spectra/VLFR_01-LDPE_nobio_Raman_8f1ab1c6.csv
nm,Intensity
526.547,833.6
526.683,832.6
526.82,831.6
526.957,833.5
527.094,832.0
527.23,832.2
527.367,831.7
527.504,832.0
527.641,832.3
527.777,832.2
527.914,831.1
528.051,832.0
528.188,831.9
528.324,832.2
528.461,832.9
528.598,832.1
528.734,832.8
528.871,833.0
529.008,832.3
529.144,833.0
529.281,832.3
529.417,832.0
529.554,832.6
529.691,833.2
529.827,832.1
529.964,832.1
530.1,832.4
530.237,832.2
530.373,832.2
530.51,831.3
530.647,832.4
530.783,831.2
530.92,831.2
531.056,832.3
531.193,832.4
531.329,833.7
531.466,831.6
531.602,831.2
531.738,833.9
531.875,832.0
532.011,836.7
532.148,852.8
532.284,851.3
532.421,836.1
532.557,833.3
532.693,832.7
532.83,833.7
532.966,831.8
533.103,833.4
533.239,832.8
533.375,832.6
533.512,832.4
533.648,832.3
533.784,841.0
533.921,869.3
534.057,896.4
534.193,906.8
534.33,906.0
534.466,901.6
534.602,899.9
534.738,902.0
534.875,895.9
535.011,892.3
535.147,893.7
535.283,891.0
535.42,889.1
535.556,883.4
535.692,883.8
535.828,882.9
535.964,882.9
536.101,881.3
536.237,878.1
536.373,879.1
536.509,877.0
536.645,876.8
536.781,876.3
536.917,876.4
537.054,874.7
537.19,873.2
537.326,875.6
537.462,873.1
537.598,874.6
537.734,875.6
537.87,874.7
538.006,873.8
538.142,872.2
538.278,874.8
538.414,873.8
538.55,872.3
538.686,870.9
538.822,872.1
538.958,868.1
539.094,870.9
539.23,868.2
539.366,868.3
539.502,869.4
539.638,866.1
539.774,866.8
539.91,868.8
540.046,867.3
540.182,865.2
540.318,865.6
540.454,863.4
540.59,862.6
540.726,866.1
540.862,866.0
540.997,865.4
541.133,864.4
541.269,867.1
541.405,861.3
541.541,864.0
541.677,864.0
541.812,863.0
541.948,862.6
542.084,863.5
542.22,864.6
542.356,862.3
542.492,864.9
542.627,865.1
542.763,864.0
542.899,860.9
543.035,862.5
543.17,862.5
543.306,860.4
543.442,864.0
543.578,863.1
543.713,864.1
543.849,865.6
543.985,860.5
544.12,862.3
544.256,860.7
544.392,862.2
544.527,859.7
544.663,860.6
544.799,861.4
544.934,860.0
545.07,861.2
545.206,859.4
545.341,860.7
545.477,859.6
545.612,858.3
545.748,859.4
545.884,861.8
546.019,863.5
546.155,864.3
546.29,860.2
546.426,858.9
546.562,861.4
546.697,861.2
546.833,860.6
546.968,859.2
547.104,860.6
547.239,860.5
547.375,858.4
547.51,860.0
547.646,859.5
547.781,857.7
547.917,860.6
548.052,857.8
548.188,857.2
548.323,860.1
548.458,859.4
548.594,861.1
548.729,858.5
548.865,857.6
549.0,860.2
549.136,858.4
549.271,857.9
549.406,859.2
549.542,860.1
549.677,860.3
549.812,859.7
549.948,858.6
550.083,858.0
550.219,858.3
550.354,859.0
550.489,858.5
550.625,856.9
550.76,858.6
550.895,857.2
551.03,857.7
551.166,855.9
551.301,858.0
551.436,859.3
551.572,858.2
551.707,856.7
551.842,856.9
551.977,857.9
552.113,859.7
552.248,859.3
552.383,858.0
552.518,858.5
552.654,857.4
552.789,858.9
552.924,858.0
553.059,858.0
553.194,859.4
553.329,858.7
553.465,862.0
553.6,858.9
553.735,859.2
553.87,861.6
554.005,865.4
554.14,862.8
554.276,863.9
554.411,858.8
554.546,862.5
554.681,861.3
554.816,862.0
554.951,862.9
555.086,859.7
555.221,861.1
555.356,863.0
555.491,864.2
555.626,860.8
555.761,863.9
555.896,861.6
556.031,862.6
556.167,863.8
556.302,866.4
556.437,860.7
556.572,866.9
556.707,865.2
556.842,865.4
556.977,866.2
557.112,865.6
557.246,866.5
557.381,866.4
557.516,868.5
557.651,865.6
557.786,867.3
557.921,870.9
558.056,870.6
558.191,870.6
558.326,868.3
558.461,867.9
558.596,869.7
558.731,871.6
558.866,871.2
559.0,868.1
559.135,867.7
559.27,867.3
559.405,869.2
559.54,868.4
559.675,868.1
559.81,868.4
559.944,874.0
560.079,868.6
560.214,869.8
560.349,870.9
560.484,868.0
560.618,869.9
560.753,869.0
560.888,873.3
561.023,869.5
561.158,870.8
561.292,871.4
561.427,868.5
561.562,871.8
561.697,872.5
561.831,873.5
561.966,871.4
562.101,873.5
562.235,872.1
562.37,871.6
562.505,874.8
562.64,873.4
562.774,873.8
562.909,876.7
563.044,880.1
563.178,876.7
563.313,879.8
563.448,877.9
563.582,886.0
563.717,885.9
563.852,897.7
563.986,917.9
564.121,928.9
564.255,909.2
564.39,894.2
564.525,893.6
564.659,893.4
564.794,890.3
564.928,893.3
565.063,887.1
565.198,886.3
565.332,887.6
565.467,885.7
565.601,892.0
565.736,890.3
565.87,893.7
566.005,904.2
566.139,918.9
566.274,920.4
566.408,901.0
566.543,892.1
566.677,892.2
566.812,888.1
566.946,888.9
567.081,890.2
567.215,886.8
567.35,888.1
567.484,893.8
567.619,894.5
567.753,890.7
567.887,886.3
568.022,890.7
568.156,890.0
568.291,887.1
568.425,888.6
568.56,889.0
568.694,888.8
568.828,892.3
568.963,894.7
569.097,891.6
569.231,890.2
569.366,896.4
569.5,895.1
569.635,893.3
569.769,893.2
569.903,894.6
570.038,895.0
570.172,892.9
570.306,896.4
570.441,896.2
570.575,897.1
570.709,901.0
570.843,902.3
570.978,903.8
571.112,907.0
571.246,907.4
571.381,923.3
571.515,972.6
571.649,984.4
571.783,943.5
571.918,921.6
572.052,921.9
572.186,915.0
572.32,915.4
572.455,907.8
572.589,915.8
572.723,907.3
572.857,907.5
572.991,905.3
573.126,906.6
573.26,906.4
573.394,909.8
573.528,909.5
573.662,912.1
573.796,912.1
573.931,915.6
574.065,919.3
574.199,915.3
574.333,915.8
574.467,914.3
574.601,913.2
574.735,917.9
574.869,912.7
575.004,914.6
575.138,915.7
575.272,919.1
575.406,926.2
575.54,938.2
575.674,942.2
575.808,940.6
575.942,945.2
576.076,963.8
576.21,994.5
576.344,1012.2
576.478,999.1
576.612,986.8
576.746,978.1
576.88,979.0
577.014,984.8
577.148,975.1
577.282,976.2
577.416,961.4
577.55,957.5
577.684,953.7
577.818,952.0
577.952,951.1
578.086,950.4
578.22,948.9
578.354,952.8
578.488,954.4
578.622,955.3
578.756,954.2
578.89,954.8
579.024,959.7
579.158,957.8
579.292,965.1
579.426,961.0
579.559,961.9
579.693,966.5
579.827,968.7
579.961,970.3
580.095,971.8
580.229,972.5
580.363,977.3
580.497,974.8
580.63,978.3
580.764,978.9
580.898,983.7
581.032,986.5
581.166,987.3
581.3,990.9
581.433,993.1
581.567,989.3
581.701,989.4
581.835,995.8
581.969,998.3
582.102,1001.5
582.236,1000.9
582.37,1002.7
582.504,1008.7
582.637,1010.5
582.771,1012.5
582.905,1017.8
583.039,1016.3
583.172,1021.0
583.306,1026.3
583.44,1022.2
583.574,1028.9
583.707,1028.5
583.841,1028.5
583.975,1031.3
584.108,1038.0
584.242,1039.4
584.376,1045.0
584.51,1044.5
584.643,1046.7
584.777,1054.5
584.911,1049.4
585.044,1052.9
585.178,1055.7
585.312,1063.2
585.445,1070.6
585.579,1070.8
585.712,1073.1
585.846,1074.5
585.98,1084.6
586.113,1085.5
586.247,1095.2
586.381,1094.7
586.514,1108.3
586.648,1104.4
586.781,1106.1
586.915,1112.8
587.048,1111.9
587.182,1113.0
587.316,1130.1
587.449,1133.2
587.583,1139.4
587.716,1137.2
587.85,1144.6
587.983,1148.7
588.117,1163.4
588.25,1163.7
588.384,1167.4
588.517,1171.1
588.651,1175.6
588.784,1174.7
588.918,1183.4
589.051,1181.5
589.185,1196.6
589.318,1194.3
589.452,1206.7
589.585,1206.2
589.719,1217.0
589.852,1211.6
589.986,1216.9
590.119,1224.5
590.253,1233.7
590.386,1235.0
590.519,1245.6
590.653,1252.6
590.786,1247.7
590.92,1256.1
591.053,1263.2
591.187,1272.8
591.32,1274.4
591.453,1273.2
591.587,1269.1
591.72,1284.0
591.853,1290.9
591.987,1286.1
592.12,1297.0
592.254,1302.2
592.387,1308.5
592.52,1302.8
592.654,1311.1
592.787,1313.9
592.92,1315.5
593.054,1307.4
593.187,1322.2
593.32,1323.9
593.454,1323.6
593.587,1337.9
593.72,1339.8
593.853,1349.9
593.987,1345.9
594.12,1345.7
594.253,1363.5
594.387,1368.7
594.52,1373.6
594.653,1370.1
594.786,1384.1
594.92,1394.9
595.053,1396.4
595.186,1398.6
595.319,1405.4
595.453,1412.2
595.586,1416.2
595.719,1436.0
595.852,1441.5
595.985,1442.4
596.119,1443.9
596.252,1445.4
596.385,1454.7
596.518,1471.6
596.651,1476.4
596.785,1473.4
596.918,1490.6
597.051,1503.0
597.184,1503.1
597.317,1505.4
597.45,1522.9
597.584,1535.4
597.717,1534.6
597.85,1544.1
597.983,1553.8
598.116,1559.4
598.249,1572.2
598.382,1577.4
598.516,1589.0
598.649,1602.8
598.782,1604.1
598.915,1601.2
599.048,1617.4
599.181,1608.3
599.314,1622.2
599.447,1635.8
599.58,1641.5
599.713,1634.7
599.846,1641.1
599.979,1647.2
600.113,1653.8
600.246,1645.3
600.379,1654.2
600.512,1660.1
600.645,1646.5
600.778,1655.3
600.911,1660.3
601.044,1651.8
601.177,1653.4
601.31,1652.4
601.443,1654.1
601.576,1651.7
601.709,1650.3
601.842,1637.9
601.975,1645.9
602.108,1637.8
602.241,1643.9
602.374,1639.7
602.507,1629.7
602.64,1617.1
602.773,1623.5
602.905,1625.5
603.038,1608.2
603.171,1620.7
603.304,1611.5
603.437,1602.0
603.57,1593.7
603.703,1581.5
603.836,1579.0
603.969,1582.7
604.102,1572.4
604.235,1567.5
604.368,1547.0
604.501,1544.9
604.633,1527.6
604.766,1526.8
604.899,1516.2
605.032,1509.7
605.165,1488.8
605.298,1486.2
605.431,1471.6
605.563,1465.2
605.696,1451.6
605.829,1456.5
605.962,1438.2
606.095,1432.7
606.228,1423.1
606.36,1410.0
606.493,1414.2
606.626,1412.5
606.759,1403.9
606.892,1396.8
607.025,1398.9
607.157,1385.8
607.29,1371.7
607.423,1375.8
607.556,1366.7
607.688,1358.8
607.821,1369.2
607.954,1353.3
608.087,1351.7
608.219,1340.4
608.352,1343.4
608.485,1337.0
608.618,1333.5
608.75,1312.7
608.883,1316.7
609.016,1316.3
609.149,1311.6
609.281,1312.3
609.414,1299.2
609.547,1298.8
609.68,1289.7
609.812,1287.3
609.945,1288.1
610.078,1284.8
610.21,1281.3
610.343,1275.9
610.476,1270.4
610.608,1270.6
610.741,1268.8
610.874,1267.8
611.006,1266.1
611.139,1262.2
611.272,1259.3
611.404,1250.5
611.537,1254.6
611.67,1246.0
611.802,1252.0
611.935,1249.9
612.067,1236.5
612.2,1246.0
612.333,1242.3
612.465,1237.0
612.598,1238.5
612.731,1240.5
612.863,1233.8
612.996,1235.3
613.128,1233.2
613.261,1228.1
613.393,1236.3
613.526,1223.9
613.659,1227.7
613.791,1219.0
613.924,1220.2
614.056,1215.2
614.189,1212.3
614.321,1211.5
614.454,1218.1
614.586,1215.6
614.719,1210.1
614.852,1199.8
614.984,1205.9
615.117,1198.3
615.249,1189.8
615.382,1193.6
615.514,1196.0
615.647,1191.7
615.779,1186.6
615.912,1184.9
616.044,1183.6
616.177,1179.1
616.309,1180.5
616.442,1177.1
616.574,1174.3
616.707,1169.7
616.839,1174.9
616.971,1176.8
617.104,1165.5
617.236,1173.4
617.369,1171.5
617.501,1171.8
617.634,1159.2
617.766,1162.5
617.899,1169.5
618.031,1156.3
618.163,1158.0
618.296,1156.7
618.428,1155.4
618.561,1155.6
618.693,1146.1
618.826,1153.2
618.958,1145.1
619.09,1154.4
619.223,1154.2
619.355,1141.0
619.487,1146.0
619.62,1144.5
619.752,1147.3
619.885,1137.9
620.017,1140.5
620.149,1139.8
620.282,1134.1
620.414,1134.2
620.546,1139.6
620.679,1135.4
620.811,1132.4
620.943,1133.4
621.076,1131.4
621.208,1134.9
621.34,1134.4
621.473,1133.0
621.605,1132.7
621.737,1145.6
621.87,1150.1
622.002,1146.8
622.134,1149.6
622.267,1156.2
622.399,1158.6
622.531,1152.9
622.663,1141.1
622.796,1136.7
622.928,1135.4
623.06,1125.0
623.193,1125.0
623.325,1117.1
623.457,1118.3
623.589,1121.9
623.722,1118.2
623.854,1113.7
623.986,1115.2
624.118,1112.9
624.251,1108.3
624.383,1107.7
624.515,1109.9
624.647,1107.0
624.78,1108.0
624.912,1105.1
625.044,1107.1
625.176,1102.5
625.308,1110.1
625.441,1109.7
625.573,1115.4
625.705,1107.9
625.837,1110.7
625.969,1111.3
626.102,1120.5
626.234,1122.2
626.366,1128.6
626.498,1145.6
626.63,1175.1
626.762,1232.2
626.895,1324.5
627.027,1478.8
627.159,1596.1
627.291,1647.6
627.423,1599.9
627.555,1518.0
627.687,1471.8
627.82,1424.5
627.952,1400.5
628.084,1392.7
628.216,1415.0
628.348,1474.1
628.48,1610.4
628.612,1697.0
628.744,1575.9
628.877,1461.2
629.009,1416.2
629.141,1396.8
629.273,1390.9
629.405,1360.9
629.537,1344.3
629.669,1323.0
629.801,1302.3
629.933,1290.0
630.065,1267.8
630.197,1269.3
630.33,1269.8
630.462,1262.8
630.594,1260.1
630.726,1231.4
630.858,1220.1
630.99,1195.4
631.122,1154.2
631.254,1139.0
631.386,1117.5
631.518,1117.6
631.65,1116.1
631.782,1105.7
631.914,1106.5
632.046,1099.0
632.178,1101.4
632.31,1093.0
632.442,1093.5
632.574,1083.7
632.706,1085.0
632.838,1086.9
632.97,1083.9
633.102,1083.5
633.234,1085.8
633.366,1088.2
633.498,1078.9
633.63,1084.4
633.762,1077.1
633.894,1086.0
634.026,1082.0
634.158,1082.2
634.29,1080.2
634.422,1085.2
634.554,1080.3
634.686,1083.6
634.818,1084.1
634.95,1086.5
635.082,1085.0
635.214,1082.1
635.346,1088.8
635.477,1086.6
635.609,1086.7
635.741,1088.4
635.873,1087.3
636.005,1087.0
636.137,1091.9
636.269,1088.3
636.401,1087.9
636.533,1088.0
636.665,1097.3
636.797,1086.2
636.929,1095.0
637.06,1098.4
637.192,1088.4
637.324,1096.8
637.456,1095.1
637.588,1102.3
637.72,1094.1
637.852,1099.3
637.984,1103.7
638.115,1103.4
638.247,1098.6
638.379,1100.5
638.511,1103.2
638.643,1108.6
638.775,1101.5
638.907,1109.0
639.039,1105.0
639.17,1112.2
639.302,1110.2
639.434,1108.0
639.566,1110.9
639.698,1115.5
639.83,1122.1
639.961,1119.5
640.093,1117.6
640.225,1123.3
640.357,1123.2
640.489,1120.6
640.62,1129.2
640.752,1129.1
640.884,1131.8
641.016,1134.5
641.148,1137.4
641.279,1131.1
641.411,1134.6
641.543,1135.0
641.675,1137.4
641.807,1140.6
641.938,1138.8
642.07,1150.9
642.202,1144.9
642.334,1146.2
642.466,1144.9
642.597,1149.3
642.729,1150.9
642.861,1153.9
642.993,1146.5
643.124,1152.7
643.256,1156.9
643.388,1150.4
643.52,1157.0
643.651,1153.5
643.783,1154.3
643.915,1159.2
644.047,1153.5
644.178,1154.7
644.31,1150.8
644.442,1159.8
644.574,1161.8
644.705,1160.2
644.837,1163.9
644.969,1161.9
645.1,1165.6
645.232,1164.3
645.364,1161.7
645.496,1173.5
645.627,1166.7
645.759,1166.4
645.891,1180.3
646.022,1175.9
646.154,1170.4
646.286,1173.0
646.417,1175.0
646.549,1172.1
646.681,1178.0
646.812,1178.0
646.944,1180.1
647.076,1179.4
647.207,1182.2
647.339,1181.6
647.471,1182.2
647.602,1183.2
647.734,1188.6
647.866,1194.2
647.997,1195.1
648.129,1183.4
648.261,1183.9
648.392,1184.3
648.524,1185.0
648.656,1198.7
648.787,1187.6
648.919,1190.4
649.051,1199.1
649.182,1195.8
649.314,1196.2
649.446,1195.5
649.577,1197.6
649.709,1200.6
649.84,1194.2
649.972,1201.5
650.104,1203.4
650.235,1201.7
650.367,1197.8
650.498,1199.2
650.63,1209.2
650.762,1202.7
650.893,1204.4
651.025,1208.8
651.157,1208.0
651.288,1205.9
651.42,1216.7
651.551,1213.0
651.683,1216.6
651.814,1225.1
651.946,1207.8
652.078,1214.7
652.209,1225.0
652.341,1220.2
652.472,1226.0
652.604,1225.9
652.736,1223.7
652.867,1220.7
652.999,1226.2
653.13,1235.8
653.262,1228.9
653.393,1229.0
653.525,1237.5
653.656,1233.6
653.788,1231.7
653.92,1236.3
654.051,1233.2
654.183,1231.6
654.314,1229.3
654.446,1233.9
654.577,1233.3
654.709,1232.0
654.84,1233.9
654.972,1229.5
655.103,1229.2
655.235,1231.1
655.366,1235.9
655.498,1231.4
655.63,1234.0
655.761,1227.1
655.893,1226.9
656.024,1221.4
656.156,1229.2
656.287,1224.7
656.419,1218.5
656.55,1225.3
656.682,1217.2
656.813,1226.4
656.945,1218.1
657.076,1219.1
657.208,1212.9
657.339,1207.0
657.471,1212.9
657.602,1219.4
657.734,1210.2
657.865,1202.8
657.997,1214.3
658.128,1203.7
658.26,1198.2
658.391,1199.4
658.522,1195.7
658.654,1197.6
658.785,1194.3
658.917,1185.1
659.048,1186.2
659.18,1190.9
659.311,1176.3
659.443,1174.5
659.574,1177.1
659.706,1176.6
659.837,1170.5
659.969,1166.8
660.1,1169.1
660.232,1162.4
660.363,1160.5
660.494,1154.5
660.626,1152.9
660.757,1149.6
660.889,1145.4
661.02,1142.9
661.152,1135.2
661.283,1135.7
661.415,1137.3
661.546,1123.9
661.677,1123.0
661.809,1129.4
661.94,1122.9
662.072,1115.2
662.203,1114.2
662.335,1108.9
662.466,1111.7
662.597,1105.8
662.729,1102.5
662.86,1107.3
662.992,1102.5
663.123,1100.1