File: spectra/VLFR_06-PET_nobio_Raman_38feb096.csv
nm,Intensity
528.65,1841.17
528.819,1842.8
528.987,1841.7
529.155,1840.83
529.324,1840.97
529.492,1841.67
529.66,1842.67
529.829,1841.67
529.997,1842.37
530.165,1841.63
530.334,1841.33
530.502,1842.77
530.67,1841.63
530.839,1842.63
531.007,1842.5
531.175,1844.27
531.344,1846.07
531.512,1848.8
531.68,1869.2
531.848,2246.1
532.017,3457.5
532.185,3189.37
532.353,1954.9
532.521,1845.2
532.69,1845.0
532.858,1845.7
533.026,1847.9
533.194,1853.1
533.363,1873.63
533.531,2052.2
533.699,3154.73
533.867,5291.3
534.036,6211.2
534.204,6101.1
534.372,5622.93
534.54,5232.6
534.708,5019.47
534.877,4616.23
535.045,4330.8
535.213,4029.07
535.381,3734.17
535.549,3483.2
535.717,3240.17
535.886,3035.73
536.054,2879.43
536.222,2790.33
536.39,2695.0
536.558,2647.63
536.726,2616.5
536.894,2557.77
537.062,2533.1
537.231,2525.43
537.399,2520.2
537.567,2511.73
537.735,2489.7
537.903,2492.3
538.071,2505.0
538.239,2512.13
538.407,2500.1
538.575,2520.17
538.743,2505.03
538.911,2489.3
539.079,2510.3
539.247,2527.6
539.415,2575.8
539.583,2612.43
539.751,2614.97
539.919,2624.67
540.087,2593.17
540.255,2535.33
540.423,2484.4
540.591,2435.33
540.759,2418.73
540.927,2396.13
541.095,2397.33
541.263,2391.4
541.431,2370.23
541.599,2364.0
541.767,2370.53
541.935,2375.93
542.103,2388.07
542.271,2387.17
542.439,2386.3
542.607,2359.23
542.775,2386.47
542.943,2380.33
543.111,2377.27
543.279,2378.2
543.446,2370.27
543.614,2386.73
543.782,2415.03
543.95,2419.53
544.118,2392.4
544.286,2402.8
544.454,2384.7
544.622,2381.77
544.789,2412.13
544.957,2395.4
545.125,2410.47
545.293,2397.47
545.461,2410.17
545.629,2399.57
545.796,2405.03
545.964,2397.67
546.132,2396.43
546.3,2406.23
546.468,2403.4
546.635,2409.47
546.803,2407.6
546.971,2414.13
547.139,2412.43
547.306,2402.17
547.474,2424.57
547.642,2402.43
547.81,2424.23
547.977,2434.33
548.145,2402.17
548.313,2416.2
548.481,2416.77
548.648,2421.3
548.816,2421.7
548.984,2417.87
549.151,2418.9
549.319,2412.5
549.487,2402.03
549.655,2401.67
549.822,2410.93
549.99,2409.63
550.158,2420.83
550.325,2518.33
550.493,2862.17
550.66,3181.83
550.828,2778.27
550.996,2440.83
551.163,2446.13
551.331,2443.3
551.499,2432.4
551.666,2434.57
551.834,2441.2
552.001,2453.23
552.169,2453.37
552.337,2441.67
552.504,2488.1
552.672,2643.57
552.839,2721.0
553.007,2611.87
553.174,2508.6
553.342,2456.93
553.509,2446.23
553.677,2458.03
553.844,2468.53
554.012,2466.27
554.179,2459.2
554.347,2450.5
554.514,2464.17
554.682,2459.23
554.849,2458.13
555.017,2500.73
555.184,2532.77
555.352,2609.43
555.519,2756.93
555.687,2817.67
555.854,2754.63
556.022,2799.47
556.189,2794.07
556.357,2812.07
556.524,2840.63
556.691,2852.97
556.859,2875.73
557.026,2923.8
557.194,3176.37
557.361,3459.77
557.528,3627.17
557.696,3455.0
557.863,3136.03
558.031,2952.43
558.198,2938.3
558.365,2945.3
558.533,2903.9
558.7,2864.2
558.867,2776.97
559.035,2692.63
559.202,2624.93
559.369,2584.73
559.537,2567.33
559.704,2548.0
559.871,2549.83
560.038,2553.23
560.206,2544.8
560.373,2545.07
560.54,2542.73
560.708,2559.67
560.875,2574.9
561.042,2571.23
561.209,2587.7
561.377,2602.23
561.544,2632.33
561.711,2622.23
561.878,2634.93
562.045,2689.37
562.213,2718.67
562.38,2686.2
562.547,2724.3
562.714,2733.37
562.881,2752.17
563.049,2759.63
563.216,2758.0
563.383,2725.0
563.55,2708.83
563.717,2683.97
563.884,2676.23
564.052,2686.23
564.219,2676.07
564.386,2721.7
564.553,2777.27
564.72,2844.0
564.887,2926.47
565.054,3038.33
565.221,3137.13
565.388,3277.0
565.556,3368.63
565.723,3404.7
565.89,3416.43
566.057,3273.13
566.224,3073.13
566.391,2934.67
566.558,2831.5
566.725,2782.2
566.892,2754.03
567.059,2757.27
567.226,2785.27
567.393,2908.73
567.56,3141.33
567.727,3166.73
567.894,3000.43
568.061,2837.93
568.228,2769.63
568.395,2776.9
568.562,2774.77
568.729,2762.0
568.896,2746.73
569.063,2761.47
569.23,2794.0
569.396,2821.43
569.563,2873.73
569.73,2913.9
569.897,2956.43
570.064,3011.2
570.231,3103.13
570.398,3307.83
570.565,3498.23
570.732,3741.67
570.898,3959.03
571.065,4279.2
571.232,4534.93
571.399,4433.57
571.566,4224.77
571.733,3886.0
571.9,3687.0
572.066,3491.2
572.233,3284.0
572.4,3126.93
572.567,3039.4
572.734,2966.97
572.9,2921.87
573.067,2935.67
573.234,2896.6
573.401,2913.1
573.567,2920.97
573.734,2989.77
573.901,3044.87
574.068,3053.53
574.234,3010.93
574.401,2982.03
574.568,2981.8
574.734,2984.53
574.901,3023.07
575.068,3069.63
575.235,3197.77
575.401,3209.47
575.568,3108.5
575.735,3018.17
575.901,3010.13
576.068,3097.47
576.235,3185.63
576.401,3214.2
576.568,3248.13
576.734,3224.87
576.901,3216.6
577.068,3139.93
577.234,3092.67
577.401,3004.4
577.567,2980.83
577.734,3002.03
577.901,3004.17
578.067,2961.53
578.234,3005.9
578.4,2993.17
578.567,3011.3
578.733,2984.7
578.9,2994.57
579.066,3019.6
579.233,3025.7
579.399,3002.93
579.566,3028.2
579.732,3058.2
579.899,3055.97
580.065,3087.27
580.232,3059.13
580.398,3088.0
580.565,3142.37
580.731,3173.8
580.898,3192.6
581.064,3215.97
581.231,3215.23
581.397,3384.23
581.563,3698.53
581.73,4596.3
581.896,6274.83
582.063,8380.87
582.229,8332.87
582.395,5466.3
582.562,3714.03
582.728,3358.47
582.895,3285.4
583.061,3212.1
583.227,3169.97
583.394,3180.77
583.56,3150.13
583.726,3152.77
583.893,3190.6
584.059,3197.67
584.225,3206.77
584.391,3243.47
584.558,3227.87
584.724,3273.9
584.89,3298.67
585.057,3377.6
585.223,3638.97
585.389,4167.7
585.555,4972.37
585.722,6001.23
585.888,6400.83
586.054,6247.53
586.22,5715.63
586.386,4954.67
586.553,4402.07
586.719,3793.47
586.885,3510.53
587.051,3387.2
587.217,3305.47
587.384,3244.8
587.55,3248.5
587.716,3251.57
587.882,3259.63
588.048,3205.83
588.214,3232.33
588.38,3225.8
588.546,3247.73
588.713,3193.57
588.879,3190.03
589.045,3206.37
589.211,3177.37
589.377,3215.7
589.543,3192.9
589.709,3169.8
589.875,3170.57
590.041,3204.37
590.207,3163.57
590.373,3202.8
590.539,3201.83
590.705,3184.63
590.871,3195.63
591.037,3209.2
591.203,3188.3
591.369,3205.63
591.535,3218.13
591.701,3184.83
591.867,3190.2
592.033,3185.73
592.199,3222.53
592.365,3248.83
592.531,3236.77
592.697,3181.33
592.863,3200.6
593.029,3215.1
593.195,3253.57
593.361,3208.97
593.526,3212.4
593.692,3199.9
593.858,3237.03
594.024,3230.7
594.19,3234.83
594.356,3234.17
594.522,3232.6
594.687,3209.33
594.853,3229.77
595.019,3249.6
595.185,3231.8
595.351,3263.53
595.516,3190.77
595.682,3302.87
595.848,3237.77
596.014,3255.97
596.18,3241.1
596.345,3269.13
596.511,3241.97
596.677,3284.2
596.843,3246.5
597.008,3237.03
597.174,3291.6
597.34,3241.03
597.505,3242.83
597.671,3238.07
597.837,3228.1
598.002,3247.2
598.168,3276.97
598.334,3298.5
598.499,3233.27
598.665,3283.23
598.831,3283.37
598.996,3254.6
599.162,3286.77
599.328,3304.5
599.493,3313.9
599.659,3254.2
599.824,3245.6
599.99,3277.7
600.156,3292.43
600.321,3246.27
600.487,3273.9
600.652,3262.63
600.818,3307.07
600.983,3329.5
601.149,3261.53
601.314,3316.47
601.48,3313.67
601.645,3275.03
601.811,3284.67
601.976,3280.57
602.142,3300.27
602.307,3320.83
602.473,3296.2
602.638,3305.43
602.804,3293.3
602.969,3292.07
603.135,3306.33
603.3,3307.43
603.466,3292.87
603.631,3344.93
603.796,3312.33
603.962,3316.77
604.127,3318.9
604.293,3314.53
604.458,3299.53
604.623,3272.7
604.789,3304.77
604.954,3323.77
605.119,3303.53
605.285,3307.27
605.45,3346.0
605.615,3292.9
605.781,3286.9
605.946,3326.13
606.111,3341.8
606.277,3342.17
606.442,3340.33
606.607,3346.23
606.772,3326.53
606.938,3328.07
607.103,3309.67
607.268,3359.77
607.433,3318.4
607.599,3337.8
607.764,3330.03
607.929,3330.57
608.094,3348.87
608.259,3319.43
608.425,3354.43
608.59,3332.0
608.755,3355.17
608.92,3366.4
609.085,3378.67
609.25,3337.87
609.415,3289.53
609.581,3364.0
609.746,3347.77
609.911,3364.13
610.076,3361.6
610.241,3345.8
610.406,3353.93
610.571,3392.73
610.736,3389.77
610.901,3361.57
611.066,3365.93
611.231,3322.43
611.396,3385.23
611.561,3352.8
611.727,3351.13
611.892,3404.4
612.057,3378.17
612.222,3370.27
612.386,3329.63
612.551,3368.43
612.716,3391.1
612.881,3370.9
613.046,3404.23
613.211,3369.57
613.376,3406.1
613.541,3371.6
613.706,3388.23
613.871,3378.2
614.036,3408.3
614.201,3391.87
614.366,3382.47
614.531,3435.4
614.695,3415.8
614.86,3427.8
615.025,3420.8
615.19,3398.17
615.355,3391.57
615.52,3442.53
615.684,3413.0
615.849,3406.77
616.014,3449.13
616.179,3458.9
616.344,3425.97
616.508,3418.13
616.673,3453.13
616.838,3416.87
617.003,3470.23
617.168,3470.33
617.332,3525.77
617.497,3458.27
617.662,3461.7
617.826,3479.87
617.991,3527.7
618.156,3540.63
618.32,3493.43
618.485,3509.57
618.65,3551.87
618.814,3498.23
618.979,3499.43
619.144,3469.87
619.308,3521.17
619.473,3494.67
619.638,3457.73
619.802,3454.87
619.967,3485.73
620.131,3514.2
620.296,3503.07
620.461,3440.7
620.625,3495.03
620.79,3511.03
620.954,3486.57
621.119,3477.27
621.283,3495.4
621.448,3469.83
621.612,3488.47
621.777,3499.9
621.941,3479.0
622.106,3494.43
622.27,3553.0
622.435,3492.83
622.599,3499.17
622.764,3540.6
622.928,3531.2
623.093,3559.47
623.257,3533.77
623.422,3553.1
623.586,3563.67
623.75,3571.43
623.915,3562.67
624.079,3539.07
624.244,3553.03
624.408,3598.2
624.572,3584.0
624.737,3561.1
624.901,3575.2
625.065,3660.43
625.23,3614.7
625.394,3621.73
625.558,3568.53
625.723,3592.2
625.887,3630.47
626.051,3553.07
626.215,3566.87
626.38,3568.83
626.544,3646.23
626.708,3565.63
626.872,3607.27
627.037,3577.53
627.201,3526.6
627.365,3602.53
627.529,3675.6
627.693,3660.23
627.858,3618.27
628.022,3657.97
628.186,3679.83
628.35,3714.7
628.514,3790.1
628.678,3839.17
628.843,3784.2
629.007,3796.77
629.171,3873.53
629.335,3806.07
629.499,3845.33
629.663,3771.57
629.827,3778.93
629.991,3785.27
630.155,3735.6
630.319,3756.13
630.483,3780.53
630.647,3860.37
630.812,3909.37
630.976,4111.43
631.14,4264.73
631.304,4421.5
631.468,4645.4
631.632,4647.67
631.796,4747.0
631.959,4644.43
632.123,4460.37
632.287,4396.1
632.451,4348.03
632.615,4220.77
632.779,4211.47
632.943,4153.9
633.107,4179.9
633.271,4146.83
633.435,4049.83
633.599,4041.6
633.763,4053.3
633.926,4078.37
634.09,3933.57
634.254,3831.33
634.418,3858.13
634.582,3795.03
634.746,3832.63
634.909,3846.2
635.073,3902.57
635.237,3869.83
635.401,3915.07
635.564,3963.0
635.728,4070.93
635.892,4220.03
636.056,4431.7
636.219,4624.17
636.383,4815.37
636.547,4937.23
636.711,4771.6
636.874,4475.33
637.038,4294.5
637.202,4074.7
637.365,4054.83
637.529,3963.73
637.693,3923.37
637.856,3847.83
638.02,3879.67
638.184,3801.6
638.347,3800.0
638.511,3787.33
638.674,3872.13
638.838,3817.87
639.002,3794.1
639.165,3790.53
639.329,3868.4
639.492,3815.57
639.656,3795.77
639.819,3768.03
639.983,3778.53
640.146,3808.13
640.31,3818.23
640.473,3767.03
640.637,3769.37
640.8,3782.13
640.964,3734.0
641.127,3795.87
641.291,3776.57
641.454,3762.43
641.618,3777.87
641.781,3787.6
641.944,3778.77
642.108,3848.27
642.271,3826.47
642.435,3849.63
642.598,3787.07
642.761,3796.37
642.925,3782.33
643.088,3778.67
643.251,3749.53
643.415,3778.0
643.578,3770.4
643.741,3836.4
643.905,3768.37
644.068,3781.03
644.231,3770.1
644.394,3754.53
644.558,3703.63
644.721,3762.9
644.884,3835.4
645.047,3733.33
645.211,3710.47
645.374,3756.37
645.537,3774.33
645.7,3820.23
645.863,3711.93
646.027,3725.63
646.19,3761.1
646.353,3751.57
646.516,3713.33
646.679,3725.8
646.842,3718.77
647.005,3805.03
647.169,3762.23
647.332,3723.73
647.495,3733.9
647.658,3724.57
647.821,3781.03
647.984,3741.13
648.147,3717.87
648.31,3738.53
648.473,3666.67
648.636,3758.5
648.799,3680.9
648.962,3704.3
649.125,3751.03
649.288,3717.77
649.451,3638.6
649.614,3673.4
649.777,3711.97
649.94,3723.37
650.103,3693.67
650.266,3678.47
650.429,3681.7
650.592,3724.87
650.755,3652.63
650.918,3683.83
651.08,3713.17
651.243,3726.37
651.406,3597.07
651.569,3667.1
651.732,3700.17
651.895,3674.2
652.058,3656.03
652.22,3638.83
652.383,3654.67
652.546,3606.17
652.709,3694.77
652.872,3628.63
653.034,3622.17
653.197,3689.43
653.36,3561.87
653.523,3638.23
653.685,3612.67
653.848,3649.37
654.011,3601.2
654.173,3524.8
654.336,3567.9
654.499,3668.2
654.662,3559.33
654.824,3588.2
654.987,3656.7
655.149,3531.53
655.312,3615.0
655.475,3544.8
655.637,3477.17
655.8,3601.97
655.963,3539.63
656.125,3554.93
656.288,3542.27
656.45,3524.77
656.613,3550.33
656.775,3550.37
656.938,3485.57
657.1,3503.9
657.263,3511.83
657.425,3531.4
657.588,3435.7
657.75,3451.8
657.913,3530.3
658.075,3467.17
658.238,3457.93
658.4,3423.0
658.563,3448.23
658.725,3473.5
658.888,3463.23
659.05,3414.9
659.212,3454.53
659.375,3417.23
659.537,3376.83
659.7,3465.8
659.862,3387.7
660.024,3373.1
660.187,3415.63
660.349,3381.77
660.511,3352.57
660.674,3336.8
660.836,3370.77
660.998,3320.57
661.079,3352.13