File: spectra/VLFR_08-PLA_bio_Raman_27fbbdc9.csv
nm,Intensity
528.626,1862.0
528.795,1861.4
528.963,1864.3
529.132,1862.8
529.3,1864.8
529.469,1864.8
529.637,1863.8
529.806,1863.0
529.974,1863.7
530.143,1864.3
530.311,1863.7
530.48,1863.9
530.648,1862.7
530.816,1865.3
530.985,1864.3
531.153,1867.3
531.322,1869.1
531.49,1876.2
531.658,1933.4
531.827,2735.3
531.995,5064.2
532.164,4616.1
532.332,2202.1
532.5,1871.0
532.669,1866.0
532.837,1866.9
533.006,1865.9
533.174,1867.3
533.342,1868.0
533.511,1893.5
533.679,2075.4
533.847,2400.4
534.016,2605.5
534.184,2660.6
534.352,2601.1
534.521,2564.9
534.689,2521.7
534.857,2500.2
535.025,2461.6
535.194,2422.2
535.362,2428.8
535.53,2421.2
535.699,2375.6
535.867,2361.3
536.035,2342.9
536.203,2336.2
536.372,2372.3
536.54,2357.2
536.708,2373.3
536.876,2350.2
537.044,2312.9
537.213,2325.7
537.381,2351.7
537.549,2351.6
537.717,2342.7
537.885,2337.8
538.054,2318.1
538.222,2295.3
538.39,2281.6
538.558,2259.4
538.726,2272.6
538.894,2283.6
539.063,2283.6
539.231,2277.2
539.399,2275.0
539.567,2279.4
539.735,2232.0
539.903,2230.0
540.071,2241.0
540.239,2291.5
540.408,2294.8
540.576,2328.9
540.744,2352.3
540.912,2320.4
541.08,2324.9
541.248,2323.3
541.416,2316.1
541.584,2305.2
541.752,2293.2
541.92,2276.0
542.088,2269.0
542.256,2273.1
542.424,2272.9
542.592,2278.2
542.76,2297.1
542.928,2302.4
543.096,2339.0
543.264,2379.1
543.432,2390.2
543.6,2431.6
543.768,2427.5
543.936,2421.6
544.104,2408.1
544.272,2371.9
544.44,2327.9
544.608,2295.1
544.776,2292.5
544.944,2307.6
545.112,2288.9
545.28,2275.0
545.448,2270.9
545.616,2273.6
545.784,2285.1
545.951,2261.6
546.119,2271.1
546.287,2276.5
546.455,2268.8
546.623,2276.3
546.791,2284.0
546.959,2282.4
547.127,2301.2
547.294,2289.8
547.462,2301.6
547.63,2289.1
547.798,2289.3
547.966,2312.5
548.134,2309.4
548.301,2312.4
548.469,2320.7
548.637,2302.3
548.805,2316.4
548.972,2321.0
549.14,2317.1
549.308,2328.6
549.476,2335.7
549.644,2325.7
549.811,2326.0
549.979,2320.6
550.147,2342.1
550.315,2331.0
550.482,2344.0
550.65,2350.1
550.818,2358.2
550.985,2364.1
551.153,2367.0
551.321,2356.6
551.488,2370.8
551.656,2360.9
551.824,2393.4
551.991,2390.8
552.159,2405.1
552.327,2394.7
552.494,2390.2
552.662,2401.1
552.83,2387.7
552.997,2399.5
553.165,2398.2
553.333,2385.8
553.5,2379.9
553.668,2389.4
553.835,2439.6
554.003,2460.5
554.171,2430.2
554.338,2419.8
554.506,2414.8
554.673,2400.4
554.841,2391.6
555.008,2390.8
555.176,2377.4
555.343,2387.3
555.511,2358.7
555.679,2357.2
555.846,2355.5
556.014,2363.0
556.181,2356.4
556.349,2354.4
556.516,2367.2
556.684,2367.4
556.851,2373.1
557.018,2374.3
557.186,2412.4
557.353,2447.5
557.521,2531.8
557.688,2685.0
557.856,2877.3
558.023,3043.2
558.191,3057.5
558.358,2738.1
558.525,2555.1
558.693,2493.7
558.86,2458.2
559.028,2456.3
559.195,2456.7
559.362,2459.4
559.53,2438.4
559.697,2447.4
559.864,2420.0
560.032,2417.7
560.199,2402.6
560.366,2425.0
560.534,2422.7
560.701,2416.0
560.868,2413.2
561.036,2421.8
561.203,2418.1
561.37,2410.0
561.538,2420.8
561.705,2383.4
561.872,2406.5
562.039,2416.9
562.207,2419.4
562.374,2415.0
562.541,2434.2
562.708,2449.4
562.876,2488.3
563.043,2534.2
563.21,2577.1
563.377,2635.2
563.545,2625.6
563.712,2586.0
563.879,2526.7
564.046,2478.7
564.213,2469.6
564.38,2482.0
564.548,2488.0
564.715,2550.1
564.882,2572.9
565.049,2592.3
565.216,2599.1
565.383,2585.7
565.551,2582.5
565.718,2589.7
565.885,2677.9
566.052,2706.1
566.219,2711.4
566.386,2656.4
566.553,2574.5
566.72,2530.9
566.887,2497.6
567.054,2455.8
567.221,2478.7
567.388,2456.0
567.555,2476.7
567.722,2510.0
567.889,2536.3
568.057,2512.3
568.224,2486.0
568.391,2496.9
568.558,2519.3
568.725,2498.9
568.892,2535.2
569.058,2502.8
569.225,2517.2
569.392,2528.9
569.559,2507.4
569.726,2479.3
569.893,2491.8
570.06,2485.3
570.227,2506.9
570.394,2495.2
570.561,2524.5
570.728,2516.0
570.895,2508.5
571.062,2513.5
571.229,2550.7
571.395,2621.5
571.562,2652.8
571.729,2650.2
571.896,2634.8
572.063,2609.8
572.23,2621.3
572.397,2599.9
572.563,2599.3
572.73,2605.7
572.897,2602.1
573.064,2614.0
573.231,2612.9
573.397,2620.7
573.564,2628.7
573.731,2613.2
573.898,2607.9
574.064,2568.2
574.231,2604.7
574.398,2641.7
574.565,2678.5
574.731,2611.6
574.898,2551.9
575.065,2544.7
575.232,2512.8
575.398,2524.1
575.565,2537.1
575.732,2533.2
575.898,2548.3
576.065,2608.6
576.232,2637.4
576.398,2748.3
576.565,2900.7
576.732,2944.0
576.898,2911.6
577.065,2850.7
577.232,2720.7
577.398,2610.3
577.565,2572.5
577.731,2557.3
577.898,2545.4
578.065,2525.6
578.231,2535.3
578.398,2534.1
578.564,2523.4
578.731,2515.1
578.897,2536.7
579.064,2516.3
579.23,2523.8
579.397,2543.4
579.563,2527.5
579.73,2548.7
579.896,2531.0
580.063,2541.0
580.229,2536.4
580.396,2519.5
580.562,2537.5
580.729,2528.9
580.895,2524.9
581.062,2549.1
581.228,2542.3
581.395,2526.4
581.561,2540.7
581.728,2515.9
581.894,2525.4
582.06,2559.6
582.227,2550.0
582.393,2545.8
582.56,2514.9
582.726,2528.8
582.892,2532.1
583.059,2547.4
583.225,2540.4
583.391,2535.3
583.558,2548.5
583.724,2542.2
583.89,2543.1
584.057,2540.4
584.223,2559.5
584.389,2519.7
584.556,2557.6
584.722,2530.6
584.888,2528.3
585.054,2554.8
585.221,2553.1
585.387,2539.6
585.553,2540.3
585.719,2554.9
585.886,2529.1
586.052,2562.7
586.218,2537.9
586.384,2608.5
586.55,2688.7
586.717,2737.6
586.883,2784.4
587.049,2820.8
587.215,2838.2
587.381,2908.7
587.548,2878.6
587.714,2866.3
587.88,2765.1
588.046,2682.2
588.212,2601.4
588.378,2582.5
588.544,2586.5
588.71,2541.4
588.876,2519.0
589.043,2508.9
589.209,2548.7
589.375,2530.0
589.541,2526.2
589.707,2520.7
589.873,2538.6
590.039,2519.5
590.205,2529.5
590.371,2553.0
590.537,2544.8
590.703,2558.8
590.869,2560.8
591.035,2541.0
591.201,2509.4
591.367,2547.0
591.533,2546.8
591.699,2533.5
591.865,2534.5
592.031,2544.9
592.197,2562.3
592.363,2559.8
592.529,2519.9
592.694,2536.9
592.86,2565.8
593.026,2549.2
593.192,2550.1
593.358,2561.3
593.524,2534.6
593.69,2546.4
593.856,2520.0
594.021,2555.2
594.187,2531.1
594.353,2545.8
594.519,2545.2
594.685,2531.1
594.851,2532.3
595.016,2535.9
595.182,2559.7
595.348,2565.5
595.514,2565.5
595.68,2552.7
595.845,2553.8
596.011,2553.5
596.177,2556.1
596.342,2580.4
596.508,2559.7
596.674,2551.3
596.84,2554.4
597.005,2570.1
597.171,2569.9
597.337,2574.5
597.502,2555.0
597.668,2561.3
597.834,2544.6
597.999,2584.0
598.165,2587.0
598.331,2573.3
598.496,2561.0
598.662,2575.7
598.828,2572.1
598.993,2592.1
599.159,2575.4
599.324,2579.8
599.49,2608.7
599.656,2600.2
599.821,2579.2
599.987,2579.6
600.152,2575.0
600.318,2584.6
600.483,2589.8
600.649,2610.8
600.814,2585.2
600.98,2596.9
601.145,2598.0
601.311,2586.5
601.476,2601.0
601.642,2620.8
601.807,2586.2
601.973,2574.4
602.138,2587.5
602.304,2577.2
602.469,2587.6
602.635,2625.3
602.8,2620.3
602.965,2621.7
603.131,2612.1
603.296,2589.1
603.462,2634.9
603.627,2596.5
603.792,2624.7
603.958,2629.2
604.123,2606.5
604.288,2605.0
604.454,2622.0
604.619,2639.6
604.784,2630.5
604.95,2620.2
605.115,2610.4
605.28,2607.9
605.446,2604.3
605.611,2615.1
605.776,2620.9
605.941,2617.5
606.107,2623.6
606.272,2638.2
606.437,2622.6
606.602,2606.7
606.767,2630.3
606.933,2635.9
607.098,2627.0
607.263,2637.6
607.428,2607.6
607.593,2680.8
607.759,2616.0
607.924,2640.5
608.089,2642.2
608.254,2632.3
608.419,2654.9
608.584,2651.1
608.749,2640.5
608.915,2625.3
609.08,2651.7
609.245,2649.0
609.41,2664.1
609.575,2653.9
609.74,2647.6
609.905,2668.2
610.07,2646.8
610.235,2664.3
610.4,2659.8
610.565,2680.0
610.73,2652.0
610.895,2688.7
611.06,2651.4
611.225,2688.8
611.39,2680.4
611.555,2674.1
611.72,2664.1
611.885,2666.7
612.05,2648.1
612.215,2683.3
612.38,2685.4
612.545,2671.3
612.71,2676.2
612.875,2657.5
613.04,2677.1
613.204,2674.6
613.369,2679.8
613.534,2668.0
613.699,2682.9
613.864,2720.8
614.029,2688.4
614.194,2691.1
614.358,2693.2
614.523,2711.6
614.688,2697.1
614.853,2669.3
615.018,2681.1
615.182,2682.2
615.347,2683.0
615.512,2695.0
615.677,2734.5
615.841,2709.3
616.006,2703.9
616.171,2704.0
616.336,2693.4
616.5,2719.4
616.665,2712.8
616.83,2705.9
616.994,2674.2
617.159,2710.0
617.324,2698.8
617.489,2699.8
617.653,2725.1
617.818,2674.2
617.982,2713.7
618.147,2703.6
618.312,2692.8
618.476,2708.7
618.641,2692.5
618.805,2704.4
618.97,2711.4
619.135,2727.3
619.299,2733.3
619.464,2700.8
619.628,2731.1
619.793,2743.0
619.957,2679.5
620.122,2702.6
620.286,2721.1
620.451,2718.5
620.615,2739.8
620.78,2709.9
620.944,2733.0
621.109,2692.7
621.273,2722.7
621.438,2722.5
621.602,2698.1
621.767,2709.2
621.931,2726.9
622.095,2718.2
622.26,2738.2
622.424,2749.0
622.589,2793.9
622.753,2812.1
622.917,2815.5
623.082,2784.3
623.246,2796.5
623.41,2815.9
623.575,2766.4
623.739,2778.2
623.903,2742.9
624.068,2731.1
624.232,2720.6
624.396,2742.3
624.561,2723.2
624.725,2710.5
624.889,2712.8
625.053,2721.6
625.218,2700.9
625.382,2702.2
625.546,2701.9
625.71,2702.6
625.875,2704.5
626.039,2724.9
626.203,2697.7
626.367,2687.7
626.531,2701.1
626.695,2710.9
626.86,2731.3
627.024,2715.5
627.188,2722.3
627.352,2704.6
627.516,2722.4
627.68,2746.6
627.844,2783.1
628.008,2867.9
628.172,3014.4
628.337,3174.9
628.501,3199.2
628.665,3193.4
628.829,3118.4
628.993,3078.8
629.157,3091.3
629.321,3108.1
629.485,3134.0
629.649,3097.0
629.813,3104.1
629.977,3150.1
630.141,3203.0
630.305,3247.5
630.469,3472.9
630.633,4009.0
630.797,4714.9
630.96,5633.1
631.124,5726.7
631.288,5299.2
631.452,4686.4
631.616,4120.4
631.78,3740.4
631.944,3579.6
632.108,3387.0
632.272,3399.3
632.435,3359.7
632.599,3341.8
632.763,3510.1
632.927,3660.0
633.091,3864.7
633.254,3912.7
633.418,3931.8
633.582,3711.2
633.746,3530.7
633.91,3394.1
634.073,3277.1
634.237,3062.9
634.401,2929.2
634.564,2805.5
634.728,2788.5
634.892,2752.8
635.056,2700.6
635.219,2682.1
635.383,2696.8
635.547,2658.9
635.71,2627.3
635.874,2627.3
636.038,2637.8
636.201,2633.6
636.365,2609.4
636.528,2609.6
636.692,2595.0
636.856,2622.3
637.019,2588.3
637.183,2596.3
637.346,2602.1
637.51,2591.0
637.673,2600.1
637.837,2592.3
638.0,2596.3
638.164,2589.9
638.327,2584.5
638.491,2589.5
638.654,2570.7
638.818,2559.4
638.981,2587.9
639.145,2571.2
639.308,2558.9
639.472,2562.4
639.635,2568.2
639.799,2569.0
639.962,2540.3
640.125,2551.7
640.289,2569.9
640.452,2540.9
640.616,2554.5
640.779,2527.3
640.942,2514.5
641.106,2545.8
641.269,2525.6
641.432,2538.7
641.596,2540.5
641.759,2510.6
641.922,2525.4
642.085,2508.1
642.249,2545.7
642.412,2542.3
642.575,2531.9
642.738,2529.7
642.902,2519.6
643.065,2501.7
643.228,2498.9
643.391,2531.3
643.555,2508.1
643.718,2476.3
643.881,2512.1
644.044,2513.8
644.207,2488.0
644.37,2488.1
644.534,2489.2
644.697,2467.7
644.86,2470.2
645.023,2469.6
645.186,2463.1
645.349,2475.3
645.512,2489.0
645.675,2451.3
645.838,2430.9
646.001,2472.9
646.164,2454.6
646.327,2446.6
646.49,2426.0
646.653,2458.5
646.816,2441.9
646.979,2433.6
647.142,2444.7
647.305,2453.3
647.468,2401.8
647.631,2423.5
647.794,2431.4
647.957,2431.3
648.12,2442.3
648.283,2407.9
648.446,2402.9
648.609,2412.9
648.772,2428.2
648.935,2414.8
649.098,2398.5
649.26,2400.3
649.423,2400.0
649.586,2405.0
649.749,2383.0
649.912,2391.9
650.075,2397.7
650.237,2414.1
650.4,2387.8
650.563,2382.3
650.726,2376.2
650.888,2371.8
651.051,2405.6
651.214,2397.7
651.377,2372.3
651.539,2346.8
651.702,2377.2
651.865,2370.7
652.027,2357.1
652.19,2381.1
652.353,2390.5
652.515,2378.0
652.678,2345.0
652.841,2353.1
653.003,2362.3
653.166,2350.1
653.329,2374.9
653.491,2358.2
653.654,2333.1
653.816,2322.7
653.979,2337.6
654.142,2337.5
654.304,2334.3
654.467,2332.2
654.629,2317.2
654.792,2322.0
654.954,2312.9
655.117,2327.2
655.279,2329.8
655.442,2320.0
655.604,2333.0
655.767,2319.4
655.929,2315.5
656.091,2305.9
656.254,2286.7
656.416,2291.4
656.579,2295.0
656.741,2301.1
656.904,2295.4
657.066,2281.7
657.228,2299.5
657.391,2316.3
657.553,2299.7
657.715,2293.8
657.878,2277.9
658.04,2288.0
658.202,2277.7
658.365,2294.5
658.527,2283.4
658.689,2280.4
658.851,2265.2
659.014,2280.4
659.176,2280.8
659.338,2249.7
659.5,2263.2
659.663,2276.4
659.825,2281.3
659.987,2262.7
660.149,2250.1
660.311,2258.9
660.474,2263.0
660.636,2258.8
660.798,2234.2
660.96,2253.7
661.041,2255.9