File: spectra/VLFR_01-LDPE_bio_Raman_4651917c.csv
nm,Intensity
528.626,1867.2
528.795,1868.0
528.963,1868.6
529.132,1868.2
529.3,1866.8
529.469,1867.6
529.637,1868.5
529.806,1867.6
529.974,1867.6
530.143,1867.8
530.311,1866.9
530.48,1867.1
530.648,1867.7
530.816,1868.7
530.985,1867.9
531.153,1868.9
531.322,1870.4
531.49,1874.9
531.658,1892.0
531.827,2137.6
531.995,3066.6
532.164,3459.7
532.332,2184.2
532.5,1869.1
532.669,1868.9
532.837,1869.1
533.006,1867.8
533.174,1869.1
533.342,1869.9
533.511,1874.6
533.679,1919.5
533.847,2035.4
534.016,2103.9
534.184,2136.4
534.352,2109.6
534.521,2109.1
534.689,2103.2
534.857,2108.0
535.025,2093.0
535.194,2083.4
535.362,2084.1
535.53,2070.0
535.699,2071.5
535.867,2065.1
536.035,2053.8
536.203,2044.1
536.372,2037.5
536.54,2038.4
536.708,2048.6
536.876,2034.2
537.044,2029.4
537.213,2042.5
537.381,2046.1
537.549,2036.7
537.717,2046.1
537.885,2050.8
538.054,2038.3
538.222,2034.1
538.39,2038.1
538.558,2038.2
538.726,2031.6
538.894,2026.4
539.063,2033.4
539.231,2036.1
539.399,2031.8
539.567,2018.6
539.735,2030.5
539.903,2024.0
540.071,2035.5
540.239,2013.7
540.408,2019.1
540.576,2018.4
540.744,2022.8
540.912,2025.2
541.08,2017.1
541.248,2017.9
541.416,2022.7
541.584,2028.1
541.752,2031.8
541.92,2020.6
542.088,2027.1
542.256,2029.3
542.424,2017.9
542.592,2021.7
542.76,2026.7
542.928,2023.5
543.096,2025.0
543.264,2016.2
543.432,2020.0
543.6,2020.4
543.768,2020.9
543.936,2031.9
544.104,2018.8
544.272,2025.4
544.44,2014.4
544.608,2019.0
544.776,2032.4
544.944,2028.2
545.112,2028.2
545.28,2020.4
545.448,2012.3
545.616,2016.9
545.784,2028.3
545.951,2016.8
546.119,2012.7
546.287,2020.3
546.455,2022.6
546.623,2021.9
546.791,2024.8
546.959,2035.5
547.127,2025.3
547.294,2023.0
547.462,2026.5
547.63,2027.0
547.798,2018.2
547.966,2026.3
548.134,2026.0
548.301,2033.0
548.469,2016.7
548.637,2018.6
548.805,2025.6
548.972,2014.6
549.14,2021.3
549.308,2023.8
549.476,2018.4
549.644,2018.0
549.811,2024.4
549.979,2012.5
550.147,2019.4
550.315,2021.1
550.482,2025.0
550.65,2023.5
550.818,2018.3
550.985,2016.9
551.153,2012.8
551.321,2016.9
551.488,2023.2
551.656,2029.1
551.824,2036.3
551.991,2030.3
552.159,2028.3
552.327,2033.3
552.494,2027.7
552.662,2023.7
552.83,2035.7
552.997,2029.9
553.165,2033.5
553.333,2033.6
553.5,2040.0
553.668,2044.1
553.835,2048.4
554.003,2044.7
554.171,2039.8
554.338,2047.4
554.506,2050.5
554.673,2050.0
554.841,2046.9
555.008,2048.3
555.176,2056.6
555.343,2054.3
555.511,2038.9
555.679,2052.8
555.846,2055.8
556.014,2062.0
556.181,2050.8
556.349,2061.2
556.516,2063.5
556.684,2061.9
556.851,2056.6
557.018,2075.1
557.186,2068.5
557.353,2073.1
557.521,2074.1
557.688,2083.6
557.856,2083.1
558.023,2087.3
558.191,2083.8
558.358,2078.8
558.525,2094.2
558.693,2084.6
558.86,2088.9
559.028,2071.0
559.195,2078.2
559.362,2078.4
559.53,2069.9
559.697,2058.3
559.864,2076.0
560.032,2061.8
560.199,2066.0
560.366,2065.5
560.534,2075.9
560.701,2074.2
560.868,2076.7
561.036,2078.0
561.203,2076.9
561.37,2082.0
561.538,2076.8
561.705,2079.3
561.872,2091.2
562.039,2086.3
562.207,2093.7
562.374,2084.8
562.541,2088.4
562.708,2090.6
562.876,2100.0
563.043,2107.0
563.21,2103.1
563.377,2109.2
563.545,2145.1
563.712,2165.8
563.879,2284.9
564.046,2374.2
564.213,2284.7
564.38,2192.1
564.548,2183.6
564.715,2168.4
564.882,2159.5
565.049,2164.4
565.216,2139.8
565.383,2139.2
565.551,2136.6
565.718,2173.6
565.885,2242.2
566.052,2316.8
566.219,2355.7
566.386,2237.7
566.553,2157.9
566.72,2130.6
566.887,2137.5
567.054,2119.8
567.221,2149.1
567.388,2137.8
567.555,2126.8
567.722,2136.2
567.889,2121.7
568.057,2114.5
568.224,2106.1
568.391,2113.6
568.558,2128.9
568.725,2117.8
568.892,2117.3
569.058,2121.2
569.225,2126.2
569.392,2122.8
569.559,2121.6
569.726,2127.0
569.893,2139.4
570.06,2137.2
570.227,2141.6
570.394,2147.7
570.561,2148.9
570.728,2147.1
570.895,2167.0
571.062,2173.5
571.229,2266.3
571.395,2462.3
571.562,2596.4
571.729,2454.4
571.896,2306.1
572.063,2257.9
572.23,2231.4
572.397,2209.3
572.563,2193.0
572.73,2181.5
572.897,2171.6
573.064,2184.0
573.231,2170.9
573.397,2176.4
573.564,2186.6
573.731,2204.1
573.898,2205.1
574.064,2209.2
574.231,2186.5
574.398,2184.8
574.565,2177.9
574.731,2201.8
574.898,2199.6
575.065,2182.4
575.232,2218.1
575.398,2275.7
575.565,2358.9
575.732,2379.5
575.898,2403.7
576.065,2512.6
576.232,2636.3
576.398,2651.2
576.565,2566.7
576.732,2525.0
576.898,2527.0
577.065,2473.0
577.232,2451.1
577.398,2376.7
577.565,2330.5
577.731,2317.7
577.898,2289.0
578.065,2284.8
578.231,2293.9
578.398,2303.0
578.564,2307.1
578.731,2302.4
578.897,2318.8
579.064,2314.6
579.23,2328.1
579.397,2317.1
579.563,2351.2
579.73,2362.3
579.896,2355.3
580.063,2380.0
580.229,2383.0
580.396,2384.9
580.562,2400.1
580.729,2416.1
580.895,2420.9
581.062,2437.1
581.228,2430.1
581.395,2443.3
581.561,2450.8
581.728,2467.0
581.894,2463.2
582.06,2478.4
582.227,2476.9
582.393,2499.7
582.56,2528.5
582.726,2532.5
582.892,2551.4
583.059,2550.8
583.225,2574.4
583.391,2587.5
583.558,2591.6
583.724,2610.7
583.89,2642.8
584.057,2626.7
584.223,2667.2
584.389,2679.5
584.556,2681.7
584.722,2697.3
584.888,2727.3
585.054,2733.7
585.221,2732.6
585.387,2761.6
585.553,2787.5
585.719,2802.8
585.886,2853.8
586.052,2832.4
586.218,2848.7
586.384,2879.9
586.55,2902.5
586.717,2937.1
586.883,2951.8
587.049,2986.2
587.215,3010.2
587.381,3021.6
587.548,3050.0
587.714,3085.2
587.88,3102.1
588.046,3151.4
588.212,3135.7
588.378,3180.6
588.544,3208.8
588.71,3214.8
588.876,3246.5
589.043,3247.5
589.209,3313.8
589.375,3307.6
589.541,3313.2
589.707,3354.2
589.873,3371.6
590.039,3395.3
590.205,3415.3
590.371,3425.6
590.537,3489.1
590.703,3543.2
590.869,3516.5
591.035,3530.4
591.201,3540.7
591.367,3606.1
591.533,3588.4
591.699,3634.0
591.865,3651.9
592.031,3676.7
592.197,3672.2
592.363,3717.7
592.529,3752.0
592.694,3696.4
592.86,3764.9
593.026,3748.0
593.192,3773.9
593.358,3736.4
593.524,3839.5
593.69,3820.5
593.856,3801.2
594.021,3833.7
594.187,3825.6
594.353,3872.3
594.519,3898.1
594.685,3850.6
594.851,3891.5
595.016,3893.1
595.182,3954.9
595.348,3952.4
595.514,3981.4
595.68,4046.9
595.845,3926.8
596.011,3979.3
596.177,3998.5
596.342,4074.7
596.508,4054.7
596.674,4063.2
596.84,4103.6
597.005,4042.3
597.171,4069.0
597.337,4078.7
597.502,4129.2
597.668,4092.8
597.834,4186.5
597.999,4121.6
598.165,4161.5
598.331,4170.3
598.496,4118.9
598.662,4206.1
598.828,4158.7
598.993,4183.2
599.159,4218.2
599.324,4187.1
599.49,4215.3
599.656,4220.1
599.821,4229.1
599.987,4266.6
600.152,4251.7
600.318,4236.0
600.483,4240.7
600.649,4212.2
600.814,4257.3
600.98,4161.5
601.145,4181.5
601.311,4272.1
601.476,4180.0
601.642,4179.8
601.807,4240.9
601.973,4128.9
602.138,4089.3
602.304,4112.7
602.469,4147.7
602.635,4136.9
602.8,4072.1
602.965,4081.6
603.131,4044.3
603.296,4052.8
603.462,3975.0
603.627,4001.9
603.792,4004.5
603.958,3993.4
604.123,3915.2
604.288,3896.6
604.454,3914.8
604.619,3881.9
604.784,3823.1
604.95,3796.5
605.115,3766.7
605.28,3769.9
605.446,3760.9
605.611,3777.8
605.776,3725.8
605.941,3734.6
606.107,3625.5
606.272,3660.6
606.437,3645.4
606.602,3622.1
606.767,3633.5
606.933,3563.1
607.098,3569.5
607.263,3572.7
607.428,3492.2
607.593,3467.3
607.759,3520.5
607.924,3454.8
608.089,3442.6
608.254,3480.6
608.419,3483.3
608.584,3438.9
608.749,3341.0
608.915,3386.2
609.08,3377.6
609.245,3324.2
609.41,3379.5
609.575,3346.7
609.74,3304.9
609.905,3301.5
610.07,3320.6
610.235,3302.2
610.4,3263.1
610.565,3246.4
610.73,3256.8
610.895,3277.7
611.06,3258.3
611.225,3253.3
611.39,3217.7
611.555,3223.3
611.72,3191.9
611.885,3137.1
612.05,3170.5
612.215,3169.0
612.38,3118.4
612.545,3132.8
612.71,3137.5
612.875,3102.5
613.04,3087.1
613.204,3139.3
613.369,3078.9
613.534,3106.0
613.699,3095.5
613.864,3021.7
614.029,3067.0
614.194,3085.9
614.358,3036.5
614.523,3031.8
614.688,3018.4
614.853,3004.6
615.018,2974.5
615.182,3007.3
615.347,2990.6
615.512,2971.1
615.677,2984.2
615.841,2954.8
616.006,2994.1
616.171,2954.4
616.336,2937.2
616.5,2944.1
616.665,2961.8
616.83,2917.8
616.994,2919.4
617.159,2914.6
617.324,2926.5
617.489,2899.9
617.653,2897.2
617.818,2919.7
617.982,2937.9
618.147,2891.6
618.312,2894.1
618.476,2845.0
618.641,2850.9
618.805,2878.2
618.97,2842.8
619.135,2855.7
619.299,2898.7
619.464,2866.9
619.628,2853.5
619.793,2859.5
619.957,2843.7
620.122,2862.6
620.286,2832.1
620.451,2817.2
620.615,2844.9
620.78,2851.3
620.944,2840.0
621.109,2823.0
621.273,2848.5
621.438,2857.0
621.602,2856.4
621.767,2845.0
621.931,2895.6
622.095,2895.1
622.26,2921.5
622.424,2923.0
622.589,2890.6
622.753,2875.5
622.917,2825.6
623.082,2793.9
623.246,2780.3
623.41,2776.4
623.575,2736.8
623.739,2751.9
623.903,2731.0
624.068,2758.2
624.232,2733.5
624.396,2716.8
624.561,2715.7
624.725,2733.9
624.889,2689.6
625.053,2728.5
625.218,2707.9
625.382,2737.0
625.546,2710.0
625.71,2740.9
625.875,2751.0
626.039,2798.4
626.203,2813.2
626.367,2897.5
626.531,3048.8
626.695,3431.1
626.86,4004.3
627.024,4729.4
627.188,5103.4
627.352,5189.5
627.516,4809.8
627.68,4391.7
627.844,4237.5
628.008,4209.3
628.172,4318.5
628.337,4821.1
628.501,5225.3
628.665,5097.9
628.829,4615.5
628.993,4365.1
629.157,4206.3
629.321,4149.5
629.485,4031.4
629.649,3937.5
629.813,3781.3
629.977,3657.0
630.141,3677.8
630.305,3667.8
630.469,3562.3
630.633,3547.4
630.797,3417.7
630.96,3221.2
631.124,2998.9
631.288,2931.8
631.452,2897.3
631.616,2848.9
631.78,2794.5
631.944,2756.7
632.108,2743.1
632.272,2726.7
632.435,2747.9
632.599,2735.4
632.763,2740.0
632.927,2713.2
633.091,2692.9
633.254,2715.9
633.418,2698.3
633.582,2722.7
633.746,2718.3
633.91,2681.7
634.073,2722.1
634.237,2722.4
634.401,2695.8
634.564,2686.8
634.728,2713.6
634.892,2704.7
635.056,2717.4
635.219,2712.3
635.383,2693.5
635.547,2695.3
635.71,2708.2
635.874,2694.3
636.038,2711.1
636.201,2709.3
636.365,2706.2
636.528,2737.7
636.692,2758.9
636.856,2701.9
637.019,2747.7
637.183,2765.2
637.346,2728.9
637.51,2722.1
637.673,2748.9
637.837,2735.0
638.0,2715.6
638.164,2759.3
638.327,2776.4
638.491,2758.5
638.654,2791.9
638.818,2775.8
638.981,2746.7
639.145,2800.7
639.308,2778.5
639.472,2757.8
639.635,2767.0
639.799,2762.0
639.962,2766.9
640.125,2803.5
640.289,2791.2
640.452,2823.6
640.616,2754.9
640.779,2772.1
640.942,2817.2
641.106,2817.6
641.269,2833.1
641.432,2837.0
641.596,2800.6
641.759,2843.3
641.922,2846.1
642.085,2826.8
642.249,2874.8
642.412,2789.0
642.575,2881.3
642.738,2901.9
642.902,2842.2
643.065,2835.5
643.228,2843.0
643.391,2865.4
643.555,2895.3
643.718,2883.9
643.881,2873.2
644.044,2902.2
644.207,2868.6
644.37,2852.5
644.534,2881.7
644.697,2873.7
644.86,2894.4
645.023,2865.4
645.186,2900.4
645.349,2921.8
645.512,2850.7
645.675,2863.7
645.838,2870.4
646.001,2917.3
646.164,2851.3
646.327,2896.6
646.49,2897.9
646.653,2863.1
646.816,2890.8
646.979,2867.8
647.142,2873.4
647.305,2869.2
647.468,2853.9
647.631,2882.2
647.794,2847.7
647.957,2815.6
648.12,2852.9
648.283,2881.5
648.446,2855.7
648.609,2852.3
648.772,2851.3
648.935,2857.7
649.098,2838.4
649.26,2825.0
649.423,2821.4
649.586,2830.9
649.749,2831.7
649.912,2840.4
650.075,2843.3
650.237,2840.8
650.4,2852.6
650.563,2827.3
650.726,2814.1
650.888,2808.0
651.051,2820.6
651.214,2827.2
651.377,2787.2
651.539,2812.4
651.702,2789.9
651.865,2803.3
652.027,2812.5
652.19,2796.4
652.353,2793.4
652.515,2783.3
652.678,2804.6
652.841,2787.1
653.003,2763.2
653.166,2757.6
653.329,2742.8
653.491,2761.0
653.654,2739.6
653.816,2753.9
653.979,2737.0
654.142,2772.5
654.304,2758.7
654.467,2735.2
654.629,2708.0
654.792,2700.1
654.954,2695.9
655.117,2731.5
655.279,2733.5
655.442,2724.0
655.604,2701.5
655.767,2690.0
655.929,2730.2
656.091,2692.4
656.254,2676.1
656.416,2676.6
656.579,2710.1
656.741,2703.9
656.904,2683.2
657.066,2660.7
657.228,2639.1
657.391,2634.3
657.553,2610.2
657.715,2593.5
657.878,2619.1
658.04,2609.8
658.202,2573.4
658.365,2564.6
658.527,2566.4
658.689,2590.6
658.851,2570.5
659.014,2535.0
659.176,2572.0
659.338,2538.7
659.5,2521.0
659.663,2524.1
659.825,2522.8
659.987,2484.8
660.149,2507.5
660.311,2492.2
660.474,2497.0
660.636,2477.2
660.798,2483.1
660.96,2479.4
661.041,2458.3