File: spectra/VLFR_06-PET_bio_Raman_5a0947cf.csv
nm,Intensity
528.635,1840.4
528.803,1840.6
528.972,1840.7
529.14,1840.5
529.308,1840.6
529.477,1841.1
529.645,1840.5
529.814,1841.9
529.982,1842.8
530.151,1843.0
530.319,1842.4
530.487,1840.6
530.656,1842.5
530.824,1845.5
530.993,1846.5
531.161,1844.7
531.329,1847.7
531.498,1852.9
531.666,1886.9
531.835,2388.0
532.003,4209.5
532.171,3930.5
532.34,2021.8
532.508,1847.7
532.676,1846.2
532.845,1851.9
533.013,1853.5
533.181,1864.4
533.35,1899.1
533.518,2282.2
533.686,4486.6
533.854,8974.3
534.023,11251.5
534.191,10814.2
534.359,9982.8
534.528,9087.4
534.696,8499.4
534.864,7622.7
535.032,6943.5
535.201,6184.1
535.369,5684.1
535.537,5107.9
535.705,4629.4
535.874,4225.9
536.042,3852.6
536.21,3606.5
536.378,3414.0
536.546,3300.6
536.715,3230.8
536.883,3126.1
537.051,3083.4
537.219,3001.9
537.387,2986.7
537.556,2947.0
537.724,2903.5
537.892,2911.0
538.06,2949.7
538.228,2946.3
538.396,2971.1
538.565,2930.8
538.733,2946.2
538.901,2919.8
539.069,2946.8
539.237,2992.7
539.405,3034.6
539.573,3143.7
539.741,3224.7
539.909,3212.2
540.077,3142.3
540.246,2951.3
540.414,2876.0
540.582,2778.6
540.75,2747.7
540.918,2694.1
541.086,2661.6
541.254,2637.7
541.422,2628.4
541.59,2625.1
541.758,2588.0
541.926,2624.5
542.094,2636.2
542.262,2628.5
542.43,2612.6
542.598,2615.1
542.766,2649.7
542.934,2666.5
543.102,2621.4
543.27,2607.1
543.438,2614.1
543.606,2641.7
543.774,2702.6
543.942,2689.3
544.11,2671.5
544.278,2635.7
544.445,2673.5
544.613,2665.2
544.781,2687.7
544.949,2667.4
545.117,2695.8
545.285,2693.8
545.453,2698.3
545.621,2677.7
545.789,2709.5
545.957,2673.0
546.124,2704.1
546.292,2733.1
546.46,2691.3
546.628,2717.9
546.796,2739.3
546.964,2725.7
547.131,2728.9
547.299,2785.8
547.467,2730.8
547.635,2764.4
547.803,2755.0
547.97,2755.8
548.138,2769.7
548.306,2785.2
548.474,2798.7
548.642,2801.2
548.809,2818.2
548.977,2786.6
549.145,2800.7
549.313,2802.3
549.48,2797.8
549.648,2788.3
549.816,2808.5
549.983,2805.9
550.151,2849.6
550.319,3046.5
550.487,3715.2
550.654,4332.6
550.822,3681.8
550.99,2972.5
551.157,2910.0
551.325,2925.8
551.493,2906.5
551.66,2927.1
551.828,2921.1
551.996,2956.9
552.163,2958.8
552.331,2980.5
552.499,3050.5
552.666,3356.3
552.834,3537.3
553.001,3353.3
553.169,3072.4
553.337,2992.7
553.504,2972.3
553.672,3038.8
553.839,3043.3
554.007,3030.7
554.174,3018.5
554.342,3031.0
554.509,3038.2
554.677,3041.9
554.845,3077.7
555.012,3124.9
555.18,3213.3
555.347,3391.2
555.515,3683.8
555.682,3827.7
555.85,3771.1
556.017,3765.2
556.185,3832.4
556.352,3846.0
556.52,3890.2
556.687,3937.4
556.854,3966.3
557.022,4132.3
557.189,4616.6
557.357,5228.1
557.524,5711.9
557.692,5385.3
557.859,4575.5
558.026,4197.5
558.194,4151.8
558.361,4233.7
558.529,4178.1
558.696,3991.9
558.863,3798.9
559.031,3683.0
559.198,3531.2
559.365,3402.9
559.533,3350.6
559.7,3347.6
559.867,3368.5
560.035,3359.0
560.202,3356.4
560.369,3324.8
560.537,3389.1
560.704,3379.6
560.871,3391.1
561.039,3410.9
561.206,3516.9
561.373,3497.6
561.54,3497.1
561.708,3575.6
561.875,3581.7
562.042,3675.3
562.209,3710.5
562.377,3665.1
562.544,3748.3
562.711,3756.8
562.878,3844.4
563.046,3872.9
563.213,3851.6
563.38,3801.9
563.547,3759.0
563.714,3670.0
563.881,3674.4
564.049,3697.5
564.216,3710.9
564.383,3732.5
564.55,3842.2
564.717,4010.5
564.884,4212.5
565.052,4476.4
565.219,4663.7
565.386,4865.4
565.553,5132.4
565.72,5205.7
565.887,5209.8
566.054,4889.1
566.221,4622.1
566.388,4210.1
566.555,4024.8
566.722,3904.6
566.889,3781.1
567.056,3837.7
567.224,3938.0
567.391,4223.2
567.558,4563.3
567.725,4674.2
567.892,4437.2
568.059,4095.4
568.226,3960.1
568.393,3908.9
568.56,3913.8
568.727,3883.8
568.893,3900.5
569.06,3921.0
569.227,3881.7
569.394,3985.0
569.561,4140.6
569.728,4180.2
569.895,4245.1
570.062,4440.3
570.229,4608.4
570.396,4875.9
570.563,5399.6
570.73,5790.3
570.897,6396.7
571.063,6905.1
571.23,7368.6
571.397,7382.4
571.564,6690.2
571.731,6014.7
571.898,5663.3
572.064,5425.7
572.231,4882.4
572.398,4645.4
572.565,4450.1
572.732,4311.4
572.899,4186.3
573.065,4194.3
573.232,4221.5
573.399,4221.4
573.566,4234.9
573.732,4368.7
573.899,4365.9
574.066,4472.9
574.233,4391.4
574.399,4342.5
574.566,4314.2
574.733,4281.4
574.9,4384.5
575.066,4493.6
575.233,4729.1
575.4,4817.8
575.566,4529.9
575.733,4449.8
575.9,4404.2
576.066,4509.8
576.233,4772.5
576.4,4801.8
576.566,4838.3
576.733,4833.0
576.899,4720.8
577.066,4650.6
577.233,4526.5
577.399,4434.7
577.566,4354.6
577.732,4289.4
577.899,4353.2
578.066,4350.3
578.232,4398.1
578.399,4388.0
578.565,4320.1
578.732,4382.2
578.898,4305.1
579.065,4405.9
579.231,4389.4
579.398,4388.9
579.564,4451.2
579.731,4415.8
579.897,4450.2
580.064,4515.6
580.23,4462.0
580.397,4577.6
580.563,4616.4
580.73,4601.0
580.896,4803.7
581.063,4832.7
581.229,4925.6
581.396,5116.1
581.562,5718.6
581.728,7415.8
581.895,10985.1
582.061,15683.8
582.228,15396.5
582.394,9758.6
582.56,5989.2
582.727,5073.2
582.893,4904.2
583.059,4748.9
583.226,4781.1
583.392,4715.5
583.558,4696.1
583.725,4732.7
583.891,4794.2
584.057,4751.0
584.224,4768.0
584.39,4807.5
584.556,4862.0
584.722,4904.4
584.889,5026.6
585.055,5201.0
585.221,5658.1
585.387,6627.1
585.554,8488.1
585.72,10359.5
585.886,11356.1
586.052,11294.6
586.219,10362.3
586.385,8835.5
586.551,7337.0
586.717,6219.8
586.883,5413.1
587.049,5269.9
587.216,4963.3
587.382,4987.7
587.548,4874.6
587.714,4873.9
587.88,4853.9
588.046,4885.7
588.212,4879.5
588.379,4804.8
588.545,4907.8
588.711,4810.8
588.877,4796.1
589.043,4836.8
589.209,4857.6
589.375,4797.8
589.541,4778.6
589.707,4794.0
589.873,4794.3
590.039,4795.2
590.205,4749.5
590.371,4787.9
590.537,4799.4
590.703,4808.5
590.869,4822.4
591.035,4824.1
591.201,4789.9
591.367,4846.1
591.533,4900.8
591.699,4843.7
591.865,4832.6
592.031,4918.0
592.197,4913.0
592.363,4880.4
592.529,4907.8
592.695,4862.7
592.86,4865.9
593.026,4922.0
593.192,4891.2
593.358,4900.8
593.524,4919.8
593.69,4797.7
593.856,4886.1
594.022,4937.5
594.187,4875.2
594.353,4929.0
594.519,4936.1
594.685,4919.5
594.851,4952.9
595.016,4958.0
595.182,4980.0
595.348,4926.5
595.514,4935.8
595.679,4998.9
595.845,4989.5
596.011,5018.4
596.177,4980.2
596.342,5006.9
596.508,4920.7
596.674,4982.9
596.84,5024.5
597.005,5058.5
597.171,4965.3
597.337,4962.2
597.502,5030.6
597.668,4952.5
597.834,4951.5
597.999,4993.5
598.165,5075.7
598.331,4974.9
598.496,5003.7
598.662,4990.4
598.827,5037.7
598.993,5037.6
599.159,4962.5
599.324,5037.4
599.49,4996.3
599.655,5108.6
599.821,5045.3
599.987,5051.8
600.152,5062.3
600.318,5047.7
600.483,5088.7
600.649,4971.6
600.814,5025.2
600.98,5013.4
601.145,5066.9
601.311,5111.8
601.476,5134.7
601.642,4982.2
601.807,5007.9
601.973,5134.2
602.138,5106.0
602.303,5121.0
602.469,5175.2
602.634,5015.7
602.8,5117.5
602.965,5174.3
603.13,5152.4
603.296,5140.6
603.461,5079.3
603.627,5071.9
603.792,5117.1
603.957,5168.0
604.123,5121.1
604.288,4979.8
604.453,5131.3
604.619,5115.8
604.784,5170.5
604.949,5133.9
605.115,5088.4
605.28,5105.9
605.445,5217.4
605.61,5101.4
605.776,5105.2
605.941,5093.8
606.106,5154.8
606.272,5124.7
606.437,5003.2
606.602,5124.3
606.767,5221.6
606.932,5175.8
607.098,5113.5
607.263,5057.1
607.428,5221.6
607.593,5045.3
607.758,5130.5
607.923,5142.8
608.089,5124.8
608.254,5126.9
608.419,5183.7
608.584,5082.1
608.749,5172.4
608.914,5136.8
609.079,5145.7
609.244,5229.4
609.41,5177.9
609.575,5041.9
609.74,5122.6
609.905,5236.9
610.07,5214.6
610.235,5116.6
610.4,5100.0
610.565,5180.6
610.73,5149.4
610.895,5242.6
611.06,5085.5
611.225,5124.3
611.39,5210.7
611.555,5306.9
611.72,5161.7
611.885,5148.6
612.05,5128.1
612.215,5126.3
612.38,5253.7
612.545,5122.0
612.709,5158.0
612.874,5232.0
613.039,5207.3
613.204,5181.0
613.369,5202.2
613.534,5279.5
613.699,5173.7
613.864,5260.9
614.028,5302.9
614.193,5216.6
614.358,5249.6
614.523,5212.0
614.688,5205.6
614.853,5257.5
615.017,5239.0
615.182,5223.6
615.347,5261.5
615.512,5311.7
615.676,5227.2
615.841,5290.9
616.006,5303.2
616.171,5360.3
616.335,5300.5
616.5,5205.1
616.665,5307.6
616.829,5304.8
616.994,5292.2
617.159,5285.0
617.324,5305.8
617.488,5375.3
617.653,5324.2
617.818,5334.9
617.982,5406.4
618.147,5325.5
618.311,5376.3
618.476,5420.9
618.641,5430.1
618.805,5398.1
618.97,5302.8
619.134,5346.6
619.299,5337.6
619.463,5456.3
619.628,5435.4
619.793,5349.8
619.957,5333.6
620.122,5385.0
620.286,5347.6
620.451,5279.8
620.615,5288.3
620.78,5372.8
620.944,5484.2
621.109,5400.8
621.273,5301.5
621.438,5370.7
621.602,5412.6
621.766,5413.2
621.931,5356.2
622.095,5316.0
622.26,5364.7
622.424,5411.6
622.588,5554.9
622.753,5462.5
622.917,5396.0
623.082,5479.4
623.246,5405.3
623.41,5467.5
623.575,5456.7
623.739,5479.4
623.903,5534.6
624.068,5553.6
624.232,5502.2
624.396,5551.5
624.56,5626.9
624.725,5599.4
624.889,5638.4
625.053,5610.3
625.218,5594.8
625.382,5538.5
625.546,5551.3
625.71,5558.2
625.874,5590.8
626.039,5510.3
626.203,5568.6
626.367,5554.2
626.531,5572.0
626.695,5648.0
626.86,5497.1
627.024,5603.3
627.188,5617.5
627.352,5671.9
627.516,5629.5
627.68,5742.1
627.844,5682.5
628.008,5750.7
628.172,5932.9
628.337,5949.1
628.501,5916.2
628.665,6064.2
628.829,6116.6
628.993,6098.7
629.157,6106.2
629.321,6159.7
629.485,6223.0
629.649,6107.2
629.813,6087.9
629.977,6070.9
630.141,5956.1
630.305,5990.4
630.469,6092.0
630.633,6260.3
630.797,6427.3
630.961,6561.7
631.124,6944.9
631.288,7270.7
631.452,7709.1
631.616,8091.5
631.78,7996.0
631.944,7803.9
632.108,7718.8
632.272,7367.9
632.436,7358.6
632.599,6999.8
632.763,6938.2
632.927,6936.1
633.091,7028.8
633.255,6913.0
633.418,6861.8
633.582,6815.9
633.746,6580.3
633.91,6597.9
634.074,6552.8
634.237,6410.0
634.401,6300.7
634.565,6333.9
634.728,6206.0
634.892,6409.4
635.056,6475.2
635.22,6364.5
635.383,6452.5
635.547,6629.5
635.711,6745.2
635.874,7014.5
636.038,7461.2
636.202,7904.3
636.365,8491.6
636.529,8617.8
636.692,8343.5
636.856,7613.9
637.02,7240.9
637.183,6951.6
637.347,6817.2
637.51,6574.5
637.674,6521.1
637.837,6467.8
638.001,6494.1
638.164,6371.7
638.328,6470.7
638.491,6342.4
638.655,6247.8
638.818,6375.4
638.982,6390.6
639.145,6425.3
639.309,6290.1
639.472,6259.5
639.636,6249.1
639.799,6361.3
639.963,6447.7
640.126,6361.1
640.289,6345.1
640.453,6050.0
640.616,6364.9
640.78,6250.0
640.943,6289.7
641.106,6237.6
641.27,6358.4
641.433,6395.6
641.596,6388.0
641.76,6302.4
641.923,6435.3
642.086,6622.6
642.249,6512.9
642.413,6562.7
642.576,6476.1
642.739,6454.9
642.903,6276.4
643.066,6421.9
643.229,6316.6
643.392,6402.4
643.555,6279.9
643.719,6461.8
643.882,6406.0
644.045,6361.3
644.208,6441.0
644.371,6204.2
644.534,6465.2
644.698,6330.8
644.861,6326.2
645.024,6499.7
645.187,6304.0
645.35,6403.5
645.513,6425.3
645.676,6433.0
645.839,6512.7
646.002,6380.7
646.165,6290.0
646.329,6270.8
646.492,6402.1
646.655,6265.7
646.818,6417.0
646.981,6566.0
647.144,6342.4
647.307,6460.3
647.47,6410.6
647.633,6361.1
647.796,6279.5
647.958,6413.9
648.121,6459.6
648.284,6079.5
648.447,6254.3
648.61,6364.0
648.773,6287.8
648.936,6325.6
649.099,6584.5
649.262,6193.2
649.425,6086.0
649.587,6262.3
649.75,6447.0
649.913,6273.6
650.076,6083.4
650.239,6169.1
650.402,6454.2
650.564,6401.3
650.727,6290.3
650.89,6293.8
651.053,6364.2
651.215,6268.5
651.378,6074.3
651.541,6183.0
651.704,6201.4
651.866,6119.4
652.029,6170.4
652.192,6222.2
652.354,6168.5
652.517,6105.2
652.68,6243.8
652.842,6250.4
653.005,5948.3
653.168,6048.3
653.33,6249.3
653.493,6011.6
653.656,5990.4
653.818,6074.2
653.981,6106.1
654.143,6085.2
654.306,6106.5
654.468,5980.7
654.631,5875.9
654.794,5956.3
654.956,6029.8
655.119,6034.1
655.281,6071.6
655.444,5914.4
655.606,5838.0
655.769,5914.1
655.931,6018.2
656.093,5979.3
656.256,5890.1
656.418,5925.4
656.581,5905.0
656.743,5795.3
656.906,5836.8
657.068,5852.6
657.23,6055.3
657.393,5790.7
657.555,5678.8
657.718,5918.6
657.88,5776.1
658.042,5646.5
658.205,5705.5
658.367,5708.0
658.529,5768.5
658.691,5579.6
658.854,5615.7
659.016,5615.4
659.178,5594.8
659.341,5517.3
659.503,5481.6
659.665,5460.8
659.827,5491.6
659.989,5566.3
660.152,5410.3
660.314,5445.4
660.476,5546.0
660.638,5498.6
660.8,5356.4
660.963,5463.7
661.044,5485.6