File: spectra/VLFR_08-PLA_bio_Raman_a14ee3c1.csv
nm,Intensity
528.65,1854.7
528.819,1854.05
528.987,1854.3
529.155,1855.55
529.324,1855.0
529.492,1856.5
529.66,1856.6
529.829,1855.4
529.997,1854.35
530.165,1854.7
530.334,1854.45
530.502,1853.65
530.67,1854.6
530.839,1857.2
531.007,1856.85
531.175,1856.95
531.344,1858.65
531.512,1860.8
531.68,1870.65
531.848,2047.8
532.017,2695.45
532.185,2510.05
532.353,1914.15
532.521,1859.65
532.69,1861.6
532.858,1862.65
533.026,1865.5
533.194,1870.15
533.363,1892.85
533.531,2089.65
533.699,3359.55
533.867,5756.8
534.036,7201.65
534.204,7846.3
534.372,7802.05
534.54,8070.3
534.708,8293.1
534.877,8453.6
535.045,8771.6
535.213,8978.5
535.381,8999.6
535.549,9235.8
535.717,9262.85
535.886,9124.3
536.054,8997.85
536.222,9100.7
536.39,9318.9
536.558,9365.15
536.726,9405.75
536.894,9513.8
537.062,9637.4
537.231,9878.1
537.399,9871.5
537.567,10078.0
537.735,10025.0
537.903,9970.05
538.071,9995.4
538.239,10139.8
538.407,10025.3
538.575,10037.7
538.743,10279.3
538.911,10147.1
539.079,10391.3
539.247,10573.3
539.415,10457.3
539.583,10724.9
539.751,10823.4
539.919,10915.5
540.087,10704.5
540.255,10720.3
540.423,11091.2
540.591,11409.3
540.759,11289.0
540.927,11079.2
541.095,11233.0
541.263,11321.9
541.431,11350.7
541.599,11402.8
541.767,11526.0
541.935,11657.5
542.103,11517.0
542.271,11927.1
542.439,11889.3
542.607,12036.4
542.775,12014.5
542.943,12250.5
543.111,12023.2
543.279,12246.8
543.446,12271.7
543.614,12458.2
543.782,12312.8
543.95,12353.2
544.118,12629.0
544.286,12507.6
544.454,12687.7
544.622,12808.7
544.789,12793.9
544.957,13010.7
545.125,12843.3
545.293,13039.0
545.461,13036.5
545.629,13025.8
545.796,13282.7
545.964,13282.8
546.132,13261.6
546.3,13279.4
546.468,13594.8
546.635,13354.1
546.803,13646.7
546.971,13669.9
547.139,13707.2
547.306,13812.3
547.474,13709.2
547.642,13910.1
547.81,13697.5
547.977,13931.2
548.145,14338.0
548.313,14324.3
548.481,14132.3
548.648,14455.2
548.816,14254.8
548.984,14709.0
549.151,14481.8
549.319,14378.0
549.487,14599.5
549.655,14416.3
549.822,14563.7
549.99,14554.2
550.158,14713.6
550.325,14556.1
550.493,14590.8
550.66,14792.0
550.828,14872.2
550.996,15076.7
551.163,15338.3
551.331,15381.2
551.499,15350.4
551.666,15503.8
551.834,15448.5
552.001,15755.0
552.169,15402.1
552.337,15570.5
552.504,15872.3
552.672,15554.0
552.839,15734.8
553.007,15680.4
553.174,15483.7
553.342,15732.4
553.509,16164.2
553.677,15648.3
553.844,15905.4
554.012,16070.0
554.179,16315.3
554.347,16061.8
554.514,16306.0
554.682,16364.0
554.849,16544.3
555.017,16586.9
555.184,16333.9
555.352,16581.6
555.519,16823.0
555.687,16658.3
555.854,16703.4
556.022,16798.2
556.189,16832.2
556.357,16699.6
556.524,16599.5
556.691,16761.9
556.859,17000.3
557.026,17174.2
557.194,16918.6
557.361,16830.0
557.528,16778.8
557.696,17444.4
557.863,17146.4
558.031,17181.5
558.198,17718.2
558.365,17337.8
558.533,17302.1
558.7,17580.2
558.867,17441.8
559.035,17750.9
559.202,17632.1
559.369,17769.3
559.537,17617.0
559.704,17936.4
559.871,17974.5
560.038,17826.7
560.206,17754.3
560.373,17853.9
560.54,18172.7
560.708,18184.0
560.875,18266.3
561.042,18259.4
561.209,18402.9
561.377,18323.5
561.544,18413.3
561.711,18574.7
561.878,18647.3
562.045,18403.5
562.213,18196.8
562.38,18876.3
562.547,18717.2
562.714,18770.0
562.881,18843.7
563.049,18601.7
563.216,18867.4
563.383,18741.8
563.55,18957.7
563.717,18960.3
563.884,18964.6
564.052,19003.1
564.219,19156.2
564.386,19145.8
564.553,19247.8
564.72,19709.0
564.887,19675.0
565.054,19356.1
565.221,19530.3
565.388,19907.9
565.556,19615.9
565.723,19445.8
565.89,19775.3
566.057,19547.8
566.224,19905.8
566.391,19938.6
566.558,19748.9
566.725,19549.1
566.892,19982.8
567.059,19742.6
567.226,19886.4
567.393,19979.8
567.56,19771.9
567.727,19702.5
567.894,20147.1
568.061,19982.5
568.228,20231.4
568.395,20178.2
568.562,20522.3
568.729,20240.7
568.896,20510.9
569.063,20357.6
569.23,20686.5
569.396,20761.5
569.563,20270.8
569.73,20700.3
569.897,20595.3
570.064,20651.7
570.231,20601.7
570.398,20934.2
570.565,20574.2
570.732,20892.0
570.898,21282.2
571.065,20689.3
571.232,20775.1
571.399,20835.3
571.566,21172.7
571.733,21516.0
571.9,21398.9
572.066,21209.5
572.233,20977.3
572.4,21555.1
572.567,21311.4
572.734,21619.8
572.9,21468.5
573.067,21630.1
573.234,21362.8
573.401,21510.6
573.567,21464.3
573.734,21094.4
573.901,21605.6
574.068,21486.9
574.234,21486.7
574.401,21152.3
574.568,21735.8
574.734,21428.1
574.901,21627.0
575.068,21627.3
575.235,21817.7
575.401,21708.1
575.568,21696.5
575.735,21856.2
575.901,21650.8
576.068,21872.2
576.235,22115.6
576.401,21899.8
576.568,22133.6
576.734,21807.1
576.901,21787.0
577.068,22434.8
577.234,21831.8
577.401,21889.6
577.567,22372.8
577.734,21900.2
577.901,21925.9
578.067,22260.1
578.234,21335.9
578.4,21839.4
578.567,22103.8
578.733,21974.0
578.9,21802.3
579.066,22340.3
579.233,22287.0
579.399,22385.1
579.566,22345.7
579.732,22366.8
579.899,22351.3
580.065,22365.3
580.232,22325.8
580.398,22207.8
580.565,22821.7
580.731,23024.9
580.898,22464.2
581.064,22362.8
581.231,22581.9
581.397,22399.3
581.563,22820.1
581.73,22545.4
581.896,22759.2
582.063,22645.3
582.229,22624.7
582.395,22498.1
582.562,22792.7
582.728,22130.0
582.895,22243.9
583.061,22644.9
583.227,22422.6
583.394,22841.9
583.56,22806.5
583.726,22532.2
583.893,22593.7
584.059,22939.8
584.225,22374.9
584.391,22715.1
584.558,22785.1
584.724,22317.3
584.89,22797.8
585.057,22790.3
585.223,22750.3
585.389,22357.1
585.555,22382.1
585.722,22400.3
585.888,22629.2
586.054,22626.7
586.22,22338.1
586.386,22713.8
586.553,22513.4
586.719,22245.3
586.885,22647.1
587.051,22639.1
587.217,22788.9
587.384,23346.3
587.55,22740.3
587.716,22864.8
587.882,22980.7
588.048,23410.9
588.214,22462.6
588.38,23081.4
588.546,22935.3
588.713,22499.7
588.879,22996.7
589.045,23129.3
589.211,22784.7
589.377,22619.0
589.543,22762.8
589.709,22553.6
589.875,22672.9
590.041,22764.3
590.207,22868.3
590.373,22708.3
590.539,23160.8
590.705,22819.4
590.871,22871.9
591.037,23012.6
591.203,22865.2
591.369,23038.1
591.535,23043.7
591.701,22878.1
591.867,23177.8
592.033,23240.9
592.199,23292.3
592.365,23207.5
592.531,23368.3
592.697,22975.6
592.863,23094.0
593.029,23055.6
593.195,22899.3
593.361,23270.3
593.526,23194.8
593.692,22735.4
593.858,22920.1
594.024,22692.2
594.19,23092.9
594.356,23226.2
594.522,23314.8
594.687,22897.2
594.853,22827.8
595.019,23219.7
595.185,23231.9
595.351,23336.2
595.516,23467.2
595.682,23351.1
595.848,23579.8
596.014,23263.3
596.18,23028.6
596.345,23083.1
596.511,23546.8
596.677,23376.3
596.843,23667.1
597.008,23165.6
597.174,23537.6
597.34,23303.9
597.505,23024.3
597.671,23098.0
597.837,23492.7
598.002,23442.4
598.168,23581.0
598.334,23242.8
598.499,23399.8
598.665,23340.8
598.831,23177.3
598.996,23411.1
599.162,23445.6
599.328,23584.4
599.493,23756.4
599.659,23554.8
599.824,23093.9
599.99,23251.8
600.156,23606.9
600.321,23367.8
600.487,23494.3
600.652,24033.7
600.818,23247.6
600.983,23478.1
601.149,23112.8
601.314,23846.1
601.48,23214.3
601.645,23446.3
601.811,23971.1
601.976,23309.4
602.142,23411.1
602.307,23264.8
602.473,23458.6
602.638,23643.3
602.804,23727.1
602.969,23291.1
603.135,23917.9
603.3,23183.4
603.466,23683.9
603.631,23490.3
603.796,23218.5
603.962,23573.6
604.127,23358.2
604.293,23433.8
604.458,23445.7
604.623,23214.2
604.789,23237.3
604.954,23647.1
605.119,23390.2
605.285,23825.3
605.45,23385.1
605.615,23042.4
605.781,23062.4
605.946,23319.7
606.111,23324.4
606.277,23568.8
606.442,23436.7
606.607,23459.9
606.772,23409.7
606.938,23339.8
607.103,23428.9
607.268,23381.2
607.433,23596.3
607.599,23489.6
607.764,23474.3
607.929,23167.9
608.094,23577.8
608.259,23075.3
608.425,23732.2
608.59,23314.2
608.755,22961.4
608.92,23510.0
609.085,23156.8
609.25,22937.9
609.415,23225.3
609.581,23330.7
609.746,23049.8
609.911,23635.5
610.076,23453.1
610.241,23035.3
610.406,23377.8
610.571,23288.5
610.736,23316.7
610.901,22981.3
611.066,23461.4
611.231,23664.7
611.396,23337.6
611.561,23646.9
611.727,23153.6
611.892,23187.1
612.057,23353.2
612.222,23210.6
612.386,23529.3
612.551,23120.6
612.716,23116.8
612.881,22871.9
613.046,23297.3
613.211,23027.8
613.376,23399.0
613.541,22729.6
613.706,22996.0
613.871,23204.3
614.036,23152.4
614.201,23453.3
614.366,23247.3
614.531,23336.2
614.695,22694.9
614.86,22496.4
615.025,23217.3
615.19,23467.1
615.355,23491.3
615.52,22798.7
615.684,22974.3
615.849,23005.6
616.014,23033.1
616.179,23015.1
616.344,22595.8
616.508,22644.5
616.673,22558.1
616.838,22338.1
617.003,23437.2
617.168,22653.9
617.332,22918.9
617.497,22447.1
617.662,22414.2
617.826,23047.2
617.991,22554.6
618.156,23354.7
618.32,22641.4
618.485,22632.8
618.65,22729.7
618.814,22369.9
618.979,22288.9
619.144,23190.3
619.308,22968.8
619.473,22825.7
619.638,22510.6
619.802,22844.2
619.967,22648.8
620.131,22582.8
620.296,22862.7
620.461,22577.7
620.625,22031.3
620.79,23057.2
620.954,22357.7
621.119,22698.3
621.283,22140.3
621.448,22427.6
621.612,22075.3
621.777,22173.8
621.941,22270.1
622.106,22444.5
622.27,21981.1
622.435,22540.1
622.599,21901.9
622.764,22482.9
622.928,22307.3
623.093,22300.3
623.257,22333.3
623.422,22091.5
623.586,21845.3
623.75,22219.3
623.915,22232.1
624.079,22141.5
624.244,21903.7
624.408,22541.7
624.572,22668.2
624.737,21704.0
624.901,21510.9
625.065,22532.8
625.23,21901.8
625.394,21709.2
625.558,21966.4
625.723,21597.6
625.887,21548.3
626.051,22035.7
626.215,22042.4
626.38,21224.0
626.544,21284.4
626.708,22238.9
626.872,21871.8
627.037,21475.2
627.201,21330.3
627.365,21519.7
627.529,21576.3
627.693,21379.9
627.858,22008.0
628.022,21784.1
628.186,21786.3
628.35,21762.1
628.514,21955.3
628.678,21245.3
628.843,21511.9
629.007,21377.2
629.171,21899.8
629.335,21213.9
629.499,21948.3
629.663,21888.8
629.827,21141.1
629.991,21491.8
630.155,21277.3
630.319,21240.3
630.483,20979.7
630.647,21055.6
630.812,21771.3
630.976,21166.8
631.14,21065.5
631.304,21328.4
631.468,21193.2
631.632,20660.0
631.796,21132.8
631.959,20939.2
632.123,20864.3
632.287,20914.5
632.451,20376.6
632.615,20680.7
632.779,20791.2
632.943,21274.6
633.107,20588.6
633.271,20549.3
633.435,20990.5
633.599,20558.2
633.763,20426.7
633.926,20770.2
634.09,20139.8
634.254,20664.8
634.418,20056.7
634.582,20159.2
634.746,20803.3
634.909,20048.4
635.073,20315.1
635.237,20031.4
635.401,20094.9
635.564,19598.8
635.728,20054.9
635.892,19958.8
636.056,19910.3
636.219,19754.3
636.383,19200.6
636.547,19936.6
636.711,19602.1
636.874,19600.7
637.038,19891.2
637.202,19379.9
637.365,19577.7
637.529,19313.7
637.693,20052.3
637.856,19570.6
638.02,19145.6
638.184,19303.1
638.347,19734.7
638.511,19507.9
638.674,19057.0
638.838,19371.5
639.002,18934.1
639.165,19262.1
639.329,19391.6
639.492,19127.3
639.656,18742.1
639.819,18516.3
639.983,19262.8
640.146,19141.0
640.31,18646.8
640.473,18376.6
640.637,18850.8
640.8,18590.2
640.964,18374.0
641.127,18063.3
641.291,18634.2
641.454,18374.7
641.618,18438.2
641.781,18031.7
641.944,18347.7
642.108,18277.6
642.271,18281.4
642.435,18251.2
642.598,18035.8
642.761,17642.7
642.925,18149.6
643.088,17494.7
643.251,18459.6
643.415,18104.8
643.578,17675.3
643.741,17578.5
643.905,17604.2
644.068,18050.7
644.231,17859.5
644.394,17745.2
644.558,17334.8
644.721,17331.0
644.884,17002.1
645.047,17526.9
645.211,17788.4
645.374,17620.3
645.537,18121.7
645.7,17099.4
645.863,16903.2
646.027,17186.7
646.19,17012.8
646.353,17117.4
646.516,17249.0
646.679,16734.3
646.842,16913.6
647.005,17022.2
647.169,17001.8
647.332,17190.8
647.495,16314.2
647.658,17113.7
647.821,16765.3
647.984,16564.3
648.147,16725.2
648.31,16915.1
648.473,16334.4
648.636,15785.7
648.799,16282.5
648.962,16254.1
649.125,16067.5
649.288,15927.0
649.451,15907.3
649.614,15775.1
649.777,16091.3
649.94,15919.5
650.103,15930.7
650.266,16116.6
650.429,15813.5
650.592,15681.6
650.755,15284.5
650.918,15643.3
651.08,15658.3
651.243,15619.0
651.406,15534.5
651.569,15560.3
651.732,15422.8
651.895,15354.9
652.058,15048.9
652.22,15405.8
652.383,15306.4
652.546,15260.3
652.709,14896.5
652.872,15030.0
653.034,14749.8
653.197,14982.5
653.36,14173.2
653.523,14269.3
653.685,14825.0
653.848,14537.2
654.011,14380.2
654.173,14530.5
654.336,14532.3
654.499,14564.2
654.662,14025.8
654.824,14217.2
654.987,14166.9
655.149,14012.0
655.312,14569.5
655.475,13941.7
655.637,13887.4
655.8,14009.5
655.963,13874.4
656.125,14021.5
656.288,13756.3
656.45,13726.3
656.613,13770.8
656.775,13822.4
656.938,13610.5
657.1,13660.4
657.263,13986.0
657.425,13459.2
657.588,13573.3
657.75,12880.5
657.913,13502.1
658.075,13300.5
658.238,12955.4
658.4,12972.4
658.563,12894.7
658.725,12887.7
658.888,12975.7
659.05,12763.2
659.212,12818.1
659.375,12798.3
659.537,12776.6
659.7,12653.6
659.862,12603.2
660.024,12720.3
660.187,12571.5
660.349,12753.8
660.511,12165.5
660.674,12548.8
660.836,12323.5
660.998,12233.5
661.079,12182.1