File: spectra/VLFR_02-HDPE_bio_Raman_9e77d582.csv
nm,Intensity
528.626,1862.8
528.795,1861.6
528.963,1862.0
529.132,1863.2
529.3,1863.2
529.469,1863.0
529.637,1863.1
529.806,1863.8
529.974,1863.0
530.143,1863.0
530.311,1862.0
530.48,1863.4
530.648,1864.3
530.816,1862.8
530.985,1864.4
531.153,1866.2
531.322,1869.7
531.49,1879.6
531.658,1922.3
531.827,3054.5
531.995,7234.9
532.164,5882.6
532.332,2335.0
532.5,1872.9
532.669,1868.6
532.837,1867.1
533.006,1864.6
533.174,1866.3
533.342,1867.1
533.511,1878.8
533.679,1970.4
533.847,2129.5
534.016,2263.7
534.184,2296.6
534.352,2292.0
534.521,2281.9
534.689,2306.9
534.857,2323.8
535.025,2332.2
535.194,2355.2
535.362,2316.9
535.53,2309.4
535.699,2318.6
535.867,2321.8
536.035,2309.8
536.203,2293.6
536.372,2286.5
536.54,2239.9
536.708,2217.3
536.876,2217.1
537.044,2231.5
537.213,2273.7
537.381,2272.6
537.549,2269.7
537.717,2254.1
537.885,2245.1
538.054,2253.1
538.222,2241.6
538.39,2234.5
538.558,2224.2
538.726,2209.1
538.894,2202.2
539.063,2197.6
539.231,2199.2
539.399,2203.3
539.567,2179.3
539.735,2190.8
539.903,2201.8
540.071,2204.5
540.239,2193.5
540.408,2184.3
540.576,2180.4
540.744,2222.0
540.912,2194.5
541.08,2220.7
541.248,2204.4
541.416,2190.5
541.584,2201.1
541.752,2208.7
541.92,2204.4
542.088,2209.3
542.256,2208.1
542.424,2214.2
542.592,2216.9
542.76,2201.6
542.928,2206.0
543.096,2213.8
543.264,2208.9
543.432,2200.6
543.6,2226.1
543.768,2275.9
543.936,2349.0
544.104,2454.7
544.272,2385.8
544.44,2260.3
544.608,2214.7
544.776,2217.2
544.944,2232.6
545.112,2240.1
545.28,2218.8
545.448,2209.0
545.616,2228.0
545.784,2255.3
545.951,2292.3
546.119,2332.3
546.287,2502.0
546.455,2627.6
546.623,2521.3
546.791,2339.4
546.959,2289.6
547.127,2269.6
547.294,2250.9
547.462,2234.7
547.63,2215.0
547.798,2244.8
547.966,2238.6
548.134,2238.4
548.301,2248.0
548.469,2260.2
548.637,2246.2
548.805,2254.1
548.972,2273.9
549.14,2254.7
549.308,2287.2
549.476,2294.1
549.644,2291.8
549.811,2305.6
549.979,2336.7
550.147,2378.9
550.315,2382.3
550.482,2330.0
550.65,2299.2
550.818,2268.8
550.985,2245.9
551.153,2243.9
551.321,2235.1
551.488,2248.3
551.656,2252.7
551.824,2280.1
551.991,2277.1
552.159,2260.4
552.327,2250.8
552.494,2245.8
552.662,2238.9
552.83,2248.7
552.997,2260.8
553.165,2268.5
553.333,2264.5
553.5,2260.0
553.668,2252.1
553.835,2277.9
554.003,2272.4
554.171,2279.0
554.338,2264.7
554.506,2275.9
554.673,2283.6
554.841,2292.2
555.008,2294.8
555.176,2283.4
555.343,2279.6
555.511,2295.0
555.679,2275.9
555.846,2273.8
556.014,2291.8
556.181,2278.7
556.349,2288.6
556.516,2287.5
556.684,2289.4
556.851,2289.6
557.018,2299.2
557.186,2282.5
557.353,2299.2
557.521,2315.2
557.688,2300.3
557.856,2297.2
558.023,2316.3
558.191,2332.3
558.358,2325.4
558.525,2321.1
558.693,2300.2
558.86,2280.4
559.028,2308.8
559.195,2309.5
559.362,2302.3
559.53,2296.6
559.697,2311.9
559.864,2299.0
560.032,2310.7
560.199,2302.0
560.366,2300.6
560.534,2309.5
560.701,2330.6
560.868,2312.2
561.036,2333.7
561.203,2342.8
561.37,2333.3
561.538,2352.3
561.705,2413.9
561.872,2520.1
562.039,3045.7
562.207,4170.9
562.374,4451.7
562.541,3205.8
562.708,2475.2
562.876,2397.1
563.043,2380.4
563.21,2376.9
563.377,2368.8
563.545,2389.8
563.712,2521.2
563.879,2770.7
564.046,2913.9
564.213,2677.1
564.38,2462.7
564.548,2442.7
564.715,2442.1
564.882,2411.2
565.049,2384.1
565.216,2403.7
565.383,2423.3
565.551,2403.1
565.718,2470.1
565.885,2671.7
566.052,3109.0
566.219,3259.0
566.386,2941.4
566.553,2596.2
566.72,2503.5
566.887,2426.4
567.054,2367.8
567.221,2376.7
567.388,2411.8
567.555,2410.7
567.722,2373.0
567.889,2353.4
568.057,2340.0
568.224,2314.6
568.391,2341.4
568.558,2316.2
568.725,2313.9
568.892,2343.0
569.058,2337.4
569.225,2331.8
569.392,2343.6
569.559,2353.2
569.726,2347.7
569.893,2346.8
570.06,2338.2
570.227,2350.7
570.394,2369.4
570.561,2364.9
570.728,2368.4
570.895,2380.2
571.062,2408.6
571.229,2581.1
571.395,3016.7
571.562,3404.8
571.729,2936.5
571.896,2552.2
572.063,2464.7
572.23,2444.3
572.397,2398.2
572.563,2378.0
572.73,2345.4
572.897,2360.5
573.064,2346.9
573.231,2349.0
573.397,2350.4
573.564,2352.4
573.731,2376.5
573.898,2415.7
574.064,2403.3
574.231,2376.2
574.398,2330.0
574.565,2348.7
574.731,2327.0
574.898,2346.4
575.065,2372.6
575.232,2466.4
575.398,2724.4
575.565,2895.5
575.732,2769.9
575.898,2659.9
576.065,2743.6
576.232,2928.2
576.398,2912.0
576.565,2796.2
576.732,2763.5
576.898,2748.2
577.065,2712.8
577.232,2625.3
577.398,2541.0
577.565,2458.3
577.731,2412.7
577.898,2398.6
578.065,2372.7
578.231,2356.1
578.398,2341.4
578.564,2344.7
578.731,2348.7
578.897,2369.8
579.064,2354.9
579.23,2363.9
579.397,2363.2
579.563,2373.7
579.73,2347.3
579.896,2367.4
580.063,2367.6
580.229,2362.9
580.396,2374.2
580.562,2368.9
580.729,2364.9
580.895,2376.7
581.062,2367.9
581.228,2374.4
581.395,2377.0
581.561,2372.0
581.728,2379.1
581.894,2394.3
582.06,2385.1
582.227,2391.9
582.393,2389.8
582.56,2388.5
582.726,2387.7
582.892,2383.3
583.059,2397.3
583.225,2396.2
583.391,2403.4
583.558,2402.1
583.724,2401.4
583.89,2414.0
584.057,2392.6
584.223,2407.1
584.389,2394.9
584.556,2412.5
584.722,2417.7
584.888,2404.3
585.054,2396.3
585.221,2399.0
585.387,2399.8
585.553,2390.9
585.719,2402.9
585.886,2412.1
586.052,2402.2
586.218,2395.7
586.384,2410.8
586.55,2406.5
586.717,2414.8
586.883,2414.4
587.049,2433.3
587.215,2423.6
587.381,2417.3
587.548,2419.4
587.714,2441.8
587.88,2433.7
588.046,2418.9
588.212,2412.5
588.378,2410.6
588.544,2420.9
588.71,2394.4
588.876,2381.7
589.043,2368.0
589.209,2390.3
589.375,2378.6
589.541,2397.8
589.707,2379.9
589.873,2390.8
590.039,2392.9
590.205,2406.2
590.371,2422.1
590.537,2402.2
590.703,2408.1
590.869,2411.8
591.035,2410.2
591.201,2434.2
591.367,2421.6
591.533,2417.7
591.699,2412.2
591.865,2429.7
592.031,2416.8
592.197,2423.0
592.363,2419.2
592.529,2421.2
592.694,2440.7
592.86,2418.4
593.026,2432.9
593.192,2403.8
593.358,2422.7
593.524,2436.9
593.69,2442.4
593.856,2425.9
594.021,2413.4
594.187,2429.6
594.353,2429.3
594.519,2443.8
594.685,2435.4
594.851,2425.9
595.016,2441.6
595.182,2466.3
595.348,2462.5
595.514,2461.8
595.68,2465.5
595.845,2452.4
596.011,2480.2
596.177,2493.6
596.342,2482.9
596.508,2486.4
596.674,2472.7
596.84,2477.1
597.005,2493.2
597.171,2492.9
597.337,2506.8
597.502,2498.9
597.668,2504.7
597.834,2484.5
597.999,2551.2
598.165,2508.7
598.331,2516.0
598.496,2516.6
598.662,2545.6
598.828,2538.4
598.993,2533.1
599.159,2526.4
599.324,2552.0
599.49,2573.3
599.656,2548.5
599.821,2583.3
599.987,2546.2
600.152,2535.3
600.318,2563.4
600.483,2568.8
600.649,2546.0
600.814,2556.9
600.98,2581.9
601.145,2549.1
601.311,2570.4
601.476,2563.4
601.642,2576.8
601.807,2575.7
601.973,2549.9
602.138,2569.4
602.304,2563.2
602.469,2545.4
602.635,2565.1
602.8,2546.2
602.965,2555.4
603.131,2557.8
603.296,2541.0
603.462,2550.7
603.627,2552.9
603.792,2550.0
603.958,2559.6
604.123,2516.0
604.288,2536.0
604.454,2542.8
604.619,2522.0
604.784,2540.4
604.95,2531.4
605.115,2523.4
605.28,2525.8
605.446,2500.5
605.611,2501.0
605.776,2513.2
605.941,2509.1
606.107,2495.4
606.272,2485.4
606.437,2486.9
606.602,2493.5
606.767,2498.3
606.933,2484.7
607.098,2504.5
607.263,2487.0
607.428,2460.9
607.593,2480.9
607.759,2455.0
607.924,2463.0
608.089,2443.9
608.254,2454.8
608.419,2462.8
608.584,2444.2
608.749,2450.8
608.915,2437.2
609.08,2437.1
609.245,2434.1
609.41,2457.5
609.575,2449.5
609.74,2444.3
609.905,2439.1
610.07,2441.7
610.235,2433.4
610.4,2431.1
610.565,2450.1
610.73,2448.8
610.895,2462.0
611.06,2456.1
611.225,2458.5
611.39,2463.0
611.555,2438.6
611.72,2432.0
611.885,2413.7
612.05,2434.8
612.215,2405.2
612.38,2405.8
612.545,2417.3
612.71,2421.3
612.875,2415.2
613.04,2408.9
613.204,2400.9
613.369,2393.7
613.534,2405.9
613.699,2401.2
613.864,2410.7
614.029,2409.4
614.194,2395.8
614.358,2400.1
614.523,2422.6
614.688,2402.0
614.853,2397.9
615.018,2399.3
615.182,2393.3
615.347,2405.0
615.512,2397.5
615.677,2412.3
615.841,2379.6
616.006,2395.2
616.171,2371.3
616.336,2384.9
616.5,2404.8
616.665,2414.5
616.83,2427.3
616.994,2408.7
617.159,2410.0
617.324,2427.7
617.489,2449.0
617.653,2420.5
617.818,2423.1
617.982,2447.5
618.147,2458.5
618.312,2409.3
618.476,2437.4
618.641,2420.2
618.805,2428.1
618.97,2423.8
619.135,2422.6
619.299,2440.0
619.464,2440.0
619.628,2454.2
619.793,2461.2
619.957,2445.8
620.122,2426.7
620.286,2421.1
620.451,2447.9
620.615,2477.7
620.78,2464.5
620.944,2458.9
621.109,2463.5
621.273,2488.3
621.438,2500.0
621.602,2532.4
621.767,2592.2
621.931,2573.8
622.095,2638.4
622.26,2663.3
622.424,2614.7
622.589,2597.4
622.753,2543.3
622.917,2476.5
623.082,2466.8
623.246,2432.3
623.41,2440.0
623.575,2437.9
623.739,2429.8
623.903,2419.4
624.068,2427.8
624.232,2415.9
624.396,2406.7
624.561,2406.2
624.725,2429.9
624.889,2429.7
625.053,2439.2
625.218,2440.8
625.382,2420.5
625.546,2437.7
625.71,2471.3
625.875,2498.5
626.039,2552.5
626.203,2622.5
626.367,2774.7
626.531,3038.1
626.695,3635.3
626.86,4593.5
627.024,5660.7
627.188,6251.0
627.352,6136.4
627.516,5605.6
627.68,5065.4
627.844,4731.8
628.008,4711.8
628.172,4970.6
628.337,5721.9
628.501,6478.0
628.665,5867.8
628.829,4909.5
628.993,4564.1
629.157,4375.9
629.321,4256.7
629.485,4160.1
629.649,3891.3
629.813,3678.9
629.977,3625.9
630.141,3548.0
630.305,3549.4
630.469,3457.8
630.633,3353.2
630.797,3183.4
630.96,2906.8
631.124,2759.3
631.288,2611.3
631.452,2546.3
631.616,2501.9
631.78,2486.2
631.944,2445.0
632.108,2446.5
632.272,2417.7
632.435,2405.7
632.599,2387.0
632.763,2411.1
632.927,2382.5
633.091,2378.6
633.254,2367.2
633.418,2359.3
633.582,2365.0
633.746,2340.8
633.91,2357.2
634.073,2348.8
634.237,2351.3
634.401,2343.8
634.564,2326.2
634.728,2334.3
634.892,2349.6
635.056,2329.7
635.219,2330.7
635.383,2314.9
635.547,2334.5
635.71,2320.5
635.874,2297.2
636.038,2303.0
636.201,2307.6
636.365,2309.3
636.528,2320.2
636.692,2317.2
636.856,2300.2
637.019,2290.8
637.183,2305.5
637.346,2300.1
637.51,2295.9
637.673,2298.8
637.837,2294.6
638.0,2294.3
638.164,2309.8
638.327,2295.2
638.491,2294.6
638.654,2289.3
638.818,2294.7
638.981,2286.0
639.145,2277.8
639.308,2287.6
639.472,2292.3
639.635,2273.1
639.799,2286.0
639.962,2266.8
640.125,2284.7
640.289,2273.7
640.452,2279.2
640.616,2273.7
640.779,2264.9
640.942,2273.9
641.106,2281.5
641.269,2280.2
641.432,2273.4
641.596,2278.8
641.759,2271.1
641.922,2272.0
642.085,2263.3
642.249,2271.8
642.412,2264.3
642.575,2276.5
642.738,2277.9
642.902,2282.3
643.065,2267.4
643.228,2246.3
643.391,2268.1
643.555,2290.6
643.718,2273.8
643.881,2278.4
644.044,2274.2
644.207,2282.9
644.37,2286.6
644.534,2278.4
644.697,2265.1
644.86,2262.3
645.023,2264.9
645.186,2278.1
645.349,2275.0
645.512,2268.5
645.675,2273.0
645.838,2257.0
646.001,2247.7
646.164,2267.1
646.327,2268.8
646.49,2271.8
646.653,2274.5
646.816,2269.9
646.979,2274.5
647.142,2274.4
647.305,2278.6
647.468,2265.3
647.631,2265.9
647.794,2276.2
647.957,2263.8
648.12,2267.5
648.283,2277.5
648.446,2287.0
648.609,2287.1
648.772,2304.1
648.935,2312.9
649.098,2329.0
649.26,2335.0
649.423,2353.6
649.586,2395.0
649.749,2427.9
649.912,2414.0
650.075,2415.8
650.237,2380.2
650.4,2380.0
650.563,2378.2
650.726,2311.2
650.888,2307.6
651.051,2310.5
651.214,2297.9
651.377,2275.9
651.539,2241.5
651.702,2238.3
651.865,2254.6
652.027,2254.5
652.19,2264.1
652.353,2241.7
652.515,2239.8
652.678,2237.4
652.841,2254.2
653.003,2221.9
653.166,2237.7
653.329,2241.4
653.491,2238.2
653.654,2233.6
653.816,2219.0
653.979,2232.3
654.142,2220.5
654.304,2224.7
654.467,2189.5
654.629,2200.0
654.792,2201.9
654.954,2198.0
655.117,2202.1
655.279,2196.9
655.442,2194.1
655.604,2189.4
655.767,2182.0
655.929,2188.4
656.091,2168.7
656.254,2141.0
656.416,2138.5
656.579,2170.6
656.741,2179.5
656.904,2174.4
657.066,2187.6
657.228,2170.3
657.391,2175.8
657.553,2171.2
657.715,2166.6
657.878,2178.3
658.04,2182.5
658.202,2168.1
658.365,2164.2
658.527,2172.3
658.689,2174.4
658.851,2162.1
659.014,2162.6
659.176,2147.0
659.338,2150.8
659.5,2153.7
659.663,2162.7
659.825,2164.2
659.987,2147.1
660.149,2142.9
660.311,2152.2
660.474,2142.2
660.636,2150.1
660.798,2155.1
660.96,2141.8
661.041,2140.5