File: spectra/VLFR_06-PET_bio_Raman_6af04281.csv
nm,Intensity
528.65,1844.65
528.819,1844.1
528.987,1844.55
529.155,1845.3
529.324,1843.85
529.492,1844.35
529.66,1844.55
529.829,1844.65
529.997,1844.45
530.165,1845.4
530.334,1845.45
530.502,1844.8
530.67,1845.9
530.839,1845.55
531.007,1847.25
531.175,1846.45
531.344,1850.05
531.512,1854.6
531.68,1881.35
531.848,2280.2
532.017,4510.55
532.185,3617.0
532.353,2078.95
532.521,1852.8
532.69,1857.25
532.858,1855.75
533.026,1860.7
533.194,1875.25
533.363,1924.5
533.531,2438.65
533.699,5550.6
533.867,11592.5
534.036,15266.5
534.204,14884.2
534.372,13667.9
534.54,12482.4
534.708,11476.0
534.877,10422.8
535.045,9391.05
535.213,8592.7
535.381,7526.0
535.549,6823.95
535.717,6121.2
535.886,5347.5
536.054,4968.15
536.222,4602.85
536.39,4358.55
536.558,4181.5
536.726,4130.75
536.894,3961.3
537.062,3824.0
537.231,3749.55
537.399,3726.35
537.567,3692.0
537.735,3643.05
537.903,3644.75
538.071,3707.55
538.239,3727.3
538.407,3673.7
538.575,3668.45
538.743,3659.05
538.911,3680.8
539.079,3704.85
539.247,3827.2
539.415,3870.2
539.583,3956.2
539.751,4097.05
539.919,4038.0
540.087,3936.85
540.255,3794.95
540.423,3595.45
540.591,3514.15
540.759,3457.5
540.927,3412.8
541.095,3324.2
541.263,3326.7
541.431,3289.85
541.599,3277.4
541.767,3323.6
541.935,3300.55
542.103,3302.3
542.271,3305.2
542.439,3325.25
542.607,3314.6
542.775,3317.65
542.943,3320.45
543.111,3329.3
543.279,3304.95
543.446,3350.95
543.614,3410.9
543.782,3394.0
543.95,3472.5
544.118,3423.1
544.286,3374.55
544.454,3330.35
544.622,3402.2
544.789,3400.3
544.957,3420.0
545.125,3386.05
545.293,3402.95
545.461,3443.1
545.629,3397.5
545.796,3409.4
545.964,3455.5
546.132,3460.25
546.3,3457.65
546.468,3439.55
546.635,3476.0
546.803,3537.2
546.971,3493.8
547.139,3515.65
547.306,3506.75
547.474,3503.4
547.642,3560.6
547.81,3568.6
547.977,3602.05
548.145,3579.55
548.313,3583.15
548.481,3581.7
548.648,3589.0
548.816,3594.95
548.984,3565.9
549.151,3567.1
549.319,3577.15
549.487,3608.55
549.655,3590.05
549.822,3576.85
549.99,3606.7
550.158,3644.7
550.325,3921.75
550.493,4894.35
550.66,5815.55
550.828,4921.25
550.996,3850.15
551.163,3807.55
551.331,3800.7
551.499,3780.9
551.666,3787.8
551.834,3732.6
552.001,3797.15
552.169,3833.8
552.337,3857.3
552.504,3916.3
552.672,4387.25
552.839,4618.45
553.007,4376.8
553.174,4049.1
553.342,3867.45
553.509,3893.15
553.677,3922.15
553.844,3970.55
554.012,3946.55
554.179,3927.85
554.347,3960.25
554.514,3902.25
554.682,3989.35
554.849,4033.05
555.017,4080.0
555.184,4171.05
555.352,4461.1
555.519,4822.25
555.687,5098.2
555.854,4989.45
556.022,5043.55
556.189,5123.4
556.357,5156.95
556.524,5280.85
556.691,5279.4
556.859,5365.2
557.026,5645.1
557.194,6301.7
557.361,7257.25
557.528,7848.55
557.696,7444.4
557.863,6299.1
558.031,5676.25
558.198,5591.95
558.365,5682.15
558.533,5560.25
558.7,5313.35
558.867,5207.05
559.035,4905.7
559.202,4645.2
559.369,4525.4
559.537,4489.8
559.704,4411.95
559.871,4459.85
560.038,4458.45
560.206,4437.75
560.373,4466.55
560.54,4494.85
560.708,4470.95
560.875,4502.95
561.042,4577.95
561.209,4632.75
561.377,4728.8
561.544,4734.0
561.711,4714.5
561.878,4830.45
562.045,4986.65
562.213,4947.75
562.38,4944.6
562.547,4986.85
562.714,5126.85
562.881,5169.35
563.049,5181.1
563.216,5148.3
563.383,5135.45
563.55,5023.1
563.717,5006.9
563.884,4925.5
564.052,4894.55
564.219,5031.1
564.386,5060.7
564.553,5242.5
564.72,5430.45
564.887,5641.05
565.054,6108.75
565.221,6425.6
565.388,6620.6
565.556,6844.6
565.723,7177.35
565.89,7276.6
566.057,6790.0
566.224,6226.85
566.391,5705.45
566.558,5409.1
566.725,5307.85
566.892,5289.35
567.059,5260.15
567.226,5304.8
567.393,5668.55
567.56,6203.35
567.727,6387.05
567.894,6028.55
568.061,5672.3
568.228,5378.4
568.395,5344.0
568.562,5381.2
568.729,5308.2
568.896,5357.1
569.063,5300.0
569.23,5409.8
569.396,5489.45
569.563,5674.7
569.73,5800.55
569.897,5808.6
570.064,6053.35
570.231,6372.45
570.398,6880.3
570.565,7463.05
570.732,8110.95
570.898,8781.35
571.065,9647.4
571.232,10413.0
571.399,10236.1
571.566,9447.6
571.733,8539.25
571.9,7834.65
572.066,7438.05
572.233,6847.2
572.4,6374.45
572.567,6182.8
572.734,5953.5
572.9,5758.55
573.067,5881.5
573.234,5839.0
573.401,5788.6
573.567,5822.8
573.734,5927.75
573.901,6136.05
574.068,6138.9
574.234,6111.15
574.401,5935.05
574.568,5997.05
574.734,5971.2
574.901,6104.2
575.068,6279.9
575.235,6582.0
575.401,6553.9
575.568,6397.1
575.735,6138.7
575.901,6148.1
576.068,6278.2
576.235,6478.4
576.401,6702.4
576.568,6727.25
576.734,6742.8
576.901,6719.55
577.068,6443.85
577.234,6321.8
577.401,6111.8
577.567,6078.35
577.734,6076.85
577.901,6023.85
578.067,5939.75
578.234,6066.45
578.4,6220.65
578.567,6086.3
578.733,5935.0
578.9,6189.5
579.066,6121.2
579.233,6012.35
579.399,6194.35
579.566,6208.5
579.732,6154.15
579.899,6286.15
580.065,6289.8
580.232,6284.95
580.398,6311.0
580.565,6428.95
580.731,6582.9
580.898,6636.55
581.064,6722.1
581.231,6907.75
581.397,7124.65
581.563,8029.55
581.73,10238.9
581.896,15359.5
582.063,22013.0
582.229,22129.1
582.395,13885.8
582.562,8569.9
582.728,7110.75
582.895,6805.95
583.061,6766.9
583.227,6677.8
583.394,6654.05
583.56,6601.55
583.726,6614.15
583.893,6643.1
584.059,6698.45
584.225,6751.35
584.391,6886.35
584.558,6758.8
584.724,6989.25
584.89,7081.55
585.057,7190.3
585.223,7891.8
585.389,9420.95
585.555,12176.7
585.722,14923.8
585.888,16550.7
586.054,16361.7
586.22,15097.8
586.386,12720.8
586.553,10786.3
586.719,8800.2
586.885,7759.2
587.051,7438.1
587.217,7207.55
587.384,6987.95
587.55,6990.65
587.716,6978.25
587.882,6869.45
588.048,6920.45
588.214,6779.65
588.38,6917.45
588.546,6939.65
588.713,6759.85
588.879,6877.45
589.045,6876.65
589.211,6836.75
589.377,6823.6
589.543,6832.65
589.709,6841.9
589.875,6862.5
590.041,6762.35
590.207,6797.05
590.373,6793.55
590.539,6748.65
590.705,6840.9
590.871,6790.55
591.037,6808.7
591.203,6904.05
591.369,6888.25
591.535,6890.6
591.701,6989.85
591.867,6898.4
592.033,6865.8
592.199,6921.05
592.365,7045.4
592.531,7008.15
592.697,6866.05
592.863,6801.05
593.029,7039.25
593.195,7026.6
593.361,6974.15
593.526,6892.9
593.692,6862.7
593.858,6995.95
594.024,7011.1
594.19,6877.0
594.356,7035.45
594.522,7059.9
594.687,6949.5
594.853,6996.4
595.019,7057.25
595.185,7006.0
595.351,7193.6
595.516,7073.6
595.682,7110.55
595.848,7181.55
596.014,7027.55
596.18,7098.55
596.345,7077.3
596.511,7097.4
596.677,7294.8
596.843,7154.2
597.008,7134.25
597.174,7143.75
597.34,7153.5
597.505,7211.85
597.671,7207.4
597.837,7100.75
598.002,7118.0
598.168,7169.2
598.334,6961.35
598.499,7254.9
598.665,7309.9
598.831,7317.3
598.996,7188.5
599.162,7162.2
599.328,7225.2
599.493,7239.15
599.659,7260.0
599.824,7258.1
599.99,7376.1
600.156,7247.8
600.321,7181.25
600.487,7207.7
600.652,7362.1
600.818,7284.3
600.983,7306.1
601.149,7298.3
601.314,7251.65
601.48,7397.2
601.645,7332.6
601.811,7266.05
601.976,7242.7
602.142,7265.6
602.307,7309.65
602.473,7297.65
602.638,7278.15
602.804,7264.95
602.969,7426.85
603.135,7449.35
603.3,7289.8
603.466,7195.65
603.631,7290.35
603.796,7263.5
603.962,7464.45
604.127,7386.5
604.293,7294.65
604.458,7491.8
604.623,7306.75
604.789,7225.8
604.954,7163.9
605.119,7361.55
605.285,7464.9
605.45,7366.25
605.615,7318.25
605.781,7415.7
605.946,7320.1
606.111,7289.55
606.277,7343.95
606.442,7399.75
606.607,7446.35
606.772,7378.65
606.938,7395.25
607.103,7476.8
607.268,7386.85
607.433,7242.15
607.599,7415.3
607.764,7541.3
607.929,7440.05
608.094,7374.25
608.259,7363.85
608.425,7386.6
608.59,7410.95
608.755,7431.0
608.92,7412.85
609.085,7501.7
609.25,7408.1
609.415,7331.45
609.581,7383.25
609.746,7328.55
609.911,7498.6
610.076,7420.95
610.241,7471.2
610.406,7373.15
610.571,7493.6
610.736,7372.5
610.901,7301.8
611.066,7579.05
611.231,7293.25
611.396,7442.0
611.561,7455.05
611.727,7430.9
611.892,7472.45
612.057,7425.3
612.222,7328.3
612.386,7444.05
612.551,7411.95
612.716,7333.8
612.881,7405.65
613.046,7442.25
613.211,7367.1
613.376,7509.15
613.541,7268.15
613.706,7518.1
613.871,7489.65
614.036,7617.1
614.201,7503.6
614.366,7501.15
614.531,7394.35
614.695,7523.05
614.86,7550.7
615.025,7498.7
615.19,7541.35
615.355,7460.6
615.52,7521.85
615.684,7516.8
615.849,7346.95
616.014,7399.35
616.179,7621.15
616.344,7616.35
616.508,7548.5
616.673,7526.4
616.838,7415.8
617.003,7659.2
617.168,7575.25
617.332,7585.15
617.497,7663.15
617.662,7644.35
617.826,7676.2
617.991,7720.35
618.156,7517.3
618.32,7607.5
618.485,7686.05
618.65,7675.05
618.814,7774.15
618.979,7602.55
619.144,7600.85
619.308,7707.65
619.473,7569.7
619.638,7597.95
619.802,7582.7
619.967,7595.8
620.131,7551.8
620.296,7709.5
620.461,7591.2
620.625,7536.65
620.79,7494.1
620.954,7609.4
621.119,7653.7
621.283,7615.95
621.448,7540.05
621.612,7588.15
621.777,7554.1
621.941,7736.2
622.106,7556.2
622.27,7550.4
622.435,7773.55
622.599,7576.2
622.764,7740.2
622.928,7647.8
623.093,7663.0
623.257,7789.75
623.422,7819.85
623.586,7675.55
623.75,7631.2
623.915,7653.5
624.079,7725.3
624.244,7737.9
624.408,7847.6
624.572,7906.8
624.737,7932.9
624.901,7996.2
625.065,7751.95
625.23,7914.65
625.394,7740.9
625.558,7872.6
625.723,7894.35
625.887,7807.8
626.051,7679.5
626.215,7902.15
626.38,7830.8
626.544,7810.2
626.708,7869.9
626.872,7988.8
627.037,7694.75
627.201,7850.35
627.365,7848.85
627.529,8006.4
627.693,7858.4
627.858,8118.05
628.022,7911.35
628.186,8286.0
628.35,8217.55
628.514,8230.25
628.678,8361.95
628.843,8534.6
629.007,8538.85
629.171,8572.15
629.335,8430.45
629.499,8599.75
629.663,8666.65
629.827,8520.15
629.991,8267.7
630.155,8327.85
630.319,8570.9
630.483,8490.55
630.647,8580.5
630.812,8851.1
630.976,9107.55
631.14,9943.75
631.304,10569.8
631.468,11004.3
631.632,11321.7
631.796,11187.2
631.959,11385.8
632.123,10832.4
632.287,10333.8
632.451,10291.5
632.615,9848.3
632.779,9636.75
632.943,9818.9
633.107,9645.4
633.271,9614.05
633.435,9585.65
633.599,9529.8
633.763,9294.55
633.926,9318.95
634.09,8881.3
634.254,9116.05
634.418,8761.35
634.582,8706.0
634.746,8905.65
634.909,8868.3
635.073,8613.6
635.237,8931.0
635.401,9023.95
635.564,9129.15
635.728,9682.65
635.892,10019.3
636.056,10546.7
636.219,11418.7
636.383,11867.6
636.547,12280.7
636.711,11749.0
636.874,10865.3
637.038,10675.5
637.202,9969.35
637.365,9391.3
637.529,9148.25
637.693,9047.9
637.856,9067.9
638.02,9192.5
638.184,8911.95
638.347,9032.35
638.511,8916.65
638.674,8825.15
638.838,8768.6
639.002,8890.7
639.165,8932.85
639.329,8937.2
639.492,8693.05
639.656,8796.05
639.819,8754.35
639.983,8987.1
640.146,8884.85
640.31,8664.2
640.473,8866.6
640.637,8716.2
640.8,8753.3
640.964,8834.5
641.127,8957.7
641.291,8792.5
641.454,8710.35
641.618,9003.65
641.781,8809.35
641.944,8853.45
642.108,8997.7
642.271,8925.75
642.435,9121.4
642.598,9108.5
642.761,8970.7
642.925,8831.65
643.088,8900.95
643.251,8981.6
643.415,8690.4
643.578,8866.15
643.741,8782.55
643.905,9114.65
644.068,8968.95
644.231,8765.45
644.394,8741.6
644.558,8770.3
644.721,9129.95
644.884,8761.9
645.047,8805.8
645.211,9146.1
645.374,8995.5
645.537,8887.9
645.7,8884.15
645.863,8880.15
646.027,8915.8
646.19,8763.95
646.353,8702.95
646.516,8706.75
646.679,9315.65
646.842,8958.5
647.005,8818.15
647.169,8808.2
647.332,9098.55
647.495,9001.55
647.658,8870.0
647.821,8757.8
647.984,8852.95
648.147,9006.2
648.31,8822.8
648.473,8812.7
648.636,8851.1
648.799,8622.85
648.962,8881.65
649.125,8754.7
649.288,8785.6
649.451,8469.25
649.614,8808.0
649.777,8842.35
649.94,8721.1
650.103,8911.85
650.266,8523.8
650.429,8760.4
650.592,8877.8
650.755,8583.65
650.918,8657.65
651.08,8598.25
651.243,8891.7
651.406,8576.45
651.569,8545.15
651.732,8631.25
651.895,8730.9
652.058,8698.05
652.22,8508.9
652.383,8564.1
652.546,8517.65
652.709,8618.9
652.872,8619.5
653.034,8566.3
653.197,8454.9
653.36,8468.2
653.523,8408.05
653.685,8263.85
653.848,8476.0
654.011,8400.35
654.173,8363.65
654.336,8274.25
654.499,8288.0
654.662,8197.7
654.824,8331.85
654.987,8231.85
655.149,8439.25
655.312,8269.7
655.475,8415.1
655.637,8448.35
655.8,8247.35
655.963,8279.1
656.125,8290.3
656.288,8428.8
656.45,8138.35
656.613,8331.4
656.775,8072.0
656.938,8123.35
657.1,8301.0
657.263,8145.85
657.425,8004.3
657.588,7799.6
657.75,8073.9
657.913,8016.05
658.075,7977.55
658.238,7648.4
658.4,7987.8
658.563,7949.8
658.725,7900.5
658.888,7725.85
659.05,7777.6
659.212,8064.05
659.375,7786.8
659.537,7881.85
659.7,7784.75
659.862,7701.7
660.024,7798.25
660.187,7870.45
660.349,7479.75
660.511,7693.7
660.674,7750.35
660.836,7555.5
660.998,7585.75
661.079,7471.45