File: spectra/VLFR_06-PET_bio_Raman_0457d4d7.csv
nm,Intensity
528.635,1841.2
528.803,1842.2
528.972,1842.6
529.14,1841.3
529.308,1844.2
529.477,1840.4
529.645,1843.1
529.814,1839.8
529.982,1841.9
530.151,1843.4
530.319,1843.0
530.487,1841.6
530.656,1842.7
530.824,1842.0
530.993,1843.1
531.161,1848.1
531.329,1848.2
531.498,1854.9
531.666,1887.7
531.835,2430.6
532.003,4559.5
532.171,4280.4
532.34,2061.6
532.508,1850.0
532.676,1850.0
532.845,1852.0
533.013,1856.8
533.181,1866.2
533.35,1900.0
533.518,2219.9
533.686,4503.5
533.854,8675.8
534.023,10794.7
534.191,10430.8
534.359,9423.1
534.528,8831.7
534.696,8231.5
534.864,7668.3
535.032,6793.5
535.201,6081.9
535.369,5663.3
535.537,5205.6
535.705,4632.1
535.874,4202.7
536.042,3890.2
536.21,3650.3
536.378,3493.5
536.546,3385.6
536.715,3342.2
536.883,3159.1
537.051,3186.1
537.219,3130.3
537.387,3120.6
537.556,3077.8
537.724,3051.0
537.892,3038.7
538.06,3084.1
538.228,3080.6
538.396,3091.4
538.565,3071.9
538.733,3114.7
538.901,3071.3
539.069,3103.9
539.237,3149.8
539.405,3199.2
539.573,3260.8
539.741,3351.2
539.909,3348.9
540.077,3258.7
540.246,3125.7
540.414,3047.4
540.582,3007.4
540.75,2898.5
540.918,2878.4
541.086,2832.3
541.254,2819.2
541.422,2821.5
541.59,2779.3
541.758,2809.0
541.926,2825.0
542.094,2805.1
542.262,2835.0
542.43,2808.8
542.598,2794.9
542.766,2838.4
542.934,2826.3
543.102,2809.2
543.27,2807.5
543.438,2817.7
543.606,2847.1
543.774,2913.7
543.942,2876.5
544.11,2867.4
544.278,2869.3
544.445,2864.1
544.613,2868.1
544.781,2843.4
544.949,2872.9
545.117,2859.2
545.285,2881.9
545.453,2877.0
545.621,2933.6
545.789,2889.7
545.957,2873.9
546.124,2901.7
546.292,2938.8
546.46,2911.5
546.628,2910.6
546.796,2923.5
546.964,2923.7
547.131,2962.0
547.299,2949.4
547.467,2941.9
547.635,2993.0
547.803,2961.4
547.97,2955.9
548.138,2995.9
548.306,3019.9
548.474,3025.4
548.642,3012.2
548.809,2993.4
548.977,2987.5
549.145,3006.1
549.313,2972.1
549.48,2990.9
549.648,2979.2
549.816,2996.7
549.983,3043.1
550.151,3048.3
550.319,3229.3
550.487,3835.3
550.654,4559.7
550.822,3828.5
550.99,3187.0
551.157,3104.2
551.325,3148.0
551.493,3091.6
551.66,3117.4
551.828,3097.9
551.996,3130.7
552.163,3173.6
552.331,3183.6
552.499,3192.9
552.666,3535.3
552.834,3735.1
553.001,3564.0
553.169,3261.2
553.337,3158.8
553.504,3227.0
553.672,3176.6
553.839,3221.2
554.007,3222.2
554.174,3194.4
554.342,3247.3
554.509,3217.8
554.677,3274.8
554.845,3288.0
555.012,3297.8
555.18,3397.1
555.347,3569.2
555.515,3817.0
555.682,4026.7
555.85,3921.9
556.017,3952.9
556.185,3978.1
556.352,4011.4
556.52,4043.2
556.687,4075.4
556.854,4131.9
557.022,4291.9
557.189,4705.7
557.357,5382.3
557.524,5870.7
557.692,5428.2
557.859,4653.3
558.026,4311.1
558.194,4309.8
558.361,4410.6
558.529,4257.8
558.696,4172.1
558.863,4055.7
559.031,3841.6
559.198,3722.2
559.365,3611.1
559.533,3545.6
559.7,3587.0
559.867,3584.6
560.035,3572.7
560.202,3530.8
560.369,3563.7
560.537,3551.9
560.704,3596.7
560.871,3593.4
561.039,3659.4
561.206,3687.3
561.373,3720.2
561.54,3699.5
561.708,3762.9
561.875,3757.0
562.042,3889.3
562.209,3967.1
562.377,3899.9
562.544,3932.1
562.711,3990.2
562.878,4049.4
563.046,4076.9
563.213,4050.5
563.38,3994.1
563.547,3964.9
563.714,3922.8
563.881,3884.4
564.049,3903.7
564.216,3907.7
564.383,4000.5
564.55,4050.3
564.717,4216.9
564.884,4413.3
565.052,4679.9
565.219,4972.9
565.386,5115.1
565.553,5298.0
565.72,5361.7
565.887,5349.0
566.054,5151.8
566.221,4743.5
566.388,4486.1
566.555,4229.5
566.722,4159.4
566.889,4038.5
567.056,4083.0
567.224,4166.0
567.391,4403.2
567.558,4761.5
567.725,4908.6
567.892,4682.1
568.059,4283.1
568.226,4186.2
568.393,4151.9
568.56,4200.9
568.727,4122.7
568.893,4141.1
569.06,4146.0
569.227,4177.8
569.394,4259.9
569.561,4392.5
569.728,4480.4
569.895,4510.9
570.062,4594.9
570.229,4885.9
570.396,5222.4
570.563,5635.0
570.73,6035.4
570.897,6518.4
571.063,7085.2
571.23,7436.2
571.397,7509.6
571.564,7082.0
571.731,6185.6
571.898,5910.7
572.064,5588.1
572.231,5316.4
572.398,4904.9
572.565,4722.3
572.732,4624.0
572.899,4528.4
573.065,4559.3
573.232,4477.9
573.399,4442.6
573.566,4501.7
573.732,4635.9
573.899,4792.3
574.066,4799.8
574.233,4657.3
574.399,4658.8
574.566,4678.3
574.733,4592.6
574.9,4712.8
575.066,4845.7
575.233,5101.1
575.4,5148.6
575.566,4892.5
575.733,4751.4
575.9,4761.4
576.066,4972.8
576.233,5080.8
576.4,5097.4
576.566,5199.2
576.733,5180.9
576.899,5119.3
577.066,5032.1
577.233,4886.7
577.399,4749.2
577.566,4750.8
577.732,4751.9
577.899,4703.8
578.066,4699.1
578.232,4738.9
578.399,4778.7
578.565,4772.5
578.732,4726.1
578.898,4729.9
579.065,4759.4
579.231,4827.8
579.398,4830.2
579.564,4866.2
579.731,4837.0
579.897,4921.2
580.064,4873.3
580.23,4934.5
580.397,4921.2
580.563,4996.8
580.73,5049.1
580.896,5250.5
581.063,5207.3
581.229,5244.3
581.396,5536.5
581.562,6147.5
581.728,7785.2
581.895,11207.7
582.061,15748.3
582.228,15152.5
582.394,10028.9
582.56,6466.4
582.727,5574.3
582.893,5305.6
583.059,5168.7
583.226,5227.0
583.392,5115.6
583.558,5072.0
583.725,5192.5
583.891,5185.1
584.057,5152.8
584.224,5258.2
584.39,5254.7
584.556,5327.1
584.722,5354.7
584.889,5492.2
585.055,5557.9
585.221,6202.0
585.387,7070.8
585.554,8737.2
585.72,10768.6
585.886,11728.2
586.052,11611.4
586.219,10586.2
586.385,9303.0
586.551,7835.3
586.717,6464.0
586.883,5832.2
587.049,5684.0
587.216,5392.8
587.382,5504.6
587.548,5391.4
587.714,5379.4
587.88,5326.5
588.046,5323.7
588.212,5285.3
588.379,5336.2
588.545,5349.4
588.711,5331.7
588.877,5342.3
589.043,5322.3
589.209,5288.9
589.375,5399.4
589.541,5207.4
589.707,5260.0
589.873,5367.7
590.039,5286.3
590.205,5223.5
590.371,5240.3
590.537,5243.9
590.703,5297.5
590.869,5329.7
591.035,5224.8
591.201,5390.6
591.367,5289.0
591.533,5406.3
591.699,5331.4
591.865,5365.2
592.031,5334.4
592.197,5362.1
592.363,5321.0
592.529,5445.4
592.695,5359.3
592.86,5358.5
593.026,5411.3
593.192,5424.1
593.358,5435.3
593.524,5383.4
593.69,5399.3
593.856,5384.9
594.022,5430.1
594.187,5338.9
594.353,5387.6
594.519,5423.3
594.685,5468.5
594.851,5435.2
595.016,5487.3
595.182,5413.1
595.348,5543.6
595.514,5465.3
595.679,5583.5
595.845,5505.0
596.011,5478.1
596.177,5519.2
596.342,5480.2
596.508,5435.5
596.674,5545.2
596.84,5530.6
597.005,5578.3
597.171,5517.7
597.337,5493.0
597.502,5495.8
597.668,5578.2
597.834,5488.4
597.999,5541.8
598.165,5549.0
598.331,5533.0
598.496,5536.2
598.662,5574.3
598.827,5449.2
598.993,5541.5
599.159,5497.4
599.324,5654.3
599.49,5569.6
599.655,5595.4
599.821,5528.6
599.987,5590.5
600.152,5626.0
600.318,5586.8
600.483,5670.0
600.649,5506.8
600.814,5609.0
600.98,5637.2
601.145,5671.7
601.311,5617.9
601.476,5726.7
601.642,5630.3
601.807,5543.0
601.973,5680.3
602.138,5665.3
602.303,5659.5
602.469,5704.2
602.634,5632.9
602.8,5541.3
602.965,5685.8
603.13,5597.3
603.296,5695.5
603.461,5772.2
603.627,5612.4
603.792,5548.3
603.957,5737.0
604.123,5713.8
604.288,5562.0
604.453,5769.5
604.619,5747.3
604.784,5632.6
604.949,5667.6
605.115,5706.0
605.28,5613.4
605.445,5662.3
605.61,5682.3
605.776,5673.5
605.941,5659.3
606.106,5704.0
606.272,5725.4
606.437,5709.0
606.602,5694.8
606.767,5783.6
606.932,5661.4
607.098,5710.7
607.263,5784.3
607.428,5717.8
607.593,5675.0
607.758,5740.0
607.923,5700.5
608.089,5731.7
608.254,5748.3
608.419,5722.7
608.584,5710.6
608.749,5720.6
608.914,5714.5
609.079,5734.2
609.244,5750.2
609.41,5655.5
609.575,5773.5
609.74,5759.0
609.905,5727.5
610.07,5704.5
610.235,5730.9
610.4,5817.8
610.565,5767.2
610.73,5727.5
610.895,5824.4
611.06,5697.5
611.225,5766.5
611.39,5720.4
611.555,5828.6
611.72,5736.8
611.885,5756.1
612.05,5779.7
612.215,5800.6
612.38,5840.7
612.545,5742.2
612.709,5769.3
612.874,5795.0
613.039,5775.9
613.204,5838.0
613.369,5766.9
613.534,5835.9
613.699,5865.2
613.864,5823.9
614.028,5827.9
614.193,5952.7
614.358,5813.6
614.523,5881.7
614.688,5825.1
614.853,5897.8
615.017,5792.1
615.182,5856.5
615.347,5890.1
615.512,5904.2
615.676,5880.2
615.841,5833.7
616.006,5900.2
616.171,5964.7
616.335,5943.4
616.5,5913.7
616.665,5935.5
616.829,6002.5
616.994,5860.6
617.159,5935.4
617.324,5985.1
617.488,6002.8
617.653,6000.7
617.818,6047.3
617.982,6038.0
618.147,6152.2
618.311,6040.2
618.476,6068.6
618.641,6088.0
618.805,6067.2
618.97,5939.8
619.134,6094.4
619.299,6094.0
619.463,6134.5
619.628,6028.2
619.793,6013.6
619.957,6059.6
620.122,6032.1
620.286,6062.2
620.451,6060.4
620.615,6085.5
620.78,6053.8
620.944,6039.5
621.109,6065.1
621.273,5998.2
621.438,6081.0
621.602,6228.1
621.766,6083.4
621.931,6025.6
622.095,6061.4
622.26,6022.5
622.424,6161.9
622.588,6328.3
622.753,6176.1
622.917,6169.9
623.082,6162.1
623.246,6116.1
623.41,6147.4
623.575,6293.2
623.739,6198.4
623.903,6159.1
624.068,6306.7
624.232,6324.5
624.396,6300.6
624.56,6346.6
624.725,6533.3
624.889,6392.0
625.053,6376.5
625.218,6312.4
625.382,6384.2
625.546,6320.2
625.71,6389.2
625.874,6360.4
626.039,6296.8
626.203,6347.2
626.367,6333.4
626.531,6313.6
626.695,6343.4
626.86,6310.4
627.024,6446.0
627.188,6358.9
627.352,6434.1
627.516,6558.8
627.68,6442.7
627.844,6428.3
628.008,6476.3
628.172,6642.2
628.337,6654.5
628.501,6779.9
628.665,6767.9
628.829,6945.3
628.993,6926.9
629.157,6953.2
629.321,7051.8
629.485,6989.4
629.649,6891.2
629.813,6813.8
629.977,6869.3
630.141,7020.8
630.305,6838.1
630.469,6888.5
630.633,7000.8
630.797,7329.8
630.961,7571.2
631.124,7858.4
631.288,8292.2
631.452,8621.4
631.616,8801.7
631.78,9003.3
631.944,8680.5
632.108,8575.2
632.272,8322.8
632.436,8130.5
632.599,7839.7
632.763,8103.1
632.927,7740.5
633.091,7845.5
633.255,7706.4
633.418,7685.3
633.582,7660.1
633.746,7533.1
633.91,7499.6
634.074,7444.9
634.237,7307.6
634.401,7320.8
634.565,7235.2
634.728,7232.9
634.892,7226.1
635.056,7288.3
635.22,7374.8
635.383,7530.3
635.547,7409.8
635.711,7729.9
635.874,8202.8
636.038,8436.4
636.202,8781.2
636.365,9119.2
636.529,9466.4
636.692,9301.2
636.856,8885.6
637.02,8352.9
637.183,7965.2
637.347,7732.9
637.51,7622.7
637.674,7509.8
637.837,7376.7
638.001,7298.0
638.164,7437.8
638.328,7406.9
638.491,7165.7
638.655,7319.7
638.818,7450.6
638.982,7296.5
639.145,7288.3
639.309,7304.7
639.472,7369.8
639.636,7333.3
639.799,7318.3
639.963,7360.4
640.126,7220.1
640.289,7292.9
640.453,7290.3
640.616,7402.2
640.78,7274.2
640.943,7327.3
641.106,7248.5
641.27,7558.2
641.433,7285.8
641.596,7331.0
641.76,7398.2
641.923,7271.7
642.086,7582.5
642.249,7583.6
642.413,7601.9
642.576,7540.3
642.739,7429.2
642.903,7283.7
643.066,7384.5
643.229,7260.1
643.392,7491.1
643.555,7231.1
643.719,7229.5
643.882,7603.6
644.045,7428.4
644.208,7573.9
644.371,7408.3
644.534,7288.1
644.698,7205.2
644.861,7548.9
645.024,7507.9
645.187,7448.2
645.35,7237.5
645.513,7522.0
645.676,7462.7
645.839,7508.8
646.002,7428.5
646.165,7366.4
646.329,7323.2
646.492,7613.5
646.655,7546.9
646.818,7329.5
646.981,7401.1
647.144,7457.2
647.307,7438.3
647.47,7592.6
647.633,7372.2
647.796,7460.4
647.958,7431.1
648.121,7406.5
648.284,7363.3
648.447,7439.4
648.61,7308.6
648.773,7184.4
648.936,7350.5
649.099,7503.0
649.262,7223.2
649.425,7253.9
649.587,7219.1
649.75,7378.8
649.913,7360.4
650.076,7074.1
650.239,7350.7
650.402,7285.6
650.564,7254.6
650.727,7453.3
650.89,7026.1
651.053,7102.7
651.215,7135.6
651.378,7388.0
651.541,7275.5
651.704,7097.0
651.866,7381.9
652.029,7285.5
652.192,7023.8
652.354,7062.6
652.517,7135.0
652.68,7171.7
652.842,7108.3
653.005,7109.0
653.168,6985.8
653.33,7014.5
653.493,6984.7
653.656,6998.7
653.818,7130.1
653.981,7018.7
654.143,7030.7
654.306,6853.2
654.468,6919.6
654.631,6851.2
654.794,6727.5
654.956,6887.1
655.119,7086.1
655.281,7126.3
655.444,6886.3
655.606,6813.0
655.769,6967.3
655.931,6925.8
656.093,6852.8
656.256,6860.3
656.418,6881.3
656.581,6880.3
656.743,6775.7
656.906,6677.6
657.068,6628.2
657.23,6851.8
657.393,6689.6
657.555,6748.1
657.718,6733.7
657.88,6570.9
658.042,6461.2
658.205,6651.7
658.367,6605.8
658.529,6348.2
658.691,6466.2
658.854,6524.4
659.016,6461.1
659.178,6460.1
659.341,6429.6
659.503,6385.5
659.665,6233.8
659.827,6333.3
659.989,6317.8
660.152,6298.2
660.314,6259.6
660.476,6231.6
660.638,6259.3
660.8,6357.9
660.963,6424.0
661.044,6237.8