File: spectra/VLFR_02-HDPE_nobio_Raman_dcc606f3.csv
nm,Intensity
526.532,829.967
526.669,830.533
526.805,830.567
526.942,829.9
527.079,829.4
527.216,830.2
527.352,829.6
527.489,829.933
527.625,830.367
527.762,830.1
527.899,829.833
528.035,830.1
528.172,829.667
528.309,830.6
528.445,830.1
528.582,829.9
528.718,829.8
528.855,830.0
528.992,830.367
529.128,830.7
529.265,830.6
529.401,829.8
529.538,829.933
529.674,830.333
529.811,830.6
529.947,830.0
530.084,829.3
530.22,829.8
530.357,830.667
530.493,830.433
530.63,829.967
530.766,829.8
530.903,830.3
531.039,830.067
531.176,830.333
531.312,829.533
531.449,829.967
531.585,829.567
531.721,829.2
531.858,829.933
531.994,834.6
532.131,852.2
532.267,846.7
532.403,833.1
532.54,830.1
532.676,830.067
532.812,830.033
532.949,830.333
533.085,830.533
533.221,830.667
533.358,829.4
533.494,830.167
533.63,830.6
533.767,838.933
533.903,869.733
534.039,901.567
534.176,912.9
534.312,913.433
534.448,911.6
534.584,913.467
534.721,915.767
534.857,918.833
534.993,917.867
535.129,914.633
535.266,910.433
535.402,899.0
535.538,892.2
535.674,886.4
535.81,879.2
535.947,876.567
536.083,874.233
536.219,871.2
536.355,872.133
536.491,868.967
536.627,867.633
536.764,866.567
536.9,865.7
537.036,865.033
537.172,866.0
537.308,868.333
537.444,867.167
537.58,867.533
537.716,867.067
537.852,868.167
537.988,866.733
538.125,867.2
538.261,865.567
538.397,865.433
538.533,865.333
538.669,864.933
538.805,862.433
538.941,861.367
539.077,860.833
539.213,861.333
539.349,859.8
539.485,860.933
539.621,858.733
539.757,859.2
539.893,857.767
540.029,859.567
540.165,858.133
540.301,856.733
540.437,857.133
540.572,855.333
540.708,857.067
540.844,856.867
540.98,856.7
541.116,857.767
541.252,857.0
541.388,857.133
541.524,856.633
541.66,856.533
541.795,857.467
541.931,857.4
542.067,857.633
542.203,857.133
542.339,857.4
542.475,855.767
542.611,857.8
542.746,857.3
542.882,855.533
543.018,856.1
543.154,855.267
543.289,856.633
543.425,855.067
543.561,855.8
543.697,857.567
543.833,857.833
543.968,856.867
544.104,856.233
544.24,856.167
544.375,857.667
544.511,856.967
544.647,856.867
544.783,856.133
544.918,856.6
545.054,857.667
545.19,857.567
545.325,857.533
545.461,854.767
545.597,855.633
545.732,857.833
545.868,857.533
546.004,858.833
546.139,856.233
546.275,856.233
546.41,855.967
546.546,858.333
546.682,857.1
546.817,858.833
546.953,856.633
547.088,856.467
547.224,857.833
547.36,856.267
547.495,856.767
547.631,855.067
547.766,855.9
547.902,857.433
548.037,857.533
548.173,855.867
548.308,857.033
548.444,856.833
548.579,857.067
548.715,855.867
548.85,856.6
548.986,857.4
549.121,857.0
549.257,856.033
549.392,856.767
549.528,857.733
549.663,856.033
549.798,857.2
549.934,857.733
550.069,856.467
550.205,855.633
550.34,856.433
550.475,856.633
550.611,856.633
550.746,857.533
550.882,857.733
551.017,857.833
551.152,856.967
551.288,856.667
551.423,858.9
551.558,858.233
551.694,857.967
551.829,856.533
551.964,858.6
552.1,857.5
552.235,857.0
552.37,859.4
552.505,857.2
552.641,857.833
552.776,856.133
552.911,855.7
553.047,859.3
553.182,859.667
553.317,860.333
553.452,860.0
553.588,858.767
553.723,861.033
553.858,860.433
553.993,860.867
554.128,861.0
554.264,860.033
554.399,861.1
554.534,860.567
554.669,861.367
554.804,861.9
554.939,860.867
555.075,861.733
555.21,860.267
555.345,860.3
555.48,859.533
555.615,861.867
555.75,862.1
555.885,861.567
556.02,863.2
556.155,861.833
556.291,863.833
556.426,861.633
556.561,862.233
556.696,862.8
556.831,864.367
556.966,862.0
557.101,864.4
557.236,864.6
557.371,864.667
557.506,864.867
557.641,865.3
557.776,867.0
557.911,867.567
558.046,867.4
558.181,866.233
558.316,866.533
558.451,866.1
558.586,866.233
558.721,863.533
558.856,864.267
558.991,863.733
559.126,865.367
559.261,864.767
559.396,863.233
559.531,866.233
559.665,864.067
559.8,863.733
559.935,864.467
560.07,863.133
560.205,863.167
560.34,863.333
560.475,864.033
560.61,864.9
560.745,863.8
560.879,862.467
561.014,863.0
561.149,863.367
561.284,864.667
561.419,861.933
561.553,860.433
561.688,863.967
561.823,863.133
561.958,864.4
562.093,863.233
562.227,866.4
562.362,865.167
562.497,865.9
562.632,864.233
562.767,866.867
562.901,867.633
563.036,868.333
563.171,867.067
563.305,870.133
563.44,870.5
563.575,873.833
563.71,878.4
563.844,907.467
563.979,980.1
564.114,1006.4
564.248,933.8
564.383,892.767
564.518,888.033
564.652,886.3
564.787,884.333
564.922,883.3
565.056,879.3
565.191,878.367
565.325,874.833
565.46,873.333
565.595,874.2
565.729,877.133
565.864,880.133
565.999,903.0
566.133,953.967
566.268,967.633
566.402,916.133
566.537,882.433
566.671,872.933
566.806,871.733
566.94,870.033
567.075,870.9
567.21,872.2
567.344,882.167
567.479,899.833
567.613,892.833
567.748,875.067
567.882,870.867
568.017,867.867
568.151,866.867
568.285,865.733
568.42,866.9
568.554,867.2
568.689,865.567
568.823,865.4
568.958,867.3
569.092,866.867
569.227,867.033
569.361,867.5
569.495,868.667
569.63,868.8
569.764,868.333
569.899,868.467
570.033,868.967
570.167,867.967
570.302,871.6
570.436,870.867
570.571,873.667
570.705,878.433
570.839,875.967
570.974,875.567
571.108,878.967
571.242,886.6
571.377,921.667
571.511,1062.8
571.645,1103.23
571.78,953.933
571.914,906.267
572.048,891.867
572.182,885.333
572.317,881.467
572.451,877.5
572.585,875.233
572.719,870.167
572.854,868.7
572.988,868.367
573.122,868.9
573.256,867.167
573.391,870.133
573.525,867.533
573.659,869.133
573.793,872.667
573.927,880.567
574.062,882.233
574.196,876.533
574.33,870.1
574.464,867.667
574.598,866.8
574.733,866.567
574.867,867.533
575.001,868.067
575.135,870.333
575.269,871.833
575.403,889.033
575.537,926.967
575.671,926.133
575.806,906.033
575.94,910.733
576.074,940.867
576.208,997.867
576.342,1049.03
576.476,1023.73
576.61,969.8
576.744,957.6
576.878,962.667
577.012,969.6
577.146,966.233
577.28,950.733
577.414,925.367
577.548,903.267
577.682,891.0
577.817,882.733
577.951,877.667
578.085,875.4
578.219,872.433
578.353,872.2
578.486,869.3
578.62,869.9
578.754,870.433
578.888,869.0
579.022,869.467
579.156,871.2
579.29,869.5
579.424,869.567
579.558,869.1
579.692,869.933
579.826,868.233
579.96,869.667
580.094,867.167
580.228,870.2
580.362,869.367
580.496,869.467
580.629,868.8
580.763,868.0
580.897,867.333
581.031,867.233
581.165,867.8
581.299,869.367
581.433,869.633
581.566,868.033
581.7,866.767
581.834,868.8
581.968,869.167
582.102,868.433
582.236,869.8
582.369,868.967
582.503,868.133
582.637,870.533
582.771,868.533
582.905,867.7
583.038,869.633
583.172,868.133
583.306,868.767
583.44,868.433
583.573,868.5
583.707,868.0
583.841,869.433
583.975,868.833
584.108,867.7
584.242,868.633
584.376,867.267
584.509,868.7
584.643,869.867
584.777,867.167
584.911,869.1
585.044,869.067
585.178,868.1
585.312,868.9
585.445,869.533
585.579,868.667
585.713,868.333
585.846,867.667
585.98,868.1
586.113,867.767
586.247,867.4
586.381,869.3
586.514,868.0
586.648,869.867
586.782,869.267
586.915,867.3
587.049,869.967
587.182,870.567
587.316,868.833
587.45,869.2
587.583,870.433
587.717,869.1
587.85,869.067
587.984,869.3
588.117,868.233
588.251,868.667
588.384,868.467
588.518,869.3
588.651,868.467
588.785,866.667
588.919,865.1
589.052,864.4
589.186,867.033
589.319,867.833
589.453,866.833
589.586,864.167
589.72,866.433
589.853,868.567
589.986,865.767
590.12,867.8
590.253,869.733
590.387,868.8
590.52,868.967
590.654,867.933
590.787,867.2
590.921,867.8
591.054,868.167
591.187,869.133
591.321,868.2
591.454,868.767
591.588,869.767
591.721,869.233
591.854,869.867
591.988,868.267
592.121,868.567
592.255,867.367
592.388,867.0
592.521,869.5
592.655,869.3
592.788,869.233
592.921,868.767
593.055,867.2
593.188,869.133
593.321,868.7
593.455,868.233
593.588,869.833
593.721,869.367
593.855,871.1
593.988,869.067
594.121,867.433
594.255,869.667
594.388,869.0
594.521,867.7
594.654,868.767
594.788,870.067
594.921,869.167
595.054,870.367
595.187,870.433
595.321,871.233
595.454,871.4
595.587,870.333
595.72,869.133
595.854,870.567
595.987,870.133
596.12,869.733
596.253,871.567
596.387,873.067
596.52,871.867
596.653,871.533
596.786,870.3
596.919,871.2
597.052,873.7
597.186,869.667
597.319,872.767
597.452,871.3
597.585,871.0
597.718,870.033
597.851,871.8
597.985,872.1
598.118,873.167
598.251,873.333
598.384,873.0
598.517,872.9
598.65,872.9
598.783,874.1
598.916,873.533
599.049,873.2
599.183,873.1
599.316,874.433
599.449,874.667
599.582,875.133
599.715,873.433
599.848,874.567
599.981,873.933
600.114,874.833
600.247,873.1
600.38,873.867
600.513,873.367
600.646,874.333
600.779,871.433
600.912,873.933
601.045,874.833
601.178,873.967
601.311,873.833
601.444,874.9
601.577,874.467
601.71,876.7
601.843,878.067
601.976,878.367
602.109,880.933
602.242,879.667
602.375,876.567
602.508,877.833
602.641,875.733
602.774,874.633
602.907,875.567
603.04,876.7
603.173,874.433
603.306,874.9
603.439,874.7
603.572,875.6
603.705,875.7
603.838,875.6
603.971,875.6
604.103,874.233
604.236,874.633
604.369,874.167
604.502,874.733
604.635,874.7
604.768,875.133
604.901,874.533
605.034,873.5
605.167,872.667
605.299,872.767
605.432,872.833
605.565,871.9
605.698,871.567
605.831,871.5
605.964,872.367
606.096,873.267
606.229,872.367
606.362,873.267
606.495,871.467
606.628,871.0
606.761,871.233
606.893,870.7
607.026,870.3
607.159,869.433
607.292,871.8
607.425,871.3
607.557,870.333
607.69,872.067
607.823,870.9
607.956,869.467
608.088,870.867
608.221,870.267
608.354,871.9
608.487,870.6
608.619,874.233
608.752,873.1
608.885,871.133
609.018,871.667
609.15,870.133
609.283,870.7
609.416,870.467
609.548,870.633
609.681,872.667
609.814,871.533
609.947,870.7
610.079,870.733
610.212,870.667
610.345,869.3
610.477,871.6
610.61,871.967
610.743,871.433
610.875,872.467
611.008,871.133
611.141,871.733
611.273,873.667
611.406,872.567
611.539,871.467
611.671,870.8
611.804,871.633
611.936,871.233
612.069,871.333
612.202,867.867
612.334,870.9
612.467,872.067
612.6,871.833
612.732,871.5
612.865,870.567
612.997,872.133
613.13,869.967
613.263,871.167
613.395,871.367
613.528,873.4
613.66,869.633
613.793,870.867
613.925,871.2
614.058,871.467
614.19,871.2
614.323,870.667
614.456,873.233
614.588,872.167
614.721,873.667
614.853,871.767
614.986,874.267
615.118,872.133
615.251,873.967
615.383,873.133
615.516,873.233
615.648,873.5
615.781,873.367
615.913,874.3
616.046,874.067
616.178,872.233
616.311,872.867
616.443,876.133
616.576,875.567
616.708,878.7
616.841,880.133
616.973,881.267
617.106,884.467
617.238,886.2
617.37,888.433
617.503,886.9
617.635,886.7
617.768,887.4
617.9,889.967
618.033,888.433
618.165,891.333
618.297,889.967
618.43,889.433
618.562,886.633
618.695,887.467
618.827,884.833
618.96,884.433
619.092,887.267
619.224,887.367
619.357,890.333
619.489,893.267
619.621,896.1
619.754,896.7
619.886,894.367
620.019,893.167
620.151,891.8
620.283,891.9
620.416,892.133
620.548,893.833
620.68,894.6
620.813,899.533
620.945,900.233
621.077,903.867
621.21,906.8
621.342,913.1
621.474,918.3
621.607,923.333
621.739,935.6
621.871,948.433
622.004,957.033
622.136,971.267
622.268,985.4
622.401,984.167
622.533,977.3
622.665,958.3
622.797,940.233
622.93,921.967
623.062,913.867
623.194,906.967
623.326,904.0
623.459,898.9
623.591,899.367
623.723,897.967
623.856,896.5
623.988,895.267
624.12,895.4
624.252,894.1
624.384,893.133
624.517,894.733
624.649,892.433
624.781,896.4
624.913,899.3
625.046,897.667
625.178,899.933
625.31,900.6
625.442,903.867
625.574,906.833
625.707,909.767
625.839,915.533
625.971,922.4
626.103,931.467
626.235,947.767
626.368,976.1
626.5,1021.83
626.632,1105.7
626.764,1258.37
626.896,1498.83
627.028,1817.23
627.161,2115.07
627.293,2199.43
627.425,2055.47
627.557,1879.53
627.689,1731.9
627.821,1629.7
627.953,1575.73
628.086,1561.43
628.218,1609.57
628.35,1763.13
628.482,2142.9
628.614,2415.53
628.746,2000.77
628.878,1624.67
629.01,1508.57
629.143,1472.97
629.275,1444.33
629.407,1417.07
629.539,1367.97
629.671,1311.6
629.803,1265.87
629.935,1235.43
630.067,1217.63
630.199,1202.43
630.331,1205.6
630.463,1193.67
630.596,1177.7
630.728,1141.87
630.86,1097.67
630.992,1048.03
631.124,1001.83
631.256,959.533
631.388,939.4
631.52,925.133
631.652,917.4
631.784,910.833
631.916,907.4
632.048,903.4
632.18,898.867
632.312,900.4
632.444,897.433
632.576,894.1
632.708,893.233
632.84,893.967
632.972,891.4
633.104,891.167
633.236,889.933
633.368,889.933
633.5,886.8
633.632,888.133
633.764,885.833
633.896,884.967
634.028,883.467
634.16,884.767
634.292,881.9
634.424,882.533
634.556,880.033
634.688,879.2
634.82,880.567
634.952,880.267
635.084,878.5
635.216,878.4
635.348,876.7
635.48,877.933
635.612,876.933
635.744,877.033
635.876,876.3
636.007,874.933
636.139,874.667
636.271,874.633
636.403,875.3
636.535,875.6
636.667,874.4
636.799,874.4
636.931,874.733
637.063,871.733
637.195,868.733
637.327,871.067
637.459,871.167
637.59,868.8
637.722,868.933
637.854,867.367
637.986,867.133
638.118,867.267
638.25,865.733
638.382,866.067
638.514,865.9
638.645,865.933
638.777,866.7
638.909,867.733
639.041,867.233
639.173,867.2
639.305,866.267
639.437,864.567
639.568,866.233
639.7,865.4
639.832,864.8
639.964,864.8
640.096,864.967
640.228,865.2
640.36,866.167
640.491,867.2
640.623,866.467
640.755,863.7
640.887,863.5
641.019,865.433
641.15,864.433
641.282,864.433
641.414,864.067
641.546,864.933
641.678,864.833
641.81,864.433
641.941,863.333
642.073,864.567
642.205,863.867
642.337,863.3
642.468,864.267
642.6,865.467
642.732,865.533
642.864,865.233
642.996,862.967
643.127,863.567
643.259,864.1
643.391,863.967
643.523,863.667
643.654,863.7
643.786,862.533
643.918,864.533
644.05,863.967
644.181,864.267
644.313,863.7
644.445,862.433
644.577,863.967
644.708,865.167
644.84,862.633
644.972,860.6
645.104,863.133
645.235,862.4
645.367,863.7
645.499,862.433
645.631,862.067
645.762,862.033
645.894,863.9
646.026,861.167
646.157,861.367
646.289,862.0
646.421,862.367
646.553,862.967
646.684,862.133
646.816,862.533
646.948,863.2
647.079,862.4
647.211,862.1
647.343,862.967
647.474,862.1
647.606,860.6
647.738,861.367
647.869,863.2
648.001,861.833
648.133,862.567
648.265,861.733
648.396,861.733
648.528,860.7
648.66,860.867
648.791,862.233
648.923,862.1
649.054,862.333
649.186,862.167
649.318,860.967
649.449,860.7
649.581,860.933
649.713,862.4
649.844,861.433
649.976,862.367
650.108,861.967
650.239,860.033
650.371,861.5
650.503,862.667
650.634,862.833
650.766,861.233
650.897,861.467
651.029,861.067
651.161,862.433
651.292,860.533
651.424,861.767
651.556,860.1
651.687,859.033
651.819,861.0
651.95,861.0
652.082,862.5
652.214,863.433
652.345,860.167
652.477,860.967
652.608,862.567
652.74,862.0
652.872,863.233
653.003,861.867
653.135,862.233
653.266,860.3
653.398,861.733
653.529,860.3
653.661,862.3
653.793,862.867
653.924,863.333
654.056,862.833
654.187,863.1
654.319,862.2
654.45,859.033
654.582,861.467
654.714,861.067
654.845,862.6
654.977,862.1
655.108,860.567
655.24,860.667
655.371,860.533
655.503,860.3
655.634,859.9
655.766,859.533
655.897,859.533
656.029,859.0
656.161,856.733
656.292,855.1
656.424,857.4
656.555,858.833
656.687,860.567
656.818,860.667
656.95,861.133
657.081,860.833
657.213,860.4
657.344,860.8
657.476,860.1
657.607,861.1
657.739,861.367
657.87,863.033
658.002,861.967
658.133,860.967
658.265,862.7
658.396,861.733
658.528,860.867
658.659,861.333
658.791,861.3
658.922,862.533
659.054,863.533
659.185,861.333
659.317,861.3
659.448,861.133
659.58,862.3
659.711,862.933
659.843,865.367
659.974,865.4
660.106,865.833
660.237,865.933
660.368,863.367
660.5,864.967
660.631,862.0
660.763,863.033
660.894,861.8
661.026,862.3
661.157,861.767
661.289,860.933
661.42,860.233
661.552,860.633
661.683,860.467
661.815,862.333
661.946,859.833
662.077,861.167
662.209,860.9
662.34,860.867
662.472,861.7
662.603,860.1
662.735,859.967
662.866,859.8
662.997,859.2
663.129,861.033