File: spectra/VLFR_01-LDPE_nobio_Raman_c20e76b4.csv
cm-1,Intensity
-123.878,1853.05
-117.855,1852.3
-111.836,1853.75
-105.821,1853.65
-99.8104,1854.1
-93.8036,1853.2
-87.8007,1853.35
-81.8019,1852.5
-75.807,1853.05
-69.8161,1852.5
-63.8293,1853.55
-57.8464,1854.25
-51.8675,1854.85
-45.8926,1854.45
-39.9216,1854.25
-33.9547,1854.9
-27.9917,1856.05
-22.0326,1860.7
-16.0776,1878.75
-10.1265,2164.3
-4.17932,3182.95
1.76388,3012.2
7.70313,1959.05
13.6384,1855.8
19.5698,1854.55
25.4972,1854.7
31.4207,1854.7
37.3403,1855.65
43.256,1857.55
49.1677,1875.2
55.0755,1988.85
60.9794,2207.45
66.8794,2327.75
72.7754,2404.65
78.6676,2404.3
84.5559,2405.2
90.4402,2405.5
96.3207,2404.2
102.197,2416.15
108.07,2437.95
113.939,2432.0
119.804,2463.3
125.665,2436.65
131.522,2434.55
137.375,2435.7
143.225,2417.8
149.07,2429.8
154.912,2438.4
160.75,2439.1
166.584,2428.2
172.414,2423.8
178.241,2445.35
184.063,2459.9
189.882,2478.1
195.697,2480.6
201.508,2477.1
207.315,2457.85
213.119,2463.25
218.918,2464.85
224.714,2461.15
230.506,2469.6
236.294,2460.2
242.078,2475.35
247.859,2476.95
253.636,2476.4
259.409,2461.8
265.178,2490.95
270.943,2488.85
276.705,2469.15
282.463,2490.3
288.217,2484.15
293.967,2486.6
299.713,2476.25
305.456,2501.05
311.195,2492.15
316.93,2496.4
322.662,2503.4
328.389,2504.9
334.113,2517.0
339.834,2499.3
345.55,2494.6
351.263,2504.3
356.972,2501.3
362.677,2526.95
368.379,2516.5
374.077,2504.15
379.771,2530.45
385.461,2519.75
391.148,2514.75
396.831,2525.15
402.51,2534.65
408.186,2541.15
413.858,2532.9
419.526,2539.7
425.19,2533.05
430.851,2552.8
436.508,2537.55
442.162,2545.2
447.811,2550.85
453.458,2538.2
459.1,2547.35
464.739,2542.75
470.374,2564.8
476.005,2545.05
481.633,2562.75
487.257,2561.3
492.878,2575.6
498.494,2568.25
504.107,2579.8
509.717,2576.8
515.323,2586.1
520.925,2582.95
526.524,2568.45
532.119,2579.35
537.71,2591.15
543.298,2602.95
548.882,2618.35
554.462,2618.0
560.039,2602.75
565.613,2617.9
571.182,2628.7
576.748,2614.8
582.311,2605.55
587.87,2618.55
593.425,2607.45
598.977,2615.65
604.525,2644.9
610.069,2620.55
615.61,2620.4
621.148,2621.45
626.682,2619.25
632.212,2640.45
637.739,2651.2
643.262,2650.55
648.781,2662.7
654.297,2684.75
659.81,2684.65
665.319,2688.0
670.824,2661.2
676.326,2690.6
681.824,2669.45
687.319,2659.7
692.81,2681.25
698.298,2644.3
703.782,2647.2
709.262,2666.55
714.739,2660.35
720.213,2666.1
725.683,2665.9
731.15,2666.1
736.613,2670.15
742.072,2667.9
747.528,2692.6
752.981,2672.1
758.43,2686.7
763.875,2678.5
769.317,2680.15
774.756,2693.25
780.191,2699.15
785.623,2680.0
791.051,2692.8
796.475,2678.25
801.897,2684.4
807.314,2701.35
812.729,2704.4
818.139,2679.75
823.547,2686.6
828.951,2682.4
834.351,2692.95
839.748,2709.75
845.142,2687.1
850.532,2694.95
855.918,2686.9
861.302,2721.5
866.681,2742.85
872.058,2732.55
877.431,2729.55
882.8,2727.5
888.166,2720.2
893.529,2722.6
898.888,2730.8
904.244,2747.8
909.596,2736.4
914.945,2736.9
920.291,2737.5
925.633,2743.8
930.972,2739.55
936.308,2743.45
941.64,2757.0
946.968,2739.7
952.294,2759.0
957.615,2763.8
962.934,2755.5
968.249,2776.05
973.561,2781.3
978.869,2766.5
984.174,2774.9
989.476,2783.25
994.774,2791.5
1000.07,2786.5
1005.36,2795.15
1010.65,2793.75
1015.93,2803.45
1021.22,2794.95
1026.49,2809.05
1031.77,2838.05
1037.04,2826.3
1042.31,2810.35
1047.57,2847.2
1052.83,2839.05
1058.09,2868.75
1063.35,2933.15
1068.6,2909.8
1073.85,2844.3
1079.09,2879.6
1084.33,2900.15
1089.57,2913.45
1094.81,2886.25
1100.04,2889.0
1105.27,2872.95
1110.49,2919.05
1115.71,2939.3
1120.93,2914.6
1126.15,2972.05
1131.36,2953.0
1136.57,2921.75
1141.77,2938.5
1146.98,2923.4
1152.18,2931.95
1157.37,2957.95
1162.56,2951.35
1167.75,2932.95
1172.94,2954.0
1178.12,2967.65
1183.3,2957.6
1188.48,2958.7
1193.65,2968.3
1198.82,2983.5
1203.99,2961.75
1209.15,2971.6
1214.31,3017.55
1219.46,3023.25
1224.62,3022.0
1229.77,3034.8
1234.92,2997.8
1240.06,3053.55
1245.2,3020.7
1250.34,3054.9
1255.47,3054.2
1260.6,3077.0
1265.73,3113.3
1270.85,3075.25
1275.97,3069.35
1281.09,3129.95
1286.21,3139.0
1291.32,3227.0
1296.43,3243.75
1301.53,3271.3
1306.63,3232.7
1311.73,3179.65
1316.83,3187.4
1321.92,3174.2
1327.01,3192.85
1332.1,3190.4
1337.18,3168.15
1342.26,3182.15
1347.34,3201.8
1352.41,3198.05
1357.48,3146.15
1362.55,3190.1
1367.61,3189.65
1372.67,3193.15
1377.73,3181.05
1382.78,3166.35
1387.84,3200.15
1392.88,3183.05
1397.93,3193.4
1402.97,3173.4
1408.01,3205.0
1413.05,3196.6
1418.08,3211.05
1423.11,3267.0
1428.14,3274.95
1433.16,3272.55
1438.18,3304.6
1443.2,3344.8
1448.21,3315.45
1453.22,3291.35
1458.23,3281.15
1463.23,3253.9
1468.23,3251.1
1473.23,3246.3
1478.23,3204.5
1483.22,3188.6
1488.21,3203.1
1493.2,3189.7
1498.18,3195.6
1503.16,3178.8
1508.14,3202.6
1513.11,3196.05
1518.08,3221.4
1523.05,3218.05
1528.01,3258.55
1532.97,3247.95
1537.93,3281.6
1542.89,3240.8
1547.84,3308.4
1552.79,3297.75
1557.73,3277.05
1562.68,3326.8
1567.62,3336.25
1572.56,3372.2
1577.49,3353.45
1582.42,3313.35
1587.35,3315.4
1592.27,3374.75
1597.19,3312.6
1602.11,3313.8
1607.03,3320.1
1611.94,3291.7
1616.85,3261.25
1621.76,3234.3
1626.66,3231.45
1631.56,3230.25
1636.46,3209.85
1641.36,3159.0
1646.25,3143.5
1651.14,3158.15
1656.02,3168.9
1660.9,3168.95
1665.78,3141.3
1670.66,3134.6
1675.54,3166.5
1680.41,3086.75
1685.27,3130.15
1690.14,3122.95
1695.0,3149.25
1699.86,3118.3
1704.71,3140.4
1709.57,3130.7
1714.42,3129.8
1719.26,3122.4
1724.11,3112.7
1728.95,3108.8
1733.79,3128.15
1738.62,3099.75
1743.46,3121.1
1748.28,3130.6
1753.11,3140.95
1757.93,3122.75
1762.75,3121.55
1767.57,3148.65
1772.39,3110.3
1777.2,3141.6
1782.01,3192.4
1786.81,3145.55
1791.62,3169.0
1796.41,3130.0
1801.21,3152.4
1806.01,3124.35
1810.8,3130.35
1815.59,3139.05
1820.37,3114.6
1825.15,3126.0
1829.93,3089.25
1834.71,3117.5
1839.48,3138.8
1844.25,3088.65
1849.02,3151.15
1853.79,3124.85
1858.55,3125.75
1863.31,3129.5
1868.06,3124.65
1872.82,3124.8
1877.57,3153.3
1882.31,3144.9
1887.06,3148.1
1891.8,3125.65
1896.54,3140.0
1901.28,3148.5
1906.01,3145.95
1910.74,3170.5
1915.47,3137.2
1920.19,3146.25
1924.91,3134.3
1929.63,3123.5
1934.35,3138.3
1939.06,3138.6
1943.77,3154.5
1948.48,3128.65
1953.19,3164.55
1957.89,3138.55
1962.59,3157.6
1967.28,3139.15
1971.98,3128.6
1976.67,3117.8
1981.35,3152.95
1986.04,3153.7
1990.72,3181.5
1995.4,3166.9
2000.08,3159.4
2004.75,3173.65
2009.42,3202.55
2014.09,3184.85
2018.75,3176.25
2023.42,3205.35
2028.08,3216.4
2032.73,3213.9
2037.39,3197.85
2042.04,3205.6
2046.69,3204.25
2051.33,3242.1
2055.97,3235.4
2060.61,3210.4
2065.25,3186.3
2069.88,3229.7
2074.52,3245.15
2079.15,3234.6
2083.77,3246.85
2088.39,3244.25
2093.01,3222.4
2097.63,3229.45
2102.25,3267.1
2106.86,3242.3
2111.47,3256.0
2116.08,3238.7
2120.68,3247.4
2125.28,3270.65
2129.88,3266.1
2134.47,3266.9
2139.07,3277.6
2143.66,3244.45
2148.24,3254.35
2152.83,3274.2
2157.41,3267.85
2161.99,3290.2
2166.57,3300.75
2171.14,3259.9
2175.71,3286.5
2180.28,3261.0
2184.84,3275.95
2189.41,3289.1
2193.97,3280.7
2198.52,3249.1
2203.08,3282.6
2207.63,3275.0
2212.18,3291.9
2216.73,3257.35
2221.27,3240.3
2225.81,3235.15
2230.35,3258.8
2234.89,3243.95
2239.42,3268.0
2243.95,3243.45
2248.48,3228.3
2253.0,3252.7
2257.52,3262.95
2262.04,3245.95
2266.56,3227.45
2271.07,3206.45
2275.58,3229.5
2280.09,3195.2
2284.6,3235.6
2289.1,3224.85
2293.6,3218.5
2298.1,3228.9
2302.6,3211.05
2307.09,3206.1
2311.58,3196.0
2316.07,3221.85
2320.55,3231.45
2325.03,3215.5
2329.51,3207.45
2333.99,3211.25
2338.46,3194.75
2342.93,3185.55
2347.4,3230.05
2351.87,3174.15
2356.33,3182.95
2360.79,3168.2
2365.25,3184.95
2369.71,3184.7
2374.16,3196.05
2378.61,3184.95
2383.06,3170.05
2387.5,3145.7
2391.94,3180.45
2396.38,3176.3
2400.82,3164.55
2405.26,3207.45
2409.69,3203.25
2414.12,3161.35
2418.54,3178.7
2422.97,3194.25
2427.39,3174.5
2431.81,3197.05
2436.22,3160.4
2440.64,3187.6
2445.05,3159.75
2449.46,3182.2
2453.86,3151.55
2458.27,3160.6
2462.67,3187.4
2467.06,3178.75
2471.46,3174.7
2475.85,3138.0
2480.24,3174.5
2484.63,3168.6
2489.02,3163.95
2493.4,3137.8
2497.78,3113.6
2502.16,3180.1
2506.53,3133.75
2510.9,3153.6
2515.27,3151.25
2519.64,3165.25
2524.0,3173.4
2528.37,3171.4
2532.73,3162.75
2537.08,3139.25
2541.44,3172.75
2545.79,3154.0
2550.14,3141.9
2554.48,3173.15
2558.83,3170.4
2563.17,3158.25
2567.51,3166.0
2571.85,3170.35
2576.18,3148.15
2580.51,3110.55
2584.84,3147.85
2589.17,3126.35
2593.49,3182.15
2597.81,3181.55
2602.13,3179.0
2606.45,3185.3
2610.76,3160.25
2615.07,3175.1
2619.38,3140.2
2623.69,3147.55
2627.99,3157.5
2632.29,3154.95
2636.59,3151.25
2640.89,3196.7
2645.18,3143.55
2649.47,3134.15
2653.76,3173.75
2658.05,3215.9
2662.33,3168.5
2666.61,3105.6
2670.89,3194.65
2675.17,3162.0
2679.44,3167.8
2683.71,3170.7
2687.98,3188.4
2692.25,3176.35
2696.51,3183.25
2700.77,3167.05
2705.03,3179.65
2709.29,3185.9
2713.54,3196.85
2717.79,3233.9
2722.04,3189.2
2726.29,3172.85
2730.53,3194.1
2734.77,3173.4
2739.01,3137.55
2743.25,3163.65
2747.48,3154.1
2751.71,3149.8
2755.94,3155.55
2760.17,3130.0
2764.39,3143.65
2768.61,3122.1
2772.83,3151.9
2777.05,3164.4
2781.27,3102.45
2785.48,3131.5
2789.69,3107.8
2793.89,3129.25
2798.1,3111.7
2802.3,3117.45
2806.5,3154.3
2810.7,3138.05
2814.89,3144.85
2819.09,3154.65
2823.28,3150.1
2827.46,3214.3
2831.65,3265.55
2835.83,3374.75
2840.01,3605.55
2844.19,3853.7
2848.37,3982.8
2852.54,4053.85
2856.71,3948.15
2860.88,3792.6
2865.05,3762.2
2869.21,3684.4
2873.37,3738.05
2877.53,3910.6
2881.69,4030.45
2885.84,3926.65
2889.99,3840.75
2894.14,3746.3
2898.29,3766.45
2902.43,3675.7
2906.58,3627.55
2910.72,3627.5
2914.85,3586.65
2918.99,3538.3
2923.12,3467.6
2927.25,3498.35
2931.38,3492.95
2935.5,3433.25
2939.63,3380.95
2943.75,3240.3
2947.87,3214.45
2951.98,3136.95
2956.1,3143.15
2960.21,3155.4
2964.32,3101.8
2968.42,3068.75
2972.53,3066.9
2976.63,3091.2
2980.73,3032.6
2984.83,3068.35
2988.92,3038.75
2993.01,3010.7
2997.1,3047.15
3001.19,3077.5
3005.28,3046.9
3009.36,3012.5
3013.44,3017.1
3017.52,2996.3
3021.6,3023.5
3025.67,2999.3
3029.74,3001.75
3033.81,2978.25
3037.88,2987.3
3041.94,2993.9
3046.01,2975.05
3050.07,2980.05
3054.12,2960.1
3058.18,2957.1
3062.23,2968.5
3066.28,2951.45
3070.33,2962.45
3074.38,2968.95
3078.42,2986.7
3082.46,2970.7
3086.5,2938.9
3090.54,2965.0
3094.57,2941.5
3098.6,2947.4
3102.63,2909.6
3106.66,2946.5
3110.69,2926.55
3114.71,2922.1
3118.73,2958.35
3122.75,2948.55
3126.77,2925.0
3130.78,2929.15
3134.79,2918.7
3138.8,2900.85
3142.81,2900.35
3146.81,2896.8
3150.82,2917.25
3154.82,2880.8
3158.81,2922.6
3162.81,2898.15
3166.8,2895.25
3170.79,2921.0
3174.78,2881.55
3178.77,2879.9
3182.75,2862.0
3186.74,2872.65
3190.72,2858.2
3194.69,2859.2
3198.67,2856.75
3202.64,2839.65
3206.61,2845.75
3210.58,2871.25
3214.55,2853.65
3218.51,2840.95
3222.47,2842.4
3226.43,2864.35
3230.39,2873.5
3234.35,2829.45
3238.3,2815.45
3242.25,2826.6
3246.2,2833.75
3250.15,2815.35
3254.09,2806.6
3258.03,2822.5
3261.97,2819.25
3265.91,2794.15
3269.84,2786.75
3273.78,2818.25
3277.71,2784.9
3281.64,2830.5
3285.56,2793.95
3289.49,2810.65
3293.41,2806.95
3297.33,2836.45
3301.25,2771.6
3305.16,2766.2
3309.07,2739.95
3312.99,2787.15
3316.89,2751.95
3320.8,2744.4
3324.7,2769.1
3328.61,2757.3
3332.51,2789.85
3336.4,2748.3
3340.3,2745.0
3344.19,2766.45
3348.08,2743.0
3351.97,2756.5
3355.86,2761.6
3359.74,2741.9
3363.63,2751.0
3367.51,2720.75
3371.39,2696.6
3375.26,2703.25
3379.13,2755.65
3383.01,2737.55
3386.88,2718.3
3390.74,2688.05
3394.61,2669.55
3398.47,2709.3
3402.33,2706.95
3406.19,2707.9
3410.05,2714.8
3413.9,2698.8
3417.75,2699.05
3421.6,2701.7
3425.45,2697.0
3429.3,2716.8
3433.14,2692.5
3436.98,2693.15
3440.82,2693.0
3444.66,2686.45
3448.49,2682.55
3452.32,2688.9
3456.15,2704.15
3459.98,2692.5
3463.81,2652.3
3467.63,2646.0
3471.46,2653.55
3475.28,2668.55
3479.09,2664.9
3482.91,2675.2
3486.72,2638.4
3490.53,2638.25
3494.34,2654.4
3498.15,2673.0
3501.96,2634.4
3505.76,2630.5
3509.56,2616.3
3513.36,2628.5
3517.15,2631.4
3520.95,2605.85
3524.74,2633.4
3528.53,2605.35
3532.32,2635.95
3536.11,2602.75
3539.89,2606.05
3543.67,2605.8
3547.45,2596.9
3551.23,2561.7
3555.0,2567.55
3558.78,2582.7
3562.55,2606.35
3566.32,2570.6
3570.09,2581.85
3573.85,2573.8
3577.61,2555.95
3581.37,2612.35
3585.13,2543.35
3588.89,2548.55
3592.64,2558.7
3596.4,2539.55
3600.15,2538.2
3603.9,2530.6
3607.64,2545.5
3611.39,2516.95
3615.13,2529.1
3618.87,2538.3
3622.61,2510.35
3626.34,2506.45
3630.08,2489.55
3633.81,2495.9
3637.54,2503.05
3641.27,2485.1
3644.99,2486.3
3648.72,2487.6
3652.44,2512.5
3656.16,2504.35
3659.87,2484.0
3663.59,2477.7
3665.45,2488.3