File: spectra/VLFR_06-PET_bio_Raman_67d1c0ba.csv
nm,Intensity
528.626,1868.3
528.795,1869.0
528.963,1868.7
529.132,1868.4
529.3,1869.5
529.469,1870.2
529.637,1871.3
529.806,1867.1
529.974,1868.2
530.143,1870.5
530.311,1869.6
530.48,1871.1
530.648,1871.5
530.816,1871.4
530.985,1870.3
531.153,1872.4
531.322,1872.9
531.49,1879.9
531.658,1899.0
531.827,2271.0
531.995,3811.3
532.164,4326.1
532.332,2230.7
532.5,1879.9
532.669,1874.1
532.837,1876.2
533.006,1881.7
533.174,1889.0
533.342,1917.0
533.511,2144.3
533.679,3787.0
533.847,7328.4
534.016,9597.7
534.184,9876.5
534.352,8811.0
534.521,7953.7
534.689,7454.3
534.857,6906.5
535.025,6256.4
535.194,5562.5
535.362,5095.2
535.53,4697.2
535.699,4140.9
535.867,3827.3
536.035,3568.6
536.203,3374.8
536.372,3214.8
536.54,3106.6
536.708,3013.9
536.876,2960.2
537.044,2921.8
537.213,2888.8
537.381,2881.1
537.549,2796.0
537.717,2789.6
537.885,2799.9
538.054,2847.7
538.222,2827.2
538.39,2854.5
538.558,2869.5
538.726,2846.3
538.894,2820.9
539.063,2806.4
539.231,2858.9
539.399,2933.7
539.567,3006.2
539.735,3044.9
539.903,3054.5
540.071,3008.0
540.239,2891.8
540.408,2793.7
540.576,2730.3
540.744,2681.6
540.912,2642.2
541.08,2616.4
541.248,2549.2
541.416,2549.7
541.584,2540.5
541.752,2547.5
541.92,2555.1
542.088,2535.2
542.256,2554.1
542.424,2539.8
542.592,2548.7
542.76,2583.6
542.928,2543.5
543.096,2538.7
543.264,2564.0
543.432,2535.1
543.6,2561.7
543.768,2588.0
543.936,2621.7
544.104,2613.5
544.272,2574.6
544.44,2558.6
544.608,2557.4
544.776,2581.9
544.944,2580.7
545.112,2605.5
545.28,2583.5
545.448,2601.7
545.616,2593.5
545.784,2584.8
545.951,2612.0
546.119,2597.8
546.287,2603.9
546.455,2608.4
546.623,2626.6
546.791,2634.5
546.959,2636.5
547.127,2641.4
547.294,2654.6
547.462,2650.5
547.63,2665.3
547.798,2667.6
547.966,2686.6
548.134,2674.7
548.301,2666.3
548.469,2675.3
548.637,2682.5
548.805,2709.1
548.972,2677.3
549.14,2681.4
549.308,2702.5
549.476,2708.7
549.644,2707.5
549.811,2687.9
549.979,2711.4
550.147,2730.3
550.315,2861.5
550.482,3415.1
550.65,4048.9
550.818,3538.9
550.985,2894.5
551.153,2786.7
551.321,2819.0
551.488,2809.1
551.656,2816.7
551.824,2816.7
551.991,2823.6
552.159,2841.7
552.327,2829.8
552.494,2925.0
552.662,3153.6
552.83,3358.8
552.997,3227.0
553.165,2967.6
553.333,2904.2
553.5,2895.3
553.668,2870.3
553.835,2934.4
554.003,2937.7
554.171,2888.8
554.338,2914.3
554.506,2926.4
554.673,2931.2
554.841,2947.6
555.008,3017.1
555.176,3080.0
555.343,3199.6
555.511,3442.6
555.679,3638.2
555.846,3513.8
556.014,3519.2
556.181,3559.6
556.349,3583.3
556.516,3628.1
556.684,3667.2
556.851,3682.7
557.018,3802.6
557.186,4125.3
557.353,4621.3
557.521,5078.3
557.688,4825.3
557.856,4299.4
558.023,3853.7
558.191,3793.2
558.358,3874.2
558.525,3818.6
558.693,3718.4
558.86,3612.7
559.028,3461.3
559.195,3301.4
559.362,3248.0
559.53,3209.4
559.697,3204.8
559.864,3205.5
560.032,3216.4
560.199,3182.9
560.366,3218.6
560.534,3189.2
560.701,3218.9
560.868,3248.3
561.036,3241.7
561.203,3280.8
561.37,3276.9
561.538,3324.4
561.705,3340.6
561.872,3398.6
562.039,3454.0
562.207,3501.6
562.374,3451.9
562.541,3490.2
562.708,3573.4
562.876,3611.5
563.043,3617.8
563.21,3615.7
563.377,3544.5
563.545,3533.9
563.712,3496.0
563.879,3409.7
564.046,3472.0
564.213,3485.5
564.38,3500.1
564.548,3596.6
564.715,3693.2
564.882,3869.2
565.049,4108.5
565.216,4317.9
565.383,4415.2
565.551,4631.3
565.718,4785.9
565.885,4810.2
566.052,4583.3
566.219,4295.7
566.386,4005.3
566.553,3811.9
566.72,3633.3
566.887,3612.0
567.054,3621.2
567.221,3702.5
567.388,3896.9
567.555,4143.0
567.722,4298.1
567.889,4189.3
568.057,3919.7
568.224,3736.6
568.391,3616.0
568.558,3664.3
568.725,3694.8
568.892,3654.7
569.058,3704.6
569.225,3734.3
569.392,3719.0
569.559,3798.7
569.726,3916.4
569.893,3998.8
570.06,4029.8
570.227,4268.6
570.394,4561.2
570.561,4889.1
570.728,5335.5
570.895,5723.4
571.062,6281.7
571.229,6813.4
571.395,6766.3
571.562,6413.2
571.729,5711.7
571.896,5362.3
572.063,5077.6
572.23,4657.8
572.397,4404.5
572.563,4191.9
572.73,4070.7
572.897,4006.8
573.064,3960.4
573.231,3986.0
573.397,3954.7
573.564,3968.7
573.731,4034.5
573.898,4182.8
574.064,4184.7
574.231,4155.0
574.398,4097.2
574.565,4104.8
574.731,4054.4
574.898,4127.2
575.065,4256.7
575.232,4416.8
575.398,4493.6
575.565,4305.6
575.732,4173.7
575.898,4169.8
576.065,4235.2
576.232,4435.1
576.398,4442.4
576.565,4505.7
576.732,4569.9
576.898,4407.5
577.065,4434.9
577.232,4277.8
577.398,4212.8
577.565,4159.6
577.731,4074.9
577.898,4081.6
578.065,4083.5
578.231,4153.6
578.398,4159.3
578.564,4085.1
578.731,4108.8
578.897,4117.2
579.064,4173.6
579.23,4175.4
579.397,4109.4
579.563,4185.1
579.73,4187.2
579.896,4214.1
580.063,4260.3
580.229,4282.6
580.396,4305.2
580.562,4314.2
580.729,4329.8
580.895,4407.4
581.062,4531.4
581.228,4566.4
581.395,4717.3
581.561,5266.6
581.728,6547.7
581.894,9289.0
582.06,13204.0
582.227,14244.9
582.393,9710.7
582.56,5863.4
582.726,4887.8
582.892,4568.1
583.059,4513.0
583.225,4436.3
583.391,4464.3
583.558,4325.8
583.724,4419.8
583.89,4500.7
584.057,4426.4
584.223,4467.3
584.389,4562.9
584.556,4624.3
584.722,4546.5
584.888,4583.7
585.054,4819.4
585.221,5102.0
585.387,5763.0
585.553,7402.4
585.719,8861.4
585.886,10029.5
586.052,10173.6
586.218,9158.7
586.384,8057.1
586.55,6698.4
586.717,5748.6
586.883,5099.1
587.049,4802.9
587.215,4680.6
587.381,4645.0
587.548,4627.8
587.714,4528.1
587.88,4498.3
588.046,4555.9
588.212,4561.3
588.378,4497.2
588.544,4520.1
588.71,4502.3
588.876,4531.8
589.043,4524.4
589.209,4491.4
589.375,4416.7
589.541,4439.0
589.707,4450.8
589.873,4463.5
590.039,4507.9
590.205,4399.3
590.371,4479.2
590.537,4481.7
590.703,4492.4
590.869,4440.8
591.035,4454.6
591.201,4513.2
591.367,4500.8
591.533,4498.7
591.699,4473.6
591.865,4589.1
592.031,4480.2
592.197,4484.6
592.363,4540.4
592.529,4517.7
592.694,4458.0
592.86,4460.9
593.026,4615.8
593.192,4532.8
593.358,4474.6
593.524,4484.3
593.69,4480.0
593.856,4559.5
594.021,4511.7
594.187,4512.6
594.353,4577.0
594.519,4546.1
594.685,4501.8
594.851,4522.8
595.016,4568.3
595.182,4609.4
595.348,4595.7
595.514,4573.8
595.68,4599.3
595.845,4623.8
596.011,4609.0
596.177,4610.9
596.342,4577.7
596.508,4645.9
596.674,4572.2
596.84,4638.8
597.005,4646.0
597.171,4585.9
597.337,4631.6
597.502,4582.6
597.668,4621.2
597.834,4598.0
597.999,4618.4
598.165,4601.3
598.331,4623.7
598.496,4629.5
598.662,4616.2
598.828,4583.9
598.993,4657.7
599.159,4672.3
599.324,4601.3
599.49,4640.1
599.656,4734.4
599.821,4651.5
599.987,4699.5
600.152,4645.7
600.318,4662.2
600.483,4640.8
600.649,4697.3
600.814,4646.9
600.98,4689.6
601.145,4730.8
601.311,4705.7
601.476,4743.9
601.642,4676.8
601.807,4645.7
601.973,4718.5
602.138,4633.2
602.304,4621.9
602.469,4707.2
602.635,4689.5
602.8,4658.6
602.965,4716.8
603.131,4684.5
603.296,4754.7
603.462,4735.2
603.627,4748.6
603.792,4802.2
603.958,4655.8
604.123,4631.0
604.288,4753.9
604.454,4709.6
604.619,4659.0
604.784,4726.6
604.95,4664.9
605.115,4781.4
605.28,4718.5
605.446,4721.1
605.611,4720.3
605.776,4783.1
605.941,4736.6
606.107,4653.6
606.272,4750.5
606.437,4722.3
606.602,4787.0
606.767,4769.3
606.933,4755.9
607.098,4768.5
607.263,4761.7
607.428,4808.9
607.593,4762.5
607.759,4734.6
607.924,4767.8
608.089,4812.0
608.254,4724.0
608.419,4796.5
608.584,4727.0
608.749,4737.4
608.915,4776.0
609.08,4784.7
609.245,4813.0
609.41,4731.8
609.575,4765.2
609.74,4797.0
609.905,4802.8
610.07,4774.6
610.235,4860.2
610.4,4799.3
610.565,4801.8
610.73,4722.2
610.895,4857.8
611.06,4815.0
611.225,4798.7
611.39,4770.1
611.555,4803.1
611.72,4786.0
611.885,4851.6
612.05,4781.0
612.215,4872.3
612.38,4881.7
612.545,4801.7
612.71,4799.4
612.875,4854.3
613.04,4768.3
613.204,4839.2
613.369,4853.3
613.534,4887.1
613.699,4888.8
613.864,4859.5
614.029,4874.9
614.194,4923.4
614.358,4865.4
614.523,4894.3
614.688,4882.8
614.853,4901.5
615.018,4823.9
615.182,4914.4
615.347,4905.2
615.512,4976.8
615.677,4943.9
615.841,4966.8
616.006,4907.2
616.171,4820.8
616.336,4909.4
616.5,4903.8
616.665,5006.6
616.83,4944.8
616.994,4918.5
617.159,4991.6
617.324,4987.0
617.489,4908.1
617.653,5132.9
617.818,5030.4
617.982,4992.2
618.147,5046.6
618.312,5028.4
618.476,5067.9
618.641,5070.3
618.805,5030.6
618.97,5043.5
619.135,5000.5
619.299,4998.5
619.464,5053.0
619.628,5121.8
619.793,4953.6
619.957,5018.9
620.122,4954.6
620.286,5062.3
620.451,4974.7
620.615,5014.6
620.78,4966.7
620.944,4996.5
621.109,5056.3
621.273,5075.6
621.438,5008.7
621.602,5066.0
621.767,5035.0
621.931,5016.5
622.095,5000.5
622.26,5050.8
622.424,5162.0
622.589,5047.6
622.753,5115.7
622.917,5092.1
623.082,5163.1
623.246,5160.7
623.41,5106.0
623.575,5057.0
623.739,5126.7
623.903,5192.5
624.068,5158.0
624.232,5192.6
624.396,5199.3
624.561,5287.0
624.725,5273.2
624.889,5249.2
625.053,5175.6
625.218,5200.6
625.382,5208.1
625.546,5234.7
625.71,5196.2
625.875,5226.8
626.039,5217.9
626.203,5217.7
626.367,5295.7
626.531,5168.6
626.695,5177.1
626.86,5250.9
627.024,5158.5
627.188,5269.1
627.352,5263.7
627.516,5316.2
627.68,5377.1
627.844,5304.1
628.008,5328.5
628.172,5455.7
628.337,5447.3
628.501,5584.6
628.665,5643.8
628.829,5617.6
628.993,5637.9
629.157,5873.7
629.321,5727.4
629.485,5668.5
629.649,5595.5
629.813,5659.7
629.977,5591.7
630.141,5624.9
630.305,5575.1
630.469,5608.4
630.633,5689.5
630.797,5856.6
630.96,6017.5
631.124,6318.1
631.288,6869.3
631.452,7158.1
631.616,7261.1
631.78,7420.9
631.944,7158.3
632.108,6954.9
632.272,6848.2
632.435,6653.5
632.599,6464.4
632.763,6303.8
632.927,6397.3
633.091,6355.3
633.254,6413.8
633.418,6259.6
633.582,6181.2
633.746,6071.2
633.91,6133.4
634.073,6053.5
634.237,5889.8
634.401,5865.5
634.564,5825.3
634.728,5763.1
634.892,5872.5
635.056,5855.9
635.219,5743.4
635.383,5955.7
635.547,6020.0
635.71,6179.0
635.874,6589.3
636.038,6938.4
636.201,7143.8
636.365,7509.9
636.528,7723.7
636.692,7415.0
636.856,7060.7
637.019,6637.4
637.183,6455.3
637.346,6374.9
637.51,6147.8
637.673,6056.3
637.837,5913.6
638.0,5892.0
638.164,5871.6
638.327,5884.3
638.491,5909.4
638.654,5945.2
638.818,5791.8
638.981,5802.8
639.145,5907.4
639.308,5856.5
639.472,5809.6
639.635,5833.9
639.799,5823.9
639.962,5742.1
640.125,5825.4
640.289,5903.0
640.452,5868.8
640.616,5704.7
640.779,5738.6
640.942,5885.2
641.106,5713.9
641.269,5764.8
641.432,5848.9
641.596,5854.5
641.759,5840.7
641.922,5856.9
642.085,5904.6
642.249,5912.3
642.412,5939.2
642.575,6025.0
642.738,6001.0
642.902,5822.4
643.065,5768.0
643.228,5842.0
643.391,5970.2
643.555,5871.1
643.718,5847.2
643.881,5893.5
644.044,5995.9
644.207,5881.1
644.37,5897.3
644.534,5832.4
644.697,5811.2
644.86,5758.4
645.023,5813.8
645.186,5820.5
645.349,5936.6
645.512,5857.8
645.675,5839.1
645.838,5848.4
646.001,5825.4
646.164,5932.9
646.327,5879.5
646.49,5952.6
646.653,5887.2
646.816,5917.9
646.979,5836.6
647.142,5831.4
647.305,5694.5
647.468,5757.7
647.631,5960.9
647.794,5930.2
647.957,5817.5
648.12,5856.4
648.283,5877.9
648.446,5895.4
648.609,5801.8
648.772,5681.3
648.935,5767.0
649.098,5934.9
649.26,5662.6
649.423,5749.6
649.586,5868.9
649.749,5864.9
649.912,5763.4
650.075,5800.2
650.237,5655.8
650.4,5739.7
650.563,5819.9
650.726,5874.7
650.888,5721.3
651.051,5691.8
651.214,5825.5
651.377,5616.5
651.539,5764.9
651.702,5720.2
651.865,5685.4
652.027,5746.6
652.19,5664.3
652.353,5599.3
652.515,5624.1
652.678,5618.4
652.841,5648.4
653.003,5660.5
653.166,5533.0
653.329,5501.6
653.491,5571.2
653.654,5541.7
653.816,5598.9
653.979,5533.3
654.142,5602.2
654.304,5461.9
654.467,5497.2
654.629,5523.2
654.792,5464.3
654.954,5501.7
655.117,5621.7
655.279,5396.7
655.442,5550.0
655.604,5522.5
655.767,5520.6
655.929,5451.8
656.091,5395.9
656.254,5447.0
656.416,5508.2
656.579,5348.9
656.741,5425.9
656.904,5350.7
657.066,5439.1
657.228,5311.5
657.391,5253.0
657.553,5361.0
657.715,5170.7
657.878,5241.8
658.04,5220.6
658.202,5212.2
658.365,5236.3
658.527,5289.8
658.689,5223.1
658.851,5183.9
659.014,5077.6
659.176,5235.3
659.338,5167.3
659.5,4965.1
659.663,5156.9
659.825,5091.3
659.987,5232.0
660.149,5069.4
660.311,5010.2
660.474,5101.6
660.636,5090.4
660.798,5065.8
660.96,5093.9
661.041,5068.7