File: spectra/VLFR_02-HDPE_nobio_Raman_95b07d0e.csv
nm,Intensity
526.532,830.233
526.669,830.367
526.805,829.333
526.942,829.933
527.079,830.533
527.216,830.433
527.352,830.833
527.489,830.7
527.625,829.867
527.762,830.5
527.899,830.733
528.035,830.3
528.172,829.733
528.309,830.167
528.445,829.5
528.582,830.433
528.718,830.433
528.855,830.0
528.992,829.4
529.128,829.6
529.265,829.067
529.401,830.0
529.538,830.033
529.674,829.933
529.811,830.367
529.947,829.7
530.084,830.2
530.22,830.033
530.357,830.0
530.493,829.967
530.63,830.0
530.766,830.233
530.903,829.667
531.039,829.367
531.176,829.3
531.312,829.567
531.449,829.5
531.585,829.967
531.721,829.533
531.858,830.367
531.994,840.567
532.131,881.8
532.267,872.3
532.403,836.767
532.54,831.0
532.676,829.267
532.812,830.7
532.949,829.4
533.085,829.967
533.221,830.667
533.358,830.033
533.494,830.2
533.63,830.833
533.767,838.667
533.903,865.467
534.039,892.7
534.176,899.567
534.312,895.2
534.448,889.267
534.584,890.5
534.721,885.7
534.857,884.333
534.993,881.1
535.129,875.667
535.266,875.033
535.402,871.1
535.538,867.267
535.674,864.167
535.81,862.533
535.947,861.033
536.083,858.933
536.219,856.2
536.355,855.733
536.491,854.9
536.627,856.033
536.764,855.867
536.9,853.967
537.036,854.5
537.172,854.667
537.308,854.267
537.444,854.4
537.58,854.2
537.716,853.567
537.852,853.9
537.988,852.533
538.125,853.4
538.261,854.667
538.397,853.367
538.533,851.5
538.669,851.333
538.805,850.1
538.941,849.333
539.077,849.633
539.213,847.467
539.349,848.033
539.485,847.5
539.621,845.033
539.757,846.3
539.893,844.867
540.029,845.367
540.165,845.667
540.301,844.767
540.437,843.5
540.572,843.833
540.708,845.967
540.844,843.7
540.98,843.333
541.116,843.1
541.252,843.7
541.388,844.167
541.524,843.867
541.66,844.1
541.795,843.7
541.931,843.833
542.067,844.467
542.203,843.1
542.339,843.833
542.475,844.6
542.611,843.8
542.746,844.967
542.882,843.1
543.018,842.333
543.154,843.733
543.289,842.933
543.425,842.7
543.561,844.033
543.697,842.9
543.833,843.8
543.968,843.467
544.104,843.133
544.24,843.9
544.375,843.4
544.511,841.933
544.647,843.8
544.783,842.5
544.918,843.067
545.054,843.433
545.19,842.067
545.325,842.633
545.461,841.633
545.597,842.5
545.732,842.933
545.868,843.8
546.004,842.233
546.139,842.333
546.275,842.1
546.41,842.833
546.546,842.7
546.682,843.267
546.817,842.9
546.953,842.2
547.088,842.933
547.224,842.667
547.36,842.333
547.495,843.133
547.631,842.567
547.766,843.433
547.902,843.033
548.037,841.833
548.173,842.533
548.308,843.5
548.444,841.867
548.579,841.7
548.715,841.667
548.85,841.067
548.986,842.433
549.121,842.567
549.257,841.733
549.392,841.967
549.528,841.267
549.663,842.067
549.798,841.267
549.934,841.233
550.069,841.167
550.205,842.8
550.34,842.133
550.475,841.333
550.611,841.467
550.746,841.8
550.882,841.333
551.017,842.067
551.152,842.233
551.288,842.433
551.423,843.667
551.558,842.633
551.694,842.2
551.829,843.367
551.964,842.7
552.1,841.667
552.235,841.733
552.37,843.0
552.505,842.0
552.641,842.767
552.776,842.8
552.911,842.933
553.047,844.0
553.182,843.867
553.317,845.9
553.452,845.767
553.588,845.6
553.723,845.4
553.858,844.967
553.993,844.667
554.128,845.467
554.264,845.767
554.399,844.7
554.534,845.133
554.669,846.6
554.804,845.5
554.939,845.333
555.075,846.3
555.21,846.8
555.345,843.833
555.48,845.8
555.615,846.933
555.75,848.4
555.885,846.733
556.02,847.667
556.155,845.933
556.291,848.267
556.426,848.3
556.561,849.0
556.696,849.733
556.831,848.367
556.966,850.267
557.101,851.267
557.236,850.367
557.371,851.233
557.506,851.5
557.641,852.6
557.776,852.333
557.911,852.9
558.046,853.167
558.181,852.6
558.316,854.367
558.451,853.733
558.586,856.1
558.721,855.3
558.856,854.233
558.991,853.433
559.126,852.033
559.261,851.567
559.396,850.833
559.531,850.7
559.665,851.067
559.8,850.933
559.935,850.5
560.07,849.867
560.205,849.9
560.34,850.5
560.475,851.067
560.61,849.8
560.745,849.5
560.879,849.633
561.014,849.267
561.149,849.2
561.284,849.733
561.419,849.3
561.553,849.6
561.688,850.3
561.823,849.7
561.958,851.4
562.093,852.033
562.227,850.2
562.362,851.633
562.497,854.067
562.632,853.1
562.767,854.2
562.901,855.567
563.036,855.567
563.171,857.733
563.305,857.567
563.44,860.133
563.575,863.5
563.71,871.633
563.844,898.2
563.979,984.767
564.114,1029.93
564.248,944.767
564.383,886.533
564.518,878.933
564.652,880.133
564.787,878.933
564.922,874.6
565.056,871.967
565.191,869.767
565.325,867.367
565.46,868.367
565.595,871.5
565.729,877.933
565.864,894.9
565.999,952.467
566.133,1113.0
566.268,1167.03
566.402,987.567
566.537,895.833
566.671,870.233
566.806,863.233
566.94,860.867
567.075,860.833
567.21,859.1
567.344,861.967
567.479,866.867
567.613,865.133
567.748,857.967
567.882,855.0
568.017,854.767
568.151,854.5
568.285,854.067
568.42,853.333
568.554,853.233
568.689,853.133
568.823,853.567
568.958,853.3
569.092,854.833
569.227,854.233
569.361,855.7
569.495,854.967
569.63,854.733
569.764,855.833
569.899,856.6
570.033,856.667
570.167,856.933
570.302,857.233
570.436,859.733
570.571,862.233
570.705,866.033
570.839,866.933
570.974,866.9
571.108,869.967
571.242,879.2
571.377,921.567
571.511,1089.7
571.645,1134.27
571.78,961.1
571.914,901.867
572.048,882.333
572.182,879.133
572.317,871.633
572.451,866.833
572.585,863.933
572.719,859.167
572.854,859.367
572.988,856.733
573.122,856.867
573.256,857.333
573.391,858.0
573.525,856.5
573.659,859.267
573.793,863.5
573.927,870.7
574.062,875.167
574.196,868.567
574.33,860.967
574.464,859.433
574.598,856.533
574.733,858.4
574.867,860.633
575.001,860.533
575.135,863.4
575.269,876.433
575.403,931.067
575.537,1053.57
575.671,1040.9
575.806,947.733
575.94,921.767
576.074,933.7
576.208,962.2
576.342,983.9
576.476,970.9
576.61,944.6
576.744,936.3
576.878,938.833
577.012,936.3
577.146,932.567
577.28,917.867
577.414,899.7
577.548,887.567
577.682,877.267
577.817,874.867
577.951,871.967
578.085,869.3
578.219,870.5
578.353,868.033
578.486,867.2
578.62,867.833
578.754,866.533
578.888,867.733
579.022,868.2
579.156,868.567
579.29,869.467
579.424,867.4
579.558,869.067
579.692,870.433
579.826,870.333
579.96,869.633
580.094,871.067
580.228,873.267
580.362,870.433
580.496,871.733
580.629,873.033
580.763,872.233
580.897,874.133
581.031,874.333
581.165,874.833
581.299,875.267
581.433,874.7
581.566,875.967
581.7,875.767
581.834,878.3
581.968,877.8
582.102,877.3
582.236,880.433
582.369,881.067
582.503,880.667
582.637,882.267
582.771,881.9
582.905,882.067
583.038,883.467
583.172,883.3
583.306,884.233
583.44,885.533
583.573,887.333
583.707,885.733
583.841,885.7
583.975,888.633
584.108,887.667
584.242,887.667
584.376,887.367
584.509,889.367
584.643,889.867
584.777,889.733
584.911,891.867
585.044,890.333
585.178,891.333
585.312,890.767
585.445,893.167
585.579,892.733
585.713,893.233
585.846,892.767
585.98,893.433
586.113,894.0
586.247,895.1
586.381,895.533
586.514,896.867
586.648,897.733
586.782,895.567
586.915,894.967
587.049,897.967
587.182,898.067
587.316,899.933
587.45,899.767
587.583,900.767
587.717,900.1
587.85,901.267
587.984,900.833
588.117,901.9
588.251,900.267
588.384,902.767
588.518,902.233
588.651,902.8
588.785,902.567
588.919,902.3
589.052,906.3
589.186,907.967
589.319,906.233
589.453,906.6
589.586,905.367
589.72,907.967
589.853,907.833
589.986,908.7
590.12,910.267
590.253,908.733
590.387,911.467
590.52,912.9
590.654,912.2
590.787,910.633
590.921,912.933
591.054,916.3
591.187,916.533
591.321,913.133
591.454,915.267
591.588,915.4
591.721,915.733
591.854,916.2
591.988,917.4
592.121,920.933
592.255,921.533
592.388,918.667
592.521,919.633
592.655,919.867
592.788,920.833
592.921,923.033
593.055,922.033
593.188,922.333
593.321,923.333
593.455,921.967
593.588,923.533
593.721,922.133
593.855,923.233
593.988,923.667
594.121,923.167
594.255,924.367
594.388,926.067
594.521,926.267
594.654,924.967
594.788,929.2
594.921,928.533
595.054,926.3
595.187,927.533
595.321,930.033
595.454,927.3
595.587,928.2
595.72,928.033
595.854,929.2
595.987,928.267
596.12,928.733
596.253,930.2
596.387,928.233
596.52,931.167
596.653,932.267
596.786,930.867
596.919,931.167
597.052,930.6
597.186,932.367
597.319,933.8
597.452,931.767
597.585,930.7
597.718,932.867
597.851,930.6
597.985,932.2
598.118,934.2
598.251,932.367
598.384,932.933
598.517,930.6
598.65,935.267
598.783,934.5
598.916,931.967
599.049,933.733
599.183,934.933
599.316,933.633
599.449,936.1
599.582,935.767
599.715,936.0
599.848,936.8
599.981,936.9
600.114,932.367
600.247,934.933
600.38,932.333
600.513,932.3
600.646,932.567
600.779,931.233
600.912,929.0
601.045,931.0
601.178,932.633
601.311,929.933
601.444,932.633
601.577,931.6
601.71,930.833
601.843,932.6
601.976,930.133
602.109,934.533
602.242,932.133
602.375,931.533
602.508,930.233
602.641,931.567
602.774,933.1
602.907,931.667
603.04,929.9
603.173,929.733
603.306,930.167
603.439,931.8
603.572,930.933
603.705,931.8
603.838,931.267
603.971,928.867
604.103,930.867
604.236,926.767
604.369,928.3
604.502,927.133
604.635,926.933
604.768,926.0
604.901,926.533
605.034,926.0
605.167,925.6
605.299,924.233
605.432,925.0
605.565,923.033
605.698,923.0
605.831,923.233
605.964,923.333
606.096,921.2
606.229,918.267
606.362,920.9
606.495,921.067
606.628,918.7
606.761,921.667
606.893,921.733
607.026,920.333
607.159,920.367
607.292,920.3
607.425,920.933
607.557,920.033
607.69,919.233
607.823,922.433
607.956,920.567
608.088,921.5
608.221,918.867
608.354,921.1
608.487,918.733
608.619,921.833
608.752,921.6
608.885,917.5
609.018,918.5
609.15,919.633
609.283,918.867
609.416,918.933
609.548,916.8
609.681,917.433
609.814,918.5
609.947,918.567
610.079,917.5
610.212,918.1
610.345,914.7
610.477,918.167
610.61,917.433
610.743,919.433
610.875,919.667
611.008,919.1
611.141,921.867
611.273,919.767
611.406,918.133
611.539,916.933
611.671,914.933
611.804,916.067
611.936,914.7
612.069,914.0
612.202,916.733
612.334,913.267
612.467,914.7
612.6,913.333
612.732,914.033
612.865,913.5
612.997,911.767
613.13,913.8
613.263,913.167
613.395,912.333
613.528,913.567
613.66,912.267
613.793,912.367
613.925,913.133
614.058,910.467
614.19,911.767
614.323,909.3
614.456,910.467
614.588,912.033
614.721,911.467
614.853,909.3
614.986,909.8
615.118,909.267
615.251,908.5
615.383,908.1
615.516,909.133
615.648,906.4
615.781,907.733
615.913,905.867
616.046,909.267
616.178,907.0
616.311,907.7
616.443,908.033
616.576,908.067
616.708,907.0
616.841,907.667
616.973,908.167
617.106,909.467
617.238,911.533
617.37,909.367
617.503,908.667
617.635,909.767
617.768,909.433
617.9,908.867
618.033,907.5
618.165,906.7
618.297,909.433
618.43,907.967
618.562,905.9
618.695,906.933
618.827,905.867
618.96,906.333
619.092,905.633
619.224,906.7
619.357,907.6
619.489,907.833
619.621,906.833
619.754,909.0
619.886,907.167
620.019,905.1
620.151,905.7
620.283,903.9
620.416,905.267
620.548,904.933
620.68,907.367
620.813,908.933
620.945,906.167
621.077,910.167
621.21,910.6
621.342,911.033
621.474,913.2
621.607,916.867
621.739,919.367
621.871,924.567
622.004,930.6
622.136,934.367
622.268,938.867
622.401,935.433
622.533,935.167
622.665,927.4
622.797,920.233
622.93,915.367
623.062,910.867
623.194,909.7
623.326,903.833
623.459,903.633
623.591,903.2
623.723,900.8
623.856,899.5
623.988,901.0
624.12,899.567
624.252,900.0
624.384,898.7
624.517,900.833
624.649,899.667
624.781,899.467
624.913,900.167
625.046,901.267
625.178,901.167
625.31,902.567
625.442,905.633
625.574,905.2
625.707,906.4
625.839,908.0
625.971,909.767
626.103,916.4
626.235,923.1
626.368,935.5
626.5,953.2
626.632,991.3
626.764,1056.1
626.896,1169.77
627.028,1331.5
627.161,1521.7
627.293,1598.57
627.425,1536.93
627.557,1431.97
627.689,1358.1
627.821,1294.43
627.953,1262.4
628.086,1241.8
628.218,1249.77
628.35,1309.53
628.482,1469.17
628.614,1632.1
628.746,1543.8
628.878,1402.37
629.01,1348.7
629.143,1321.73
629.275,1303.63
629.407,1282.87
629.539,1240.13
629.671,1205.07
629.803,1173.57
629.935,1150.57
630.067,1144.1
630.199,1137.5
630.331,1138.87
630.463,1134.6
630.596,1117.83
630.728,1088.8
630.86,1058.63
630.992,1021.97
631.124,985.333
631.256,956.133
631.388,938.3
631.52,928.667
631.652,923.3
631.784,918.033
631.916,915.2
632.048,908.667
632.18,906.333
632.312,905.2
632.444,899.333
632.576,900.1
632.708,898.833
632.84,900.567
632.972,895.867
633.104,894.867
633.236,893.433
633.368,893.8
633.5,892.4
633.632,892.633
633.764,892.4
633.896,890.7
634.028,891.167
634.16,890.467
634.292,888.767
634.424,890.933
634.556,888.533
634.688,888.733
634.82,888.433
634.952,887.1
635.084,886.833
635.216,885.467
635.348,887.5
635.48,885.667
635.612,886.7
635.744,885.967
635.876,885.467
636.007,885.3
636.139,886.967
636.271,886.333
636.403,884.8
636.535,886.0
636.667,884.833
636.799,885.367
636.931,884.633
637.063,882.867
637.195,882.533
637.327,879.833
637.459,882.667
637.59,880.267
637.722,883.0
637.854,880.667
637.986,881.3
638.118,881.5
638.25,882.1
638.382,879.8
638.514,881.9
638.645,878.233
638.777,880.167
638.909,881.333
639.041,880.2
639.173,880.333
639.305,879.7
639.437,880.733
639.568,879.5
639.7,881.4
639.832,880.133
639.964,879.1
640.096,879.9
640.228,878.667
640.36,880.833
640.491,878.833
640.623,880.0
640.755,879.567
640.887,880.5
641.019,880.833
641.15,878.767
641.282,880.067
641.414,879.433
641.546,880.3
641.678,880.233
641.81,880.067
641.941,878.967
642.073,879.7
642.205,880.333
642.337,879.633
642.468,879.533
642.6,879.933
642.732,878.433
642.864,881.067
642.996,878.3
643.127,879.633
643.259,878.933
643.391,878.233
643.523,879.133
643.654,878.867
643.786,878.233
643.918,878.933
644.05,878.7
644.181,879.4
644.313,879.333
644.445,877.533
644.577,881.367
644.708,877.267
644.84,877.667
644.972,878.833
645.104,877.833
645.235,878.4
645.367,877.933
645.499,876.2
645.631,878.4
645.762,878.367
645.894,877.067
646.026,878.833
646.157,878.067
646.289,876.4
646.421,878.467
646.553,878.833
646.684,879.0
646.816,878.7
646.948,878.4
647.079,875.6
647.211,878.767
647.343,877.567
647.474,877.633
647.606,877.033
647.738,878.5
647.869,878.9
648.001,877.1
648.133,878.1
648.265,876.367
648.396,877.5
648.528,875.3
648.66,878.333
648.791,876.333
648.923,878.667
649.054,877.633
649.186,876.733
649.318,876.267
649.449,876.367
649.581,876.567
649.713,875.967
649.844,876.267
649.976,876.9
650.108,876.1
650.239,876.433
650.371,875.067
650.503,876.3
650.634,874.533
650.766,873.5
650.897,874.533
651.029,873.467
651.161,876.4
651.292,874.867
651.424,877.567
651.556,875.133
651.687,873.633
651.819,873.833
651.95,873.567
652.082,874.5
652.214,874.033
652.345,873.567
652.477,875.3
652.608,873.833
652.74,873.267
652.872,873.533
653.003,873.033
653.135,874.833
653.266,873.133
653.398,872.533
653.529,872.767
653.661,872.567
653.793,873.133
653.924,871.867
654.056,872.433
654.187,871.633
654.319,872.533
654.45,872.267
654.582,872.0
654.714,870.867
654.845,871.2
654.977,870.4
655.108,872.6
655.24,871.367
655.371,872.367
655.503,871.067
655.634,872.133
655.766,871.467
655.897,871.6
656.029,870.5
656.161,870.4
656.292,870.067
656.424,869.867
656.555,871.3
656.687,871.4
656.818,870.5
656.95,869.9
657.081,872.0
657.213,869.833
657.344,870.733
657.476,870.5
657.607,869.433
657.739,870.167
657.87,867.967
658.002,868.6
658.133,869.5
658.265,869.9
658.396,870.9
658.528,868.733
658.659,870.433
658.791,868.767
658.922,868.9
659.054,867.7
659.185,868.733
659.317,868.1
659.448,869.433
659.58,868.3
659.711,868.6
659.843,868.167
659.974,868.433
660.106,868.133
660.237,867.4
660.368,867.533
660.5,867.967
660.631,866.567
660.763,868.2
660.894,865.9
661.026,864.933
661.157,865.9
661.289,866.0
661.42,865.0
661.552,865.067
661.683,863.2
661.815,864.733
661.946,864.533
662.077,864.9
662.209,863.767
662.34,862.9
662.472,863.533
662.603,862.533
662.735,863.6
662.866,864.033
662.997,862.533
663.129,862.367