File: spectra/VLFR_01-LDPE_bio_Raman_1a981731.csv
nm,Intensity
528.626,1866.5
528.795,1865.6
528.963,1863.2
529.132,1865.2
529.3,1863.3
529.469,1864.8
529.637,1865.4
529.806,1866.6
529.974,1864.8
530.143,1866.1
530.311,1864.8
530.48,1865.7
530.648,1866.7
530.816,1866.8
530.985,1867.4
531.153,1868.4
531.322,1869.3
531.49,1869.7
531.658,1899.7
531.827,2397.3
531.995,3883.1
532.164,3580.1
532.332,2172.4
532.5,1869.5
532.669,1866.3
532.837,1866.6
533.006,1867.9
533.174,1867.4
533.342,1866.7
533.511,1880.1
533.679,1956.6
533.847,2101.2
534.016,2211.1
534.184,2241.3
534.352,2248.7
534.521,2230.3
534.689,2230.7
534.857,2240.9
535.025,2263.9
535.194,2270.9
535.362,2254.8
535.53,2249.9
535.699,2284.2
535.867,2267.1
536.035,2237.2
536.203,2226.4
536.372,2210.1
536.54,2198.4
536.708,2207.6
536.876,2201.5
537.044,2211.5
537.213,2230.0
537.381,2246.0
537.549,2229.5
537.717,2218.5
537.885,2205.6
538.054,2197.9
538.222,2199.2
538.39,2190.8
538.558,2201.3
538.726,2184.4
538.894,2185.3
539.063,2172.6
539.231,2177.2
539.399,2171.5
539.567,2168.8
539.735,2174.3
539.903,2188.1
540.071,2191.3
540.239,2191.1
540.408,2174.4
540.576,2173.4
540.744,2176.1
540.912,2195.2
541.08,2202.2
541.248,2207.0
541.416,2182.0
541.584,2182.9
541.752,2179.9
541.92,2186.7
542.088,2179.8
542.256,2180.9
542.424,2184.4
542.592,2199.6
542.76,2192.8
542.928,2181.9
543.096,2201.5
543.264,2184.5
543.432,2189.8
543.6,2200.8
543.768,2233.8
543.936,2286.0
544.104,2307.6
544.272,2289.8
544.44,2231.9
544.608,2205.9
544.776,2203.9
544.944,2212.4
545.112,2217.6
545.28,2225.6
545.448,2198.9
545.616,2219.7
545.784,2252.1
545.951,2278.3
546.119,2353.4
546.287,2545.3
546.455,2703.6
546.623,2570.8
546.791,2371.8
546.959,2282.6
547.127,2263.3
547.294,2240.8
547.462,2226.6
547.63,2210.0
547.798,2225.8
547.966,2223.5
548.134,2225.8
548.301,2229.1
548.469,2229.6
548.637,2253.0
548.805,2235.6
548.972,2251.6
549.14,2273.0
549.308,2273.9
549.476,2257.0
549.644,2255.0
549.811,2276.4
549.979,2298.8
550.147,2323.2
550.315,2340.3
550.482,2299.9
550.65,2259.7
550.818,2250.3
550.985,2246.1
551.153,2235.4
551.321,2226.5
551.488,2248.2
551.656,2246.0
551.824,2252.9
551.991,2254.9
552.159,2241.8
552.327,2249.0
552.494,2228.8
552.662,2231.8
552.83,2231.0
552.997,2226.8
553.165,2251.3
553.333,2257.5
553.5,2261.4
553.668,2254.3
553.835,2270.9
554.003,2277.3
554.171,2265.9
554.338,2261.5
554.506,2253.2
554.673,2274.9
554.841,2271.8
555.008,2275.1
555.176,2271.6
555.343,2274.4
555.511,2276.4
555.679,2287.4
555.846,2283.3
556.014,2285.6
556.181,2268.8
556.349,2295.1
556.516,2282.6
556.684,2283.1
556.851,2299.2
557.018,2288.5
557.186,2296.6
557.353,2300.2
557.521,2304.6
557.688,2322.0
557.856,2324.6
558.023,2323.7
558.191,2323.4
558.358,2317.2
558.525,2328.5
558.693,2300.4
558.86,2313.7
559.028,2316.6
559.195,2310.9
559.362,2313.3
559.53,2313.2
559.697,2346.8
559.864,2300.8
560.032,2331.6
560.199,2324.5
560.366,2322.5
560.534,2341.8
560.701,2346.6
560.868,2352.9
561.036,2341.6
561.203,2361.5
561.37,2375.5
561.538,2371.2
561.705,2421.6
561.872,2548.3
562.039,3004.5
562.207,4038.4
562.374,4341.8
562.541,3138.6
562.708,2529.4
562.876,2427.8
563.043,2411.9
563.21,2407.1
563.377,2394.9
563.545,2420.5
563.712,2491.0
563.879,2591.2
564.046,2657.1
564.213,2574.9
564.38,2502.0
564.548,2492.6
564.715,2491.2
564.882,2484.1
565.049,2446.2
565.216,2451.3
565.383,2456.7
565.551,2484.5
565.718,2500.3
565.885,2608.8
566.052,2776.4
566.219,2824.6
566.386,2748.5
566.553,2680.8
566.72,2594.5
566.887,2534.1
567.054,2500.3
567.221,2475.8
567.388,2494.2
567.555,2491.3
567.722,2488.4
567.889,2478.3
568.057,2478.6
568.224,2473.4
568.391,2479.0
568.558,2490.7
568.725,2494.5
568.892,2515.7
569.058,2524.8
569.225,2544.3
569.392,2516.4
569.559,2543.5
569.726,2560.0
569.893,2573.6
570.06,2577.1
570.227,2573.0
570.394,2596.3
570.561,2607.4
570.728,2610.0
570.895,2655.0
571.062,2654.7
571.229,2772.4
571.395,2975.3
571.562,3185.3
571.729,2974.2
571.896,2847.6
572.063,2805.1
572.23,2792.8
572.397,2768.3
572.563,2779.5
572.73,2777.4
572.897,2778.7
573.064,2805.5
573.231,2787.4
573.397,2857.3
573.564,2861.5
573.731,2859.1
573.898,2887.8
574.064,2913.1
574.231,2932.7
574.398,2917.3
574.565,2944.3
574.731,2963.8
574.898,2969.0
575.065,3017.0
575.232,3048.2
575.398,3210.4
575.565,3288.5
575.732,3351.7
575.898,3338.3
576.065,3493.0
576.232,3660.6
576.398,3657.0
576.565,3612.5
576.732,3620.5
576.898,3626.9
577.065,3667.0
577.232,3553.4
577.398,3593.2
577.565,3608.3
577.731,3556.3
577.898,3636.4
578.065,3650.7
578.231,3681.5
578.398,3681.4
578.564,3723.0
578.731,3841.5
578.897,3856.9
579.064,3937.8
579.23,3962.3
579.397,3997.0
579.563,4071.9
579.73,4069.9
579.896,4136.0
580.063,4244.4
580.229,4261.9
580.396,4365.4
580.562,4458.6
580.729,4416.1
580.895,4441.4
581.062,4594.5
581.228,4655.1
581.395,4626.0
581.561,4682.0
581.728,4792.9
581.894,4719.0
582.06,4858.2
582.227,4954.5
582.393,4923.1
582.56,5001.5
582.726,5088.1
582.892,5078.7
583.059,5117.9
583.225,5180.4
583.391,5330.0
583.558,5291.1
583.724,5350.2
583.89,5402.5
584.057,5402.3
584.223,5501.9
584.389,5634.0
584.556,5500.6
584.722,5466.4
584.888,5639.1
585.054,5677.9
585.221,5804.0
585.387,5711.4
585.553,5794.2
585.719,5863.8
585.886,5858.0
586.052,5996.7
586.218,6077.9
586.384,6148.3
586.55,6079.6
586.717,6209.4
586.883,6288.2
587.049,6319.9
587.215,6421.1
587.381,6389.1
587.548,6737.1
587.714,6532.9
587.88,6754.3
588.046,6793.5
588.212,6652.2
588.378,6860.7
588.544,6840.4
588.71,7033.0
588.876,7068.3
589.043,7081.7
589.209,7310.2
589.375,7053.9
589.541,7199.3
589.707,7325.3
589.873,7411.8
590.039,7596.0
590.205,7548.5
590.371,7577.4
590.537,7787.5
590.703,7816.8
590.869,7895.3
591.035,7996.9
591.201,7832.8
591.367,7924.3
591.533,7997.1
591.699,8070.4
591.865,8393.3
592.031,8039.1
592.197,8312.1
592.363,8205.2
592.529,8110.2
592.694,8379.9
592.86,8384.8
593.026,8311.1
593.192,8490.9
593.358,8244.9
593.524,8423.5
593.69,8455.2
593.856,8287.0
594.021,8538.4
594.187,8411.7
594.353,8413.4
594.519,8432.5
594.685,8688.4
594.851,8380.8
595.016,8541.3
595.182,8590.0
595.348,8654.7
595.514,8727.5
595.68,8544.3
595.845,8578.4
596.011,8649.4
596.177,8764.8
596.342,8662.9
596.508,8690.0
596.674,8892.3
596.84,8891.3
597.005,8735.0
597.171,8581.9
597.337,8930.9
597.502,8884.4
597.668,8830.2
597.834,8762.8
597.999,9086.7
598.165,8923.0
598.331,8907.9
598.496,8941.1
598.662,8945.0
598.828,8974.5
598.993,9110.8
599.159,8957.1
599.324,9068.0
599.49,9233.1
599.656,9209.7
599.821,9120.8
599.987,9065.9
600.152,9177.3
600.318,9067.9
600.483,9246.8
600.649,9108.0
600.814,9112.8
600.98,9248.8
601.145,9103.3
601.311,9104.7
601.476,8926.1
601.642,9308.4
601.807,8986.9
601.973,8874.3
602.138,8862.5
602.304,9051.1
602.469,8725.9
602.635,8873.3
602.8,8788.1
602.965,8683.5
603.131,8787.2
603.296,8679.9
603.462,8587.9
603.627,8464.8
603.792,8530.5
603.958,8432.6
604.123,8305.3
604.288,8129.7
604.454,8331.3
604.619,8225.0
604.784,8090.2
604.95,7957.7
605.115,7818.8
605.28,7770.9
605.446,7727.4
605.611,7669.4
605.776,7621.3
605.941,7576.5
606.107,7478.9
606.272,7410.9
606.437,7384.2
606.602,7325.9
606.767,7293.8
606.933,7092.0
607.098,7135.3
607.263,7087.4
607.428,6950.0
607.593,6961.6
607.759,6826.5
607.924,6852.2
608.089,6714.1
608.254,6778.2
608.419,6691.9
608.584,6510.2
608.749,6561.7
608.915,6561.4
609.08,6476.9
609.245,6379.4
609.41,6369.0
609.575,6398.6
609.74,6316.6
609.905,6265.8
610.07,6163.6
610.235,6218.1
610.4,6264.7
610.565,6214.4
610.73,6107.2
610.895,6035.9
611.06,6101.8
611.225,6024.2
611.39,5924.2
611.555,6024.0
611.72,5928.8
611.885,5943.7
612.05,5786.9
612.215,5785.8
612.38,5891.5
612.545,5788.4
612.71,5683.3
612.875,5722.5
613.04,5696.1
613.204,5636.5
613.369,5641.9
613.534,5528.4
613.699,5600.6
613.864,5512.0
614.029,5578.0
614.194,5456.8
614.358,5432.3
614.523,5509.2
614.688,5463.6
614.853,5351.8
615.018,5346.4
615.182,5352.1
615.347,5323.9
615.512,5373.6
615.677,5281.9
615.841,5231.3
616.006,5261.1
616.171,5178.9
616.336,5147.1
616.5,5066.2
616.665,5151.4
616.83,5133.2
616.994,5060.4
617.159,5043.7
617.324,5101.7
617.489,5018.9
617.653,4979.1
617.818,4928.5
617.982,4912.6
618.147,5045.0
618.312,4935.8
618.476,4841.6
618.641,4919.0
618.805,4786.6
618.97,4805.5
619.135,4777.6
619.299,4849.3
619.464,4813.0
619.628,4844.9
619.793,4849.5
619.957,4802.9
620.122,4742.8
620.286,4679.6
620.451,4759.0
620.615,4675.1
620.78,4766.1
620.944,4753.4
621.109,4684.5
621.273,4682.2
621.438,4634.7
621.602,4707.3
621.767,4798.5
621.931,4666.9
622.095,4726.8
622.26,4674.7
622.424,4698.6
622.589,4676.3
622.753,4581.9
622.917,4620.5
623.082,4641.7
623.246,4560.5
623.41,4549.9
623.575,4553.1
623.739,4602.4
623.903,4526.2
624.068,4565.5
624.232,4490.0
624.396,4518.2
624.561,4543.1
624.725,4500.0
624.889,4535.2
625.053,4502.1
625.218,4532.5
625.382,4473.9
625.546,4512.9
625.71,4470.5
625.875,4577.0
626.039,4509.6
626.203,4664.7
626.367,4542.6
626.531,4704.3
626.695,4975.6
626.86,5414.5
627.024,6047.5
627.188,6315.5
627.352,6368.4
627.516,6056.3
627.68,5878.5
627.844,5726.3
628.008,5687.8
628.172,5767.4
628.337,6199.8
628.501,6502.9
628.665,6288.2
628.829,6186.4
628.993,6013.9
629.157,5812.9
629.321,5697.5
629.485,5679.0
629.649,5596.6
629.813,5323.0
629.977,5456.0
630.141,5323.3
630.305,5300.5
630.469,5318.4
630.633,5236.2
630.797,5103.2
630.96,4985.8
631.124,4949.6
631.288,4712.5
631.452,4772.8
631.616,4666.2
631.78,4701.7
631.944,4610.8
632.108,4639.5
632.272,4653.6
632.435,4726.2
632.599,4604.8
632.763,4663.7
632.927,4639.1
633.091,4627.1
633.254,4719.3
633.418,4783.0
633.582,4684.0
633.746,4612.9
633.91,4723.5
634.073,4706.5
634.237,4686.6
634.401,4676.1
634.564,4631.3
634.728,4719.9
634.892,4745.3
635.056,4784.6
635.219,4717.3
635.383,4677.6
635.547,4755.3
635.71,4760.6
635.874,4726.0
636.038,4745.2
636.201,4756.7
636.365,4778.2
636.528,4815.4
636.692,4744.9
636.856,4822.4
637.019,4813.2
637.183,4830.8
637.346,4776.4
637.51,4815.8
637.673,4862.9
637.837,4823.0
638.0,4730.4
638.164,4936.5
638.327,4816.8
638.491,4944.6
638.654,4803.6
638.818,4865.0
638.981,4924.1
639.145,4832.8
639.308,4853.5
639.472,4891.9
639.635,4734.8
639.799,4991.3
639.962,4944.7
640.125,4911.4
640.289,4903.2
640.452,4840.5
640.616,4869.7
640.779,4893.0
640.942,4871.7
641.106,4947.9
641.269,4948.5
641.432,4900.6
641.596,5012.9
641.759,4879.5
641.922,4967.7
642.085,4888.7
642.249,5010.3
642.412,5038.6
642.575,4995.7
642.738,5049.3
642.902,4973.0
643.065,4948.5
643.228,4947.9
643.391,5039.2
643.555,4971.0
643.718,5013.0
643.881,4998.0
644.044,5102.8
644.207,5031.5
644.37,5058.4
644.534,4927.6
644.697,4948.6
644.86,5037.1
645.023,5045.9
645.186,5050.5
645.349,5023.5
645.512,5006.9
645.675,4967.1
645.838,4924.9
646.001,4978.9
646.164,4951.9
646.327,5000.6
646.49,5003.0
646.653,4914.5
646.816,4918.5
646.979,4983.4
647.142,4946.4
647.305,4893.2
647.468,4911.8
647.631,4812.0
647.794,4811.3
647.957,4903.3
648.12,4858.9
648.283,4897.7
648.446,4832.8
648.609,4771.9
648.772,4906.2
648.935,4930.1
649.098,4755.9
649.26,4747.5
649.423,4866.8
649.586,4844.2
649.749,4803.5
649.912,4798.9
650.075,4790.9
650.237,4805.1
650.4,4805.2
650.563,4781.6
650.726,4653.7
650.888,4674.7
651.051,4752.2
651.214,4760.0
651.377,4615.7
651.539,4664.7
651.702,4585.3
651.865,4649.6
652.027,4619.5
652.19,4625.1
652.353,4520.5
652.515,4603.4
652.678,4628.6
652.841,4603.4
653.003,4599.9
653.166,4458.2
653.329,4499.6
653.491,4508.7
653.654,4492.2
653.816,4482.2
653.979,4526.8
654.142,4515.4
654.304,4553.2
654.467,4519.4
654.629,4360.0
654.792,4306.2
654.954,4417.2
655.117,4356.8
655.279,4308.7
655.442,4365.4
655.604,4389.4
655.767,4345.5
655.929,4315.9
656.091,4334.7
656.254,4233.8
656.416,4222.6
656.579,4262.4
656.741,4228.6
656.904,4141.7
657.066,4266.2
657.228,4141.1
657.391,4160.7
657.553,4151.7
657.715,4045.1
657.878,4073.1
658.04,4053.9
658.202,4030.9
658.365,4030.3
658.527,4030.2
658.689,3967.8
658.851,3887.9
659.014,3856.9
659.176,3829.6
659.338,3791.5
659.5,3679.6
659.663,3874.4
659.825,3854.0
659.987,3794.6
660.149,3681.7
660.311,3661.7
660.474,3695.2
660.636,3637.7
660.798,3690.4
660.96,3637.4
661.041,3639.8