File: spectra/VLFR_01-LDPE_nobio_Raman_2d5b0677.csv
cm-1,Intensity
-123.878,1853.15
-117.855,1853.0
-111.836,1852.65
-105.821,1852.4
-99.8104,1853.85
-93.8036,1853.3
-87.8007,1853.1
-81.8019,1852.85
-75.807,1852.2
-69.8161,1852.6
-63.8293,1851.85
-57.8464,1853.15
-51.8675,1853.35
-45.8926,1852.45
-39.9216,1854.2
-33.9547,1854.5
-27.9917,1854.85
-22.0326,1858.4
-16.0776,1872.25
-10.1265,2172.1
-4.17932,3797.25
1.76388,3338.0
7.70313,1973.7
13.6384,1855.15
19.5698,1854.0
25.4972,1853.85
31.4207,1853.7
37.3403,1854.65
43.256,1855.7
49.1677,1866.95
55.0755,1946.3
60.9794,2085.9
66.8794,2156.9
72.7754,2172.25
78.6676,2154.95
84.5559,2157.4
90.4402,2153.7
96.3207,2155.0
102.197,2146.0
108.07,2138.6
113.939,2145.25
119.804,2133.95
125.665,2123.6
131.522,2120.85
137.375,2121.45
143.225,2111.5
149.07,2105.9
154.912,2098.1
160.75,2103.2
166.584,2099.25
172.414,2107.45
178.241,2106.45
184.063,2112.6
189.882,2109.45
195.697,2116.3
201.508,2111.25
207.315,2116.0
213.119,2117.9
218.918,2121.3
224.714,2122.95
230.506,2126.25
236.294,2145.95
242.078,2164.4
247.859,2157.25
253.636,2138.05
259.409,2105.45
265.178,2109.1
270.943,2097.65
276.705,2095.2
282.463,2090.8
288.217,2083.6
293.967,2089.0
299.713,2083.6
305.456,2089.3
311.195,2086.55
316.93,2088.4
322.662,2080.8
328.389,2083.4
334.113,2082.95
339.834,2086.85
345.55,2075.9
351.263,2085.9
356.972,2085.9
362.677,2096.35
368.379,2091.5
374.077,2099.9
379.771,2095.3
385.461,2093.6
391.148,2093.3
396.831,2084.3
402.51,2078.55
408.186,2083.2
413.858,2088.85
419.526,2083.75
425.19,2078.35
430.851,2074.7
436.508,2077.2
442.162,2088.4
447.811,2076.8
453.458,2073.1
459.1,2073.25
464.739,2076.95
470.374,2080.35
476.005,2085.0
481.633,2075.15
487.257,2072.9
492.878,2076.15
498.494,2082.5
504.107,2084.1
509.717,2078.85
515.323,2078.0
520.925,2087.6
526.524,2075.6
532.119,2075.2
537.71,2074.9
543.298,2079.65
548.882,2080.1
554.462,2083.05
560.039,2086.85
565.613,2085.45
571.182,2079.7
576.748,2077.45
582.311,2083.75
587.87,2084.3
593.425,2079.8
598.977,2077.6
604.525,2077.9
610.069,2080.9
615.61,2080.7
621.148,2084.75
626.682,2088.95
632.212,2095.05
637.739,2092.5
643.262,2096.3
648.781,2103.8
654.297,2098.45
659.81,2093.75
665.319,2100.35
670.824,2097.35
676.326,2098.15
681.824,2096.2
687.319,2090.7
692.81,2082.1
698.298,2081.8
703.782,2078.45
709.262,2073.3
714.739,2092.55
720.213,2086.05
725.683,2086.85
731.15,2088.75
736.613,2091.2
742.072,2087.65
747.528,2106.85
752.981,2087.7
758.43,2091.1
763.875,2094.4
769.317,2096.9
774.756,2098.4
780.191,2104.45
785.623,2093.45
791.051,2096.4
796.475,2100.95
801.897,2105.1
807.314,2098.6
812.729,2098.5
818.139,2111.55
823.547,2100.0
828.951,2109.9
834.351,2098.9
839.748,2116.15
845.142,2106.4
850.532,2106.8
855.918,2117.15
861.302,2132.85
866.681,2123.2
872.058,2120.7
877.431,2126.55
882.8,2130.3
888.166,2124.95
893.529,2116.55
898.888,2127.45
904.244,2121.5
909.596,2122.0
914.945,2116.55
920.291,2114.85
925.633,2116.25
930.972,2108.7
936.308,2102.75
941.64,2102.1
946.968,2125.05
952.294,2120.6
957.615,2121.35
962.934,2122.45
968.249,2118.95
973.561,2120.8
978.869,2126.0
984.174,2121.7
989.476,2133.35
994.774,2130.85
1000.07,2134.7
1005.36,2136.35
1010.65,2136.2
1015.93,2137.85
1021.22,2143.85
1026.49,2159.45
1031.77,2168.15
1037.04,2161.75
1042.31,2177.45
1047.57,2185.45
1052.83,2232.2
1058.09,2350.65
1063.35,2424.8
1068.6,2328.25
1073.85,2244.55
1079.09,2241.0
1084.33,2234.0
1089.57,2229.9
1094.81,2223.0
1100.04,2193.5
1105.27,2184.3
1110.49,2216.2
1115.71,2226.8
1120.93,2320.1
1126.15,2438.2
1131.36,2414.75
1136.57,2284.75
1141.77,2214.35
1146.98,2191.25
1152.18,2188.8
1157.37,2192.65
1162.56,2190.9
1167.75,2195.8
1172.94,2202.8
1178.12,2182.45
1183.3,2188.2
1188.48,2186.9
1193.65,2188.65
1198.82,2174.75
1203.99,2177.9
1209.15,2180.9
1214.31,2186.65
1219.46,2188.75
1224.62,2195.0
1229.77,2178.7
1234.92,2191.7
1240.06,2205.25
1245.2,2208.5
1250.34,2207.3
1255.47,2207.25
1260.6,2229.85
1265.73,2232.7
1270.85,2234.95
1275.97,2258.75
1281.09,2268.75
1286.21,2370.9
1291.32,2598.7
1296.43,2745.05
1301.53,2554.65
1306.63,2403.45
1311.73,2352.75
1316.83,2312.2
1321.92,2300.6
1327.01,2274.7
1332.1,2263.45
1337.18,2252.1
1342.26,2248.1
1347.34,2231.9
1352.41,2240.45
1357.48,2247.4
1362.55,2246.8
1367.61,2267.55
1372.67,2245.0
1377.73,2247.05
1382.78,2225.65
1387.84,2218.65
1392.88,2215.8
1397.93,2226.65
1402.97,2234.15
1408.01,2266.75
1413.05,2345.7
1418.08,2414.15
1423.11,2436.3
1428.14,2468.85
1433.16,2564.6
1438.18,2691.35
1443.2,2662.1
1448.21,2608.4
1453.22,2541.5
1458.23,2521.75
1463.23,2518.2
1468.23,2438.05
1473.23,2354.55
1478.23,2299.45
1483.22,2284.3
1488.21,2272.5
1493.2,2241.3
1498.18,2254.9
1503.16,2248.7
1508.14,2238.1
1513.11,2242.7
1518.08,2240.65
1523.05,2254.35
1528.01,2244.1
1532.97,2252.65
1537.93,2253.7
1542.89,2258.45
1547.84,2246.6
1552.79,2263.8
1557.73,2269.2
1562.68,2251.6
1567.62,2262.3
1572.56,2248.85
1577.49,2253.85
1582.42,2252.75
1587.35,2269.8
1592.27,2274.15
1597.19,2265.95
1602.11,2250.35
1607.03,2278.75
1611.94,2266.9
1616.85,2275.65
1621.76,2284.6
1626.66,2287.35
1631.56,2284.75
1636.46,2269.4
1641.36,2283.65
1646.25,2280.95
1651.14,2289.25
1656.02,2301.15
1660.9,2285.7
1665.78,2308.75
1670.66,2296.65
1675.54,2298.25
1680.41,2296.95
1685.27,2316.35
1690.14,2308.9
1695.0,2309.5
1699.86,2314.1
1704.71,2317.8
1709.57,2317.65
1714.42,2333.15
1719.26,2328.25
1724.11,2319.5
1728.95,2338.25
1733.79,2334.65
1738.62,2361.3
1743.46,2364.55
1748.28,2370.65
1753.11,2374.05
1757.93,2366.95
1762.75,2385.25
1767.57,2381.0
1772.39,2367.85
1777.2,2403.5
1782.01,2399.2
1786.81,2417.6
1791.62,2428.0
1796.41,2434.45
1801.21,2432.05
1806.01,2435.1
1810.8,2442.6
1815.59,2438.55
1820.37,2444.65
1825.15,2446.3
1829.93,2444.55
1834.71,2456.6
1839.48,2475.1
1844.25,2486.7
1849.02,2484.0
1853.79,2510.5
1858.55,2502.1
1863.31,2509.9
1868.06,2539.45
1872.82,2543.55
1877.57,2542.7
1882.31,2551.0
1887.06,2555.9
1891.8,2557.9
1896.54,2545.75
1901.28,2569.9
1906.01,2573.35
1910.74,2593.85
1915.47,2581.05
1920.19,2582.5
1924.91,2580.4
1929.63,2590.5
1934.35,2612.2
1939.06,2579.55
1943.77,2615.15
1948.48,2611.05
1953.19,2623.75
1957.89,2626.9
1962.59,2641.25
1967.28,2630.55
1971.98,2657.5
1976.67,2633.4
1981.35,2652.95
1986.04,2660.55
1990.72,2670.2
1995.4,2673.8
2000.08,2682.75
2004.75,2684.8
2009.42,2696.1
2014.09,2735.15
2018.75,2708.85
2023.42,2770.7
2028.08,2720.0
2032.73,2717.75
2037.39,2733.15
2042.04,2751.9
2046.69,2764.4
2051.33,2753.85
2055.97,2783.75
2060.61,2785.1
2065.25,2777.15
2069.88,2787.35
2074.52,2818.25
2079.15,2809.05
2083.77,2834.6
2088.39,2821.55
2093.01,2823.35
2097.63,2851.6
2102.25,2835.3
2106.86,2870.55
2111.47,2861.05
2116.08,2875.15
2120.68,2887.25
2125.28,2906.7
2129.88,2874.1
2134.47,2881.65
2139.07,2867.8
2143.66,2903.05
2148.24,2903.45
2152.83,2911.65
2157.41,2932.9
2161.99,2898.3
2166.57,2892.45
2171.14,2879.45
2175.71,2894.85
2180.28,2894.1
2184.84,2901.8
2189.41,2900.85
2193.97,2893.15
2198.52,2873.45
2203.08,2870.95
2207.63,2874.35
2212.18,2885.9
2216.73,2826.4
2221.27,2871.25
2225.81,2826.3
2230.35,2807.6
2234.89,2818.4
2239.42,2827.6
2243.95,2806.05
2248.48,2796.25
2253.0,2771.6
2257.52,2771.35
2262.04,2770.25
2266.56,2740.8
2271.07,2758.45
2275.58,2721.6
2280.09,2704.8
2284.6,2722.05
2289.1,2694.75
2293.6,2699.85
2298.1,2684.0
2302.6,2665.9
2307.09,2668.5
2311.58,2647.2
2316.07,2657.45
2320.55,2656.55
2325.03,2625.6
2329.51,2638.45
2333.99,2620.9
2338.46,2613.8
2342.93,2589.1
2347.4,2626.8
2351.87,2593.9
2356.33,2562.25
2360.79,2569.4
2365.25,2589.4
2369.71,2578.85
2374.16,2565.0
2378.61,2539.4
2383.06,2551.2
2387.5,2540.5
2391.94,2554.9
2396.38,2537.85
2400.82,2532.7
2405.26,2541.95
2409.69,2513.4
2414.12,2528.6
2418.54,2536.85
2422.97,2530.6
2427.39,2530.1
2431.81,2534.75
2436.22,2528.25
2440.64,2504.9
2445.05,2509.75
2449.46,2489.35
2453.86,2471.45
2458.27,2501.45
2462.67,2481.8
2467.06,2471.8
2471.46,2497.6
2475.85,2450.95
2480.24,2508.15
2484.63,2478.7
2489.02,2466.9
2493.4,2437.5
2497.78,2463.1
2502.16,2458.5
2506.53,2447.0
2510.9,2461.7
2515.27,2455.9
2519.64,2467.0
2524.0,2449.8
2528.37,2440.0
2532.73,2433.05
2537.08,2435.35
2541.44,2455.2
2545.79,2428.7
2550.14,2435.7
2554.48,2432.2
2558.83,2427.95
2563.17,2442.85
2567.51,2440.2
2571.85,2414.9
2576.18,2408.0
2580.51,2432.7
2584.84,2435.25
2589.17,2435.65
2593.49,2429.55
2597.81,2435.8
2602.13,2438.9
2606.45,2438.9
2610.76,2427.85
2615.07,2435.15
2619.38,2427.8
2623.69,2441.6
2627.99,2411.25
2632.29,2412.9
2636.59,2421.75
2640.89,2428.4
2645.18,2412.95
2649.47,2431.1
2653.76,2424.9
2658.05,2456.25
2662.33,2433.2
2666.61,2421.8
2670.89,2437.15
2675.17,2438.05
2679.44,2425.95
2683.71,2450.25
2687.98,2449.0
2692.25,2443.95
2696.51,2462.95
2700.77,2474.9
2705.03,2504.95
2709.29,2532.9
2713.54,2555.0
2717.79,2563.2
2722.04,2573.95
2726.29,2565.4
2730.53,2527.55
2734.77,2488.55
2739.01,2461.75
2743.25,2433.6
2747.48,2409.75
2751.71,2424.2
2755.94,2383.7
2760.17,2397.9
2764.39,2400.9
2768.61,2379.15
2772.83,2390.65
2777.05,2377.35
2781.27,2384.4
2785.48,2385.6
2789.69,2390.0
2793.89,2381.8
2798.1,2389.15
2802.3,2403.95
2806.5,2422.95
2810.7,2423.25
2814.89,2430.85
2819.09,2471.8
2823.28,2532.5
2827.46,2644.15
2831.65,2870.9
2835.83,3285.85
2840.01,4039.6
2844.19,4908.5
2848.37,5384.85
2852.54,5313.65
2856.71,4842.8
2860.88,4492.0
2865.05,4312.4
2869.21,4231.7
2873.37,4479.05
2877.53,4948.15
2881.69,5454.55
2885.84,5183.15
2889.99,4686.6
2894.14,4366.25
2898.29,4324.0
2902.43,4148.4
2906.58,4028.5
2910.72,3847.35
2914.85,3683.35
2918.99,3615.05
2923.12,3511.1
2927.25,3555.0
2931.38,3474.3
2935.5,3360.8
2939.63,3151.6
2943.75,2938.7
2947.87,2748.05
2951.98,2633.9
2956.1,2567.2
2960.21,2510.2
2964.32,2490.45
2968.42,2446.65
2972.53,2414.6
2976.63,2380.05
2980.73,2354.5
2984.83,2375.65
2988.92,2356.8
2993.01,2336.35
2997.1,2339.0
3001.19,2337.25
3005.28,2322.45
3009.36,2306.65
3013.44,2315.0
3017.52,2314.6
3021.6,2313.25
3025.67,2296.25
3029.74,2293.4
3033.81,2280.7
3037.88,2288.5
3041.94,2309.6
3046.01,2296.2
3050.07,2282.05
3054.12,2270.3
3058.18,2274.1
3062.23,2280.35
3066.28,2268.7
3070.33,2276.3
3074.38,2276.65
3078.42,2281.9
3082.46,2279.9
3086.5,2276.55
3090.54,2279.4
3094.57,2272.6
3098.6,2278.0
3102.63,2254.2
3106.66,2274.0
3110.69,2261.85
3114.71,2267.7
3118.73,2275.3
3122.75,2265.1
3126.77,2275.7
3130.78,2257.3
3134.79,2272.55
3138.8,2266.35
3142.81,2280.05
3146.81,2284.75
3150.82,2260.0
3154.82,2263.05
3158.81,2264.25
3162.81,2287.85
3166.8,2279.75
3170.79,2296.0
3174.78,2274.85
3178.77,2272.5
3182.75,2266.5
3186.74,2254.95
3190.72,2271.4
3194.69,2298.85
3198.67,2293.8
3202.64,2268.75
3206.61,2291.85
3210.58,2274.5
3214.55,2281.75
3218.51,2294.55
3222.47,2303.05
3226.43,2306.8
3230.39,2287.5
3234.35,2305.1
3238.3,2293.6
3242.25,2293.6
3246.2,2301.35
3250.15,2296.35
3254.09,2312.7
3258.03,2313.65
3261.97,2281.85
3265.91,2311.7
3269.84,2298.5
3273.78,2309.0
3277.71,2305.65
3281.64,2312.9
3285.56,2308.45
3289.49,2329.5
3293.41,2299.85
3297.33,2332.45
3301.25,2279.8
3305.16,2301.4
3309.07,2318.55
3312.99,2313.0
3316.89,2297.5
3320.8,2302.8
3324.7,2291.55
3328.61,2303.95
3332.51,2326.95
3336.4,2301.45
3340.3,2299.7
3344.19,2301.95
3348.08,2302.35
3351.97,2313.95
3355.86,2318.8
3359.74,2309.4
3363.63,2327.0
3367.51,2303.1
3371.39,2281.2
3375.26,2300.0
3379.13,2310.7
3383.01,2332.6
3386.88,2320.35
3390.74,2295.1
3394.61,2284.75
3398.47,2306.8
3402.33,2310.7
3406.19,2304.85
3410.05,2299.75
3413.9,2293.65
3417.75,2297.05
3421.6,2320.35
3425.45,2328.3
3429.3,2306.65
3433.14,2301.6
3436.98,2317.4
3440.82,2308.05
3444.66,2317.1
3448.49,2280.9
3452.32,2292.6
3456.15,2317.2
3459.98,2314.95
3463.81,2300.6
3467.63,2295.2
3471.46,2299.3
3475.28,2310.1
3479.09,2319.05
3482.91,2295.3
3486.72,2295.3
3490.53,2292.25
3494.34,2304.6
3498.15,2309.5
3501.96,2298.3
3505.76,2279.85
3509.56,2277.15
3513.36,2291.25
3517.15,2278.05
3520.95,2279.5
3524.74,2299.05
3528.53,2282.15
3532.32,2281.65
3536.11,2267.95
3539.89,2283.05
3543.67,2290.55
3547.45,2288.9
3551.23,2257.65
3555.0,2242.85
3558.78,2247.95
3562.55,2255.5
3566.32,2245.0
3570.09,2240.95
3573.85,2255.95
3577.61,2261.45
3581.37,2262.8
3585.13,2224.4
3588.89,2247.6
3592.64,2240.6
3596.4,2231.7
3600.15,2221.85
3603.9,2224.85
3607.64,2216.55
3611.39,2222.05
3615.13,2219.15
3618.87,2214.25
3622.61,2217.55
3626.34,2181.1
3630.08,2193.25
3633.81,2204.45
3637.54,2190.3
3641.27,2189.8
3644.99,2189.85
3648.72,2182.25
3652.44,2189.8
3656.16,2185.8
3659.87,2176.85
3663.59,2165.85
3665.45,2161.85