File: spectra/VLFR_08-PLA_nobio_Raman_67de3816.csv
nm,Intensity
526.486,829.6
526.622,830.55
526.759,830.4
526.896,830.5
527.033,829.4
527.169,830.75
527.306,831.55
527.443,829.75
527.579,831.0
527.716,830.0
527.853,829.9
527.989,830.55
528.126,829.95
528.263,830.55
528.399,830.0
528.536,829.75
528.672,830.0
528.809,830.85
528.946,830.2
529.082,830.15
529.219,829.5
529.355,830.1
529.492,830.6
529.628,829.95
529.765,831.25
529.901,829.0
530.038,829.8
530.174,830.2
530.311,829.75
530.447,830.1
530.584,830.25
530.72,829.85
530.857,831.45
530.993,829.7
531.13,830.25
531.266,830.7
531.403,830.3
531.539,829.75
531.676,829.6
531.812,831.25
531.948,833.15
532.085,861.9
532.221,886.2
532.358,845.7
532.494,830.9
532.63,829.9
532.767,830.3
532.903,830.3
533.039,831.4
533.176,830.2
533.312,830.65
533.448,830.55
533.585,830.85
533.721,834.9
533.857,857.3
533.993,899.4
534.13,922.6
534.266,925.05
534.402,920.9
534.539,917.9
534.675,917.15
534.811,910.7
534.947,907.5
535.083,903.1
535.22,902.85
535.356,899.65
535.492,894.95
535.628,895.5
535.764,891.6
535.901,887.25
536.037,885.1
536.173,881.0
536.309,880.6
536.445,878.4
536.581,875.95
536.717,872.3
536.854,871.85
536.99,872.25
537.126,869.75
537.262,871.3
537.398,868.25
537.534,870.2
537.67,869.0
537.806,868.45
537.942,867.05
538.078,869.2
538.214,866.75
538.35,866.3
538.486,864.55
538.622,866.65
538.758,865.4
538.894,865.8
539.03,864.3
539.166,864.65
539.302,866.2
539.438,864.7
539.574,864.15
539.71,866.2
539.846,862.9
539.982,865.55
540.118,863.6
540.254,863.05
540.39,864.4
540.526,864.7
540.662,864.2
540.798,866.35
540.933,864.7
541.069,866.1
541.205,865.7
541.341,866.75
541.477,865.55
541.613,865.05
541.749,865.0
541.884,864.65
542.02,864.85
542.156,863.9
542.292,863.35
542.428,865.3
542.563,864.95
542.699,864.5
542.835,864.35
542.971,865.7
543.106,866.5
543.242,864.8
543.378,865.8
543.514,867.2
543.649,869.4
543.785,867.2
543.921,869.0
544.057,868.2
544.192,865.8
544.328,866.8
544.464,867.2
544.599,867.8
544.735,865.4
544.871,866.55
545.006,867.4
545.142,868.65
545.278,866.15
545.413,867.65
545.549,865.7
545.684,866.45
545.82,867.7
545.956,867.05
546.091,866.85
546.227,867.15
546.362,866.4
546.498,865.5
546.634,867.45
546.769,866.05
546.905,866.65
547.04,867.4
547.176,869.85
547.311,868.0
547.447,867.8
547.582,867.65
547.718,867.2
547.853,868.4
547.989,869.05
548.124,868.5
548.26,869.1
548.395,869.05
548.531,869.5
548.666,870.4
548.802,872.0
548.937,871.1
549.072,873.3
549.208,870.55
549.343,873.8
549.479,873.15
549.614,874.6
549.75,874.9
549.885,874.0
550.02,874.95
550.156,875.25
550.291,873.6
550.426,874.95
550.562,874.85
550.697,876.65
550.832,875.8
550.968,876.2
551.103,876.15
551.238,876.35
551.374,873.7
551.509,876.0
551.644,874.9
551.78,875.8
551.915,876.05
552.05,877.85
552.185,875.85
552.321,877.1
552.456,876.0
552.591,875.75
552.726,874.65
552.862,876.55
552.997,875.9
553.132,875.3
553.267,876.5
553.403,876.3
553.538,875.4
553.673,877.9
553.808,877.05
553.943,877.95
554.078,878.8
554.214,876.35
554.349,877.55
554.484,875.85
554.619,877.8
554.754,877.05
554.889,876.15
555.024,876.45
555.16,874.0
555.295,874.35
555.43,874.05
555.565,870.4
555.7,874.75
555.835,873.15
555.97,873.65
556.105,871.95
556.24,872.0
556.375,873.35
556.51,873.25
556.645,873.4
556.78,872.4
556.915,873.25
557.05,876.65
557.185,875.25
557.32,872.65
557.455,876.25
557.59,875.9
557.725,876.75
557.86,878.7
557.995,883.15
558.13,886.8
558.265,884.05
558.4,881.7
558.535,877.25
558.67,875.7
558.805,874.7
558.94,877.15
559.075,875.3
559.21,876.75
559.345,876.75
559.479,874.35
559.614,875.75
559.749,877.85
559.884,875.4
560.019,878.25
560.154,876.2
560.289,876.65
560.424,879.45
560.558,878.8
560.693,883.15
560.828,883.95
560.963,888.35
561.098,893.3
561.232,899.7
561.367,899.4
561.502,894.65
561.637,887.6
561.772,882.75
561.906,877.45
562.041,878.8
562.176,877.1
562.311,877.3
562.445,877.25
562.58,877.9
562.715,878.1
562.85,879.0
562.984,877.85
563.119,879.35
563.254,877.6
563.388,879.3
563.523,882.2
563.658,881.5
563.792,879.55
563.927,880.05
564.062,880.55
564.196,881.35
564.331,877.8
564.466,879.6
564.6,880.45
564.735,881.6
564.87,882.4
565.004,881.5
565.139,882.3
565.273,881.15
565.408,881.75
565.543,881.8
565.677,882.65
565.812,879.4
565.946,883.3
566.081,884.75
566.215,883.55
566.35,882.3
566.485,884.25
566.619,880.65
566.754,880.05
566.888,881.1
567.023,879.55
567.157,879.1
567.292,879.6
567.426,879.5
567.561,879.1
567.695,880.15
567.83,879.8
567.964,881.25
568.099,880.65
568.233,881.45
568.368,879.4
568.502,880.7
568.636,882.6
568.771,879.4
568.905,879.7
569.04,881.25
569.174,882.1
569.309,880.2
569.443,881.6
569.577,881.8
569.712,882.7
569.846,882.45
569.98,883.5
570.115,882.4
570.249,883.85
570.384,883.2
570.518,881.2
570.652,881.6
570.787,881.85
570.921,884.3
571.055,884.6
571.19,880.55
571.324,884.3
571.458,884.15
571.592,886.7
571.727,886.0
571.861,884.6
571.995,884.25
572.13,884.7
572.264,884.2
572.398,886.3
572.532,884.7
572.667,887.85
572.801,887.8
572.935,886.8
573.069,887.35
573.204,886.55
573.338,888.5
573.472,888.2
573.606,889.55
573.74,887.55
573.875,889.3
574.009,888.2
574.143,887.8
574.277,888.9
574.411,888.15
574.545,890.6
574.68,888.45
574.814,887.95
574.948,888.55
575.082,888.85
575.216,887.1
575.35,885.15
575.484,888.5
575.619,890.0
575.753,891.35
575.887,890.25
576.021,890.05
576.155,892.15
576.289,891.8
576.423,893.3
576.557,896.9
576.691,896.3
576.825,899.25
576.959,897.9
577.093,895.75
577.227,893.9
577.361,891.25
577.495,890.5
577.629,890.35
577.763,886.8
577.897,890.95
578.031,887.75
578.165,888.85
578.299,887.35
578.433,889.2
578.567,889.35
578.701,887.45
578.835,886.15
578.969,889.0
579.103,888.55
579.237,887.55
579.371,888.3
579.505,886.5
579.639,887.9
579.773,887.1
579.907,889.75
580.041,888.2
580.175,889.35
580.309,888.45
580.442,889.1
580.576,889.05
580.71,887.2
580.844,887.9
580.978,887.1
581.112,888.5
581.246,887.35
581.38,889.5
581.513,886.3
581.647,887.15
581.781,886.2
581.915,886.85
582.049,888.95
582.183,889.3
582.316,887.8
582.45,888.85
582.584,887.5
582.718,888.3
582.852,887.4
582.985,886.4
583.119,885.2
583.253,885.75
583.387,887.35
583.52,886.45
583.654,886.0
583.788,886.9
583.922,886.95
584.055,887.1
584.189,886.75
584.323,887.45
584.456,885.35
584.59,886.15
584.724,884.3
584.858,886.45
584.991,885.7
585.125,886.9
585.259,885.15
585.392,887.1
585.526,885.9
585.66,886.2
585.793,885.2
585.927,886.95
586.061,886.75
586.194,886.4
586.328,887.25
586.462,887.6
586.595,887.55
586.729,890.35
586.862,889.2
586.996,889.75
587.13,890.8
587.263,892.15
587.397,893.45
587.53,894.45
587.664,893.0
587.797,893.7
587.931,890.35
588.065,889.3
588.198,888.35
588.332,887.6
588.465,889.3
588.599,887.35
588.732,885.3
588.866,887.55
588.999,886.45
589.133,887.4
589.266,885.0
589.4,886.05
589.533,885.05
589.667,888.05
589.8,886.7
589.934,887.25
590.067,887.2
590.201,886.4
590.334,885.6
590.468,886.55
590.601,887.4
590.735,888.75
590.868,888.3
591.001,888.6
591.135,886.0
591.268,888.7
591.402,886.1
591.535,886.25
591.669,887.65
591.802,886.75
591.935,887.25
592.069,886.2
592.202,886.75
592.335,887.45
592.469,885.4
592.602,886.7
592.736,884.4
592.869,887.95
593.002,884.4
593.136,884.25
593.269,884.55
593.402,887.2
593.536,885.8
593.669,885.75
593.802,884.2
593.936,886.3
594.069,886.15
594.202,885.9
594.336,885.5
594.469,886.5
594.602,886.1
594.735,886.7
594.869,886.95
595.002,885.65
595.135,887.1
595.268,887.35
595.402,886.45
595.535,886.5
595.668,883.6
595.801,887.0
595.935,886.4
596.068,886.7
596.201,888.0
596.334,888.55
596.468,887.3
596.601,887.7
596.734,885.55
596.867,887.35
597.0,888.15
597.133,885.85
597.267,888.65
597.4,887.85
597.533,886.4
597.666,886.4
597.799,886.3
597.932,887.5
598.066,887.3
598.199,887.9
598.332,889.95
598.465,888.3
598.598,886.5
598.731,887.05
598.864,887.7
598.998,889.15
599.131,889.7
599.264,887.05
599.397,888.25
599.53,887.6
599.663,887.7
599.796,887.6
599.929,888.5
600.062,889.3
600.195,887.25
600.328,887.45
600.461,886.6
600.594,888.05
600.727,888.05
600.86,887.35
600.994,890.05
601.127,886.1
601.26,885.85
601.393,886.45
601.526,886.2
601.659,888.4
601.792,885.6
601.925,888.35
602.058,886.95
602.191,887.95
602.324,888.2
602.457,887.9
602.589,886.85
602.722,886.5
602.855,888.1
602.988,887.5
603.121,887.15
603.254,886.2
603.387,890.1
603.52,887.95
603.653,885.95
603.786,885.75
603.919,887.6
604.052,888.0
604.185,888.2
604.318,887.35
604.451,887.2
604.583,887.55
604.716,886.75
604.849,888.3
604.982,887.75
605.115,886.55
605.248,884.95
605.381,887.55
605.514,885.8
605.646,884.85
605.779,886.45
605.912,886.5
606.045,885.1
606.178,885.6
606.311,884.95
606.443,884.75
606.576,886.05
606.709,884.4
606.842,885.9
606.975,884.55
607.107,884.2
607.24,885.4
607.373,886.2
607.506,886.15
607.639,887.55
607.771,885.35
607.904,888.2
608.037,887.35
608.17,885.85
608.302,886.7
608.435,886.1
608.568,887.4
608.701,886.35
608.833,886.75
608.966,886.8
609.099,887.6
609.232,886.7
609.364,887.65
609.497,885.3
609.63,886.35
609.762,888.2
609.895,887.65
610.028,885.6
610.161,884.7
610.293,886.55
610.426,888.55
610.559,884.5
610.691,886.5
610.824,889.75
610.957,887.55
611.089,886.2
611.222,886.45
611.355,884.2
611.487,887.0
611.62,888.4
611.752,886.65
611.885,886.85
612.018,888.0
612.15,889.35
612.283,886.3
612.416,887.05
612.548,887.65
612.681,887.6
612.813,886.3
612.946,886.65
613.078,889.45
613.211,886.4
613.344,890.1
613.476,889.05
613.609,887.25
613.741,890.75
613.874,889.4
614.006,889.65
614.139,891.15
614.272,889.1
614.404,889.4
614.537,890.6
614.669,891.55
614.802,889.1
614.934,886.75
615.067,890.1
615.199,888.9
615.332,889.65
615.464,889.65
615.597,889.35
615.729,890.2
615.862,887.3
615.994,888.75
616.127,891.15
616.259,888.4
616.392,887.25
616.524,889.8
616.657,890.9
616.789,889.1
616.922,890.3
617.054,890.55
617.186,890.9
617.319,887.35
617.451,888.3
617.584,888.25
617.716,887.0
617.849,888.7
617.981,889.05
618.113,888.6
618.246,891.3
618.378,886.5
618.511,890.75
618.643,890.7
618.775,888.35
618.908,889.15
619.04,888.65
619.173,888.95
619.305,888.2
619.437,888.35
619.57,889.25
619.702,887.05
619.834,888.85
619.967,886.45
620.099,887.65
620.231,888.7
620.364,888.1
620.496,888.7
620.628,889.5
620.761,887.55
620.893,889.0
621.025,886.05
621.158,887.25
621.29,888.2
621.422,887.35
621.555,887.25
621.687,889.1
621.819,887.75
621.952,886.55
622.084,888.25
622.216,890.0
622.348,890.0
622.481,887.95
622.613,887.5
622.745,888.55
622.878,890.45
623.01,888.45
623.142,889.05
623.274,888.65
623.407,891.95
623.539,887.7
623.671,887.85
623.803,890.25
623.935,891.1
624.068,890.8
624.2,889.3
624.332,890.55
624.464,891.45
624.597,890.85
624.729,891.1
624.861,890.35
624.993,891.85
625.125,889.95
625.258,888.95
625.39,888.4
625.522,889.6
625.654,889.25
625.786,889.45
625.918,891.5
626.051,890.35
626.183,891.7
626.315,890.55
626.447,890.8
626.579,889.85
626.711,890.85
626.844,890.55
626.976,892.35
627.108,889.85
627.24,890.95
627.372,891.1
627.504,891.6
627.636,893.0
627.768,892.15
627.901,894.6
628.033,896.35
628.165,895.1
628.297,898.35
628.429,900.8
628.561,901.3
628.693,902.45
628.825,900.55
628.957,902.5
629.089,900.25
629.221,902.8
629.354,900.35
629.486,900.9
629.618,900.6
629.75,900.35
629.882,902.45
630.014,904.05
630.146,904.0
630.278,904.9
630.41,907.0
630.542,911.1
630.674,914.15
630.806,922.0
630.938,933.0
631.07,946.4
631.202,947.95
631.334,944.3
631.466,936.85
631.598,927.05
631.73,921.6
631.862,921.25
631.994,918.0
632.126,918.45
632.258,913.8
632.39,912.0
632.522,911.0
632.654,908.6
632.786,911.8
632.918,913.4
633.05,913.15
633.182,913.7
633.314,916.0
633.446,914.6
633.578,913.05
633.71,906.95
633.842,907.85
633.974,903.7
634.106,903.4
634.237,899.1
634.369,896.35
634.501,896.8
634.633,892.95
634.765,891.5
634.897,890.3
635.029,890.5
635.161,891.0
635.293,886.95
635.425,886.15
635.557,888.05
635.689,888.25
635.82,887.5
635.952,888.15
636.084,888.8
636.216,886.75
636.348,887.6
636.48,886.0
636.612,884.15
636.744,885.65
636.875,885.8
637.007,884.35
637.139,884.5
637.271,884.35
637.403,884.75
637.535,886.25
637.667,885.8
637.798,884.05
637.93,887.8
638.062,885.3
638.194,883.25
638.326,883.75
638.458,884.2
638.589,883.65
638.721,883.2
638.853,887.1
638.985,883.85
639.117,884.65
639.248,885.1
639.38,883.9
639.512,887.1
639.644,886.1
639.776,884.25
639.907,882.7
640.039,885.65
640.171,885.05
640.303,885.35
640.435,882.9
640.566,885.65
640.698,885.65
640.83,886.8
640.962,885.85
641.093,886.0
641.225,886.6
641.357,883.45
641.489,886.8
641.62,884.5
641.752,883.95
641.884,885.8
642.016,883.95
642.147,886.75
642.279,885.2
642.411,887.45
642.543,885.1
642.674,883.7
642.806,884.0
642.938,884.7
643.069,885.25
643.201,884.45
643.333,885.0
643.465,884.6
643.596,883.75
643.728,884.75
643.86,883.35
643.991,885.45
644.123,883.25
644.255,883.4
644.386,881.0
644.518,886.2
644.65,884.4
644.781,884.35
644.913,882.3
645.045,883.0
645.176,883.8
645.308,882.4
645.44,883.75
645.571,885.65
645.703,883.65
645.835,885.8
645.966,883.1
646.098,885.4
646.23,884.05
646.361,883.4
646.493,883.55
646.625,886.4
646.756,885.85
646.888,887.45
647.019,886.65
647.151,885.1
647.283,884.25
647.414,884.95
647.546,885.35
647.678,885.0
647.809,885.65
647.941,882.95
648.072,885.0
648.204,886.4
648.336,881.95
648.467,885.35
648.599,884.5
648.73,886.3
648.862,883.85
648.993,885.1
649.125,884.15
649.257,882.4
649.388,883.85
649.52,882.05
649.651,884.2
649.783,882.5
649.914,881.0
650.046,885.15
650.178,882.5
650.309,882.6
650.441,882.05
650.572,882.25
650.704,882.05
650.835,881.95
650.967,882.05
651.098,882.45
651.23,881.25
651.361,881.0
651.493,880.65
651.625,878.7
651.756,877.9
651.888,878.05
652.019,879.0
652.151,878.45
652.282,879.2
652.414,878.1
652.545,876.75
652.677,877.9
652.808,875.4
652.94,878.55
653.071,878.2
653.203,878.95
653.334,876.45
653.466,877.55
653.597,876.45
653.729,876.9
653.86,874.7
653.992,876.3
654.123,875.7
654.255,878.75
654.386,875.65
654.518,874.2
654.649,876.25
654.78,875.55
654.912,874.1
655.043,875.85
655.175,874.65
655.306,873.4
655.438,873.8
655.569,873.95
655.701,874.7
655.832,875.1
655.964,872.8
656.095,874.8
656.226,874.95
656.358,872.75
656.489,873.65
656.621,876.6
656.752,873.7
656.884,872.65
657.015,873.9
657.146,874.7
657.278,875.35
657.409,873.15
657.541,874.65
657.672,871.0
657.804,872.95
657.935,871.6
658.066,874.45
658.198,871.6
658.329,872.45
658.461,872.45
658.592,874.15
658.723,873.85
658.855,872.3
658.986,873.25
659.118,872.2
659.249,873.3
659.38,873.8
659.512,873.35
659.643,869.95
659.774,874.1
659.906,871.9
660.037,873.75
660.169,871.05
660.3,873.85
660.431,870.9
660.563,870.9
660.694,870.25
660.825,870.65
660.957,869.35
661.088,870.4
661.22,871.25
661.351,870.35
661.482,869.0
661.614,871.55
661.745,870.65
661.876,871.1
662.008,869.5
662.139,871.15
662.27,871.5
662.402,870.45
662.533,869.75
662.664,870.7
662.796,870.35
662.927,867.35
663.058,869.35