File: spectra/VLFR_06-PET_bio_Raman_facab51f.csv
nm,Intensity
526.549,832.35
526.686,832.15
526.823,831.6
526.959,832.25
527.096,832.45
527.233,831.4
527.37,831.85
527.506,830.9
527.643,832.25
527.78,832.3
527.917,831.65
528.053,832.05
528.19,832.5
528.327,831.55
528.463,831.45
528.6,831.65
528.737,831.85
528.873,833.1
529.01,830.9
529.147,831.95
529.283,832.75
529.42,831.25
529.556,832.05
529.693,832.15
529.83,831.15
529.966,832.1
530.103,832.05
530.239,831.4
530.376,831.6
530.512,832.2
530.649,832.2
530.785,831.8
530.922,832.7
531.058,832.3
531.195,832.9
531.331,831.65
531.468,833.05
531.604,831.6
531.741,832.2
531.877,832.0
532.014,843.95
532.15,886.4
532.287,874.3
532.423,838.45
532.559,831.95
532.696,832.1
532.832,832.5
532.968,833.95
533.105,832.0
533.241,832.15
533.378,833.4
533.514,835.65
533.65,860.3
533.787,1052.35
533.923,1714.45
534.059,2442.1
534.196,2598.15
534.332,2481.25
534.468,2329.8
534.604,2199.55
534.741,2094.1
534.877,1955.15
535.013,1815.55
535.149,1715.25
535.286,1615.45
535.422,1533.35
535.558,1459.5
535.694,1396.65
535.83,1324.1
535.967,1271.3
536.103,1227.25
536.239,1183.65
536.375,1156.0
536.511,1132.6
536.647,1111.9
536.784,1109.1
536.92,1091.55
537.056,1081.95
537.192,1077.25
537.328,1068.7
537.464,1062.65
537.6,1058.5
537.736,1054.0
537.872,1048.7
538.008,1052.2
538.145,1059.05
538.281,1059.3
538.417,1060.75
538.553,1061.75
538.689,1062.55
538.825,1056.4
538.961,1053.75
539.097,1057.9
539.233,1056.15
539.369,1062.65
539.505,1069.05
539.641,1081.9
539.777,1092.55
539.912,1094.65
540.048,1096.8
540.184,1085.1
540.32,1070.75
540.456,1052.5
540.592,1039.85
540.728,1034.7
540.864,1025.15
541.0,1021.2
541.136,1021.95
541.271,1014.1
541.407,1013.9
541.543,1011.0
541.679,1010.7
541.815,1008.6
541.951,1007.35
542.087,1009.0
542.222,1003.25
542.358,1006.8
542.494,1003.8
542.63,1010.45
542.765,1009.15
542.901,1012.65
543.037,1008.8
543.173,1010.8
543.308,1006.85
543.444,1007.25
543.58,1005.75
543.716,1008.45
543.851,1016.2
543.987,1022.15
544.123,1017.75
544.258,1011.4
544.394,1006.1
544.53,1009.4
544.665,1007.3
544.801,1009.55
544.937,1015.1
545.072,1013.45
545.208,1010.75
545.344,1015.05
545.479,1009.8
545.615,1017.25
545.75,1010.35
545.886,1010.95
546.022,1015.25
546.157,1013.35
546.293,1014.55
546.428,1011.0
546.564,1011.2
546.699,1013.45
546.835,1013.65
546.971,1013.85
547.106,1011.6
547.242,1012.85
547.377,1010.1
547.513,1012.9
547.648,1012.75
547.784,1013.15
547.919,1011.1
548.054,1014.45
548.19,1012.0
548.325,1012.5
548.461,1013.3
548.596,1010.25
548.732,1012.5
548.867,1012.9
549.003,1012.25
549.138,1012.75
549.273,1010.7
549.409,1011.9
549.544,1011.2
549.679,1007.55
549.815,1012.05
549.95,1012.55
550.086,1013.25
550.221,1015.95
550.356,1019.85
550.492,1052.3
550.627,1186.7
550.762,1281.0
550.898,1112.95
551.033,1028.55
551.168,1014.45
551.303,1013.15
551.439,1019.15
551.574,1016.15
551.709,1011.7
551.844,1015.65
551.98,1015.4
552.115,1025.9
552.25,1024.95
552.385,1018.0
552.521,1018.8
552.656,1033.1
552.791,1089.8
552.926,1111.9
553.061,1078.35
553.197,1041.05
553.332,1024.65
553.467,1019.85
553.602,1020.25
553.737,1021.8
553.872,1024.9
554.007,1025.4
554.143,1020.05
554.278,1023.6
554.413,1020.7
554.548,1020.75
554.683,1022.5
554.818,1021.6
554.953,1024.8
555.088,1029.1
555.223,1038.3
555.358,1044.6
555.493,1072.65
555.629,1117.1
555.764,1124.85
555.899,1106.5
556.034,1105.25
556.169,1111.55
556.304,1119.5
556.439,1124.7
556.574,1121.65
556.709,1131.05
556.844,1126.35
556.979,1132.6
557.114,1150.35
557.248,1197.05
557.383,1271.2
557.518,1355.25
557.653,1387.1
557.788,1308.8
557.923,1200.65
558.058,1158.35
558.193,1142.8
558.328,1151.25
558.463,1152.1
558.598,1153.35
558.733,1133.6
558.867,1113.3
559.002,1100.9
559.137,1078.35
559.272,1064.3
559.407,1054.8
559.542,1042.35
559.677,1045.7
559.811,1043.35
559.946,1041.1
560.081,1040.45
560.216,1046.55
560.351,1046.0
560.485,1043.95
560.62,1044.3
560.755,1042.5
560.89,1048.1
561.024,1046.6
561.159,1053.45
561.294,1049.7
561.429,1051.8
561.563,1052.6
561.698,1060.05
561.833,1059.05
561.968,1061.6
562.102,1077.15
562.237,1083.25
562.372,1076.25
562.506,1076.7
562.641,1085.7
562.776,1085.45
562.91,1096.35
563.045,1102.1
563.18,1100.7
563.314,1100.05
563.449,1092.55
563.584,1088.6
563.718,1083.2
563.853,1078.65
563.987,1071.1
564.122,1075.65
564.257,1079.85
564.391,1086.95
564.526,1096.5
564.66,1107.15
564.795,1117.8
564.93,1135.95
565.064,1163.75
565.199,1195.55
565.333,1212.7
565.468,1227.1
565.602,1252.3
565.737,1271.05
565.871,1285.2
566.006,1278.2
566.14,1229.85
566.275,1191.85
566.409,1156.95
566.544,1130.5
566.678,1109.4
566.813,1093.85
566.947,1091.45
567.082,1091.05
567.216,1088.15
567.351,1107.85
567.485,1136.0
567.619,1186.85
567.754,1213.05
567.888,1185.8
568.023,1143.8
568.157,1115.35
568.291,1102.55
568.426,1097.8
568.56,1096.55
568.695,1100.5
568.829,1096.6
568.963,1096.15
569.098,1096.9
569.232,1101.45
569.366,1109.65
569.501,1109.95
569.635,1124.4
569.769,1135.65
569.904,1144.65
570.038,1153.3
570.172,1164.95
570.307,1180.4
570.441,1221.0
570.575,1272.05
570.709,1315.65
570.844,1360.35
570.978,1410.95
571.112,1487.15
571.247,1552.1
571.381,1572.9
571.515,1547.8
571.649,1462.2
571.783,1371.75
571.918,1344.45
572.052,1316.1
572.186,1271.3
572.32,1224.8
572.455,1189.75
572.589,1167.7
572.723,1153.65
572.857,1144.6
572.991,1140.2
573.125,1138.7
573.26,1139.05
573.394,1135.5
573.528,1140.55
573.662,1142.85
573.796,1155.8
573.93,1165.3
574.064,1182.75
574.199,1183.8
574.333,1172.6
574.467,1159.0
574.601,1152.25
574.735,1155.9
574.869,1161.85
575.003,1166.8
575.137,1178.15
575.271,1209.6
575.405,1230.05
575.539,1216.25
575.673,1176.35
575.807,1166.25
575.941,1170.65
576.075,1168.95
576.209,1186.6
576.344,1209.8
576.478,1216.75
576.612,1226.3
576.746,1223.7
576.88,1225.25
577.014,1211.1
577.147,1197.3
577.281,1180.45
577.415,1175.25
577.549,1167.2
577.683,1167.0
577.817,1163.8
577.951,1161.6
578.085,1159.55
578.219,1162.15
578.353,1163.35
578.487,1169.65
578.621,1171.8
578.755,1170.2
578.889,1168.65
579.023,1172.3
579.156,1175.1
579.29,1171.8
579.424,1174.6
579.558,1173.35
579.692,1173.9
579.826,1178.95
579.96,1178.75
580.094,1181.65
580.227,1186.9
580.361,1182.35
580.495,1190.15
580.629,1188.7
580.763,1198.2
580.897,1209.05
581.03,1217.0
581.164,1219.05
581.298,1225.4
581.432,1239.9
581.565,1282.35
581.699,1371.8
581.833,1556.45
581.967,1933.5
582.101,2620.0
582.234,3050.95
582.368,2384.4
582.502,1625.15
582.636,1348.95
582.769,1272.4
582.903,1246.4
583.037,1238.9
583.17,1223.65
583.304,1220.55
583.438,1217.35
583.572,1214.05
583.705,1216.3
583.839,1220.65
583.973,1218.4
584.106,1215.95
584.24,1223.95
584.374,1228.9
584.507,1234.7
584.641,1232.85
584.775,1242.55
584.908,1254.7
585.042,1264.15
585.175,1286.2
585.309,1323.8
585.443,1432.9
585.576,1618.8
585.71,1858.0
585.844,2060.95
585.977,2159.6
586.111,2147.2
586.244,2050.0
586.378,1898.2
586.511,1728.05
586.645,1547.3
586.779,1415.55
586.912,1341.5
587.046,1308.5
587.179,1282.7
587.313,1262.25
587.446,1251.8
587.58,1243.75
587.713,1237.35
587.847,1234.55
587.98,1236.25
588.114,1230.05
588.247,1230.4
588.381,1238.1
588.514,1238.1
588.648,1231.15
588.781,1232.55
588.915,1229.0
589.048,1226.75
589.182,1230.9
589.315,1230.7
589.449,1232.8
589.582,1230.35
589.716,1232.4
589.849,1226.05
589.982,1223.35
590.116,1229.65
590.249,1227.6
590.383,1224.85
590.516,1227.6
590.65,1227.85
590.783,1226.25
590.916,1232.5
591.05,1228.3
591.183,1223.35
591.316,1233.85
591.45,1229.15
591.583,1229.65
591.717,1233.2
591.85,1229.75
591.983,1229.9
592.117,1226.4
592.25,1229.6
592.383,1228.9
592.517,1227.95
592.65,1226.2
592.783,1229.2
592.917,1227.9
593.05,1231.15
593.183,1224.3
593.316,1229.55
593.45,1227.85
593.583,1228.45
593.716,1226.45
593.85,1227.65
593.983,1230.65
594.116,1234.1
594.249,1232.5
594.383,1228.65
594.516,1229.8
594.649,1235.45
594.782,1232.8
594.916,1232.4
595.049,1236.7
595.182,1233.75
595.315,1227.5
595.449,1234.15
595.582,1237.3
595.715,1234.85
595.848,1238.45
595.981,1241.5
596.115,1237.85
596.248,1243.9
596.381,1240.45
596.514,1235.8
596.647,1241.05
596.78,1237.75
596.914,1243.75
597.047,1241.2
597.18,1242.1
597.313,1246.4
597.446,1240.45
597.579,1238.65
597.712,1235.35
597.846,1230.85
597.979,1240.3
598.112,1247.4
598.245,1239.85
598.378,1245.2
598.511,1247.8
598.644,1242.85
598.777,1246.35
598.91,1247.5
599.043,1249.5
599.177,1246.2
599.31,1246.05
599.443,1248.05
599.576,1245.1
599.709,1245.85
599.842,1240.25
599.975,1247.15
600.108,1242.7
600.241,1248.45
600.374,1245.3
600.507,1249.9
600.64,1241.6
600.773,1241.1
600.906,1240.55
601.039,1241.75
601.172,1238.95
601.305,1245.6
601.438,1237.9
601.571,1243.2
601.704,1242.35
601.837,1241.95
601.97,1240.0
602.103,1245.65
602.236,1239.8
602.369,1245.1
602.502,1241.2
602.635,1240.05
602.768,1246.7
602.901,1247.7
603.034,1241.85
603.166,1247.0
603.299,1246.6
603.432,1248.45
603.565,1244.7
603.698,1246.75
603.831,1249.65
603.964,1250.6
604.097,1248.75
604.23,1246.35
604.363,1245.45
604.496,1244.3
604.628,1239.65
604.761,1241.7
604.894,1238.45
605.027,1239.0
605.16,1240.0
605.293,1233.95
605.426,1235.85
605.558,1230.15
605.691,1236.15
605.824,1230.8
605.957,1229.3
606.09,1235.15
606.223,1231.0
606.355,1235.1
606.488,1235.95
606.621,1231.35
606.754,1236.3
606.887,1235.25
607.019,1233.6
607.152,1232.1
607.285,1236.3
607.418,1233.75
607.551,1232.8
607.683,1238.6
607.816,1236.2
607.949,1239.8
608.082,1236.55
608.214,1237.6
608.347,1242.0
608.48,1239.25
608.613,1239.2
608.745,1244.4
608.878,1239.65
609.011,1242.8
609.143,1237.25
609.276,1241.2
609.409,1235.1
609.542,1242.85
609.674,1241.45
609.807,1241.85
609.94,1235.15
610.072,1241.5
610.205,1241.6
610.338,1242.35
610.47,1241.55
610.603,1235.0
610.736,1237.15
610.868,1235.9
611.001,1233.3
611.134,1240.3
611.266,1243.85
611.399,1240.0
611.532,1244.15
611.664,1243.8
611.797,1239.9
611.93,1244.05
612.062,1247.45
612.195,1241.2
612.327,1248.0
612.46,1249.95
612.593,1251.25
612.725,1244.8
612.858,1249.55
612.99,1256.2
613.123,1254.25
613.256,1257.2
613.388,1253.45
613.521,1254.15
613.653,1260.35
613.786,1258.05
613.919,1257.0
614.051,1266.65
614.184,1260.95
614.316,1256.75
614.449,1260.15
614.581,1261.9
614.714,1267.7
614.846,1259.0
614.979,1260.25
615.111,1264.15
615.244,1258.1
615.376,1263.3
615.509,1260.2
615.641,1262.1
615.774,1260.15
615.906,1261.9
616.039,1267.05
616.171,1261.7
616.304,1261.15
616.436,1262.6
616.569,1265.85
616.701,1266.0
616.834,1270.3
616.966,1267.75
617.099,1273.75
617.231,1274.8
617.364,1273.05
617.496,1280.65
617.629,1277.05
617.761,1280.0
617.894,1282.6
618.026,1283.1
618.158,1293.25
618.291,1290.45
618.423,1287.55
618.556,1289.2
618.688,1285.2
618.82,1291.05
618.953,1280.5
619.085,1277.3
619.218,1280.6
619.35,1272.6
619.482,1278.65
619.615,1272.75
619.747,1274.25
619.88,1273.7
620.012,1273.3
620.144,1267.9
620.277,1273.05
620.409,1270.9
620.541,1276.6
620.674,1275.95
620.806,1269.35
620.939,1278.0
621.071,1268.6
621.203,1272.65
621.336,1275.15
621.468,1268.7
621.6,1273.75
621.733,1273.85
621.865,1277.65
621.997,1271.45
622.13,1281.6
622.262,1282.25
622.394,1285.95
622.526,1286.45
622.659,1286.5
622.791,1285.1
622.923,1288.7
623.056,1290.65
623.188,1285.6
623.32,1293.95
623.452,1287.25
623.585,1296.2
623.717,1288.9
623.849,1292.45
623.981,1293.7
624.114,1293.25
624.246,1299.45
624.378,1297.75
624.511,1301.55
624.643,1302.65
624.775,1308.45
624.907,1312.4
625.039,1309.05
625.172,1309.15
625.304,1308.65
625.436,1309.8
625.568,1310.1
625.701,1310.35
625.833,1307.5
625.965,1307.1
626.097,1304.95
626.229,1304.75
626.362,1310.55
626.494,1306.0
626.626,1303.75
626.758,1308.85
626.89,1308.8
627.022,1311.25
627.155,1307.05
627.287,1312.8
627.419,1312.55
627.551,1314.45
627.683,1316.25
627.815,1323.95
627.948,1323.95
628.08,1323.65
628.212,1329.05
628.344,1341.7
628.476,1345.05
628.608,1354.5
628.74,1357.95
628.873,1370.45
629.005,1377.9
629.137,1379.95
629.269,1380.55
629.401,1375.65
629.533,1372.2
629.665,1375.4
629.797,1366.55
629.929,1370.6
630.061,1366.75
630.194,1364.9
630.326,1360.65
630.458,1367.1
630.59,1371.9
630.722,1377.6
630.854,1394.1
630.986,1425.85
631.118,1467.2
631.25,1505.05
631.382,1563.15
631.514,1597.65
631.646,1638.45
631.778,1652.8
631.91,1653.1
632.042,1635.7
632.175,1601.15
632.307,1561.65
632.439,1529.25
632.571,1514.0
632.703,1493.05
632.835,1487.7
632.967,1481.45
633.099,1475.7
633.231,1481.7
633.363,1478.35
633.495,1469.4
633.627,1461.25
633.759,1446.15
633.891,1434.5
634.023,1427.05
634.155,1418.2
634.287,1412.0
634.419,1407.5
634.551,1409.05
634.683,1393.05
634.815,1387.05
634.947,1392.5
635.079,1395.2
635.21,1404.6
635.342,1407.4
635.474,1420.7
635.606,1435.65
635.738,1463.6
635.87,1498.8
636.002,1542.6
636.134,1575.65
636.266,1617.75
636.398,1681.25
636.53,1735.8
636.662,1749.5
636.794,1708.7
636.926,1627.7
637.058,1560.1
637.19,1507.65
637.321,1487.3
637.453,1457.45
637.585,1450.5
637.717,1432.95
637.849,1426.45
637.981,1417.65
638.113,1408.15
638.245,1410.45
638.377,1410.3
638.509,1404.3
638.64,1403.75
638.772,1407.95
638.904,1404.35
639.036,1408.25
639.168,1408.8
639.3,1417.9
639.432,1409.8
639.563,1413.45
639.695,1409.6
639.827,1409.2
639.959,1406.45
640.091,1413.3
640.223,1400.85
640.355,1408.45
640.486,1410.05
640.618,1414.35
640.75,1419.25
640.882,1411.45
641.014,1413.95
641.146,1412.95
641.277,1420.25
641.409,1422.55
641.541,1418.4
641.673,1418.55
641.805,1427.6
641.936,1419.5
642.068,1430.25
642.2,1433.05
642.332,1442.2
642.464,1444.95
642.595,1440.25
642.727,1441.2
642.859,1430.9
642.991,1426.3
643.123,1430.8
643.254,1425.15
643.386,1420.7
643.518,1422.35
643.65,1419.6
643.781,1422.0
643.913,1413.4
644.045,1420.2
644.177,1417.0
644.309,1418.55
644.44,1414.65
644.572,1413.2
644.704,1418.9
644.836,1422.45
644.967,1422.25
645.099,1418.75
645.231,1422.4
645.362,1421.75
645.494,1422.0
645.626,1424.8
645.758,1429.25
645.889,1427.3
646.021,1418.8
646.153,1421.4
646.285,1429.45
646.416,1431.0
646.548,1431.65
646.68,1434.35
646.811,1433.65
646.943,1436.05
647.075,1445.7
647.206,1435.6
647.338,1438.3
647.47,1443.3
647.602,1438.4
647.733,1441.55
647.865,1438.35
647.997,1436.0
648.128,1437.65
648.26,1434.5
648.392,1434.7
648.523,1433.65
648.655,1435.55
648.787,1433.8
648.918,1437.3
649.05,1431.3
649.182,1433.15
649.313,1434.4
649.445,1436.6
649.577,1436.9
649.708,1429.85
649.84,1436.9
649.972,1432.1
650.103,1437.75
650.235,1434.0
650.366,1439.4
650.498,1440.3
650.63,1437.55
650.761,1436.8
650.893,1437.9
651.025,1439.45
651.156,1437.15
651.288,1440.7
651.419,1438.4
651.551,1433.2
651.683,1441.6
651.814,1439.15
651.946,1443.9
652.077,1445.55
652.209,1446.9
652.341,1445.0
652.472,1439.25
652.604,1446.1
652.735,1442.8
652.867,1440.9
652.999,1443.9
653.13,1443.9
653.262,1440.55
653.393,1437.3
653.525,1443.1
653.657,1443.75
653.788,1450.35
653.92,1444.25
654.051,1449.2
654.183,1441.0
654.314,1441.55
654.446,1440.2
654.578,1445.4
654.709,1443.0
654.841,1444.4
654.972,1442.8
655.104,1441.25
655.235,1445.8
655.367,1444.6
655.498,1441.5
655.63,1445.6
655.762,1443.15
655.893,1447.65
656.025,1445.5
656.156,1437.3
656.288,1450.7
656.419,1440.4
656.551,1443.75
656.682,1446.75
656.814,1448.4
656.945,1444.15
657.077,1439.55
657.208,1450.3
657.34,1442.8
657.471,1446.1
657.603,1440.25
657.734,1441.0
657.866,1448.45
657.997,1442.55
658.129,1454.6
658.26,1447.15
658.392,1447.9
658.523,1443.65
658.655,1452.35
658.786,1443.15
658.918,1438.2
659.049,1445.0
659.181,1452.9
659.312,1449.75
659.444,1448.3
659.575,1445.6
659.707,1439.55
659.838,1444.35
659.97,1447.9
660.101,1442.65
660.233,1443.35
660.364,1436.85
660.496,1443.4
660.627,1439.4
660.759,1445.0
660.89,1435.7
661.022,1431.85
661.153,1438.2
661.285,1436.4
661.416,1435.5
661.547,1432.5
661.679,1426.55
661.81,1436.3
661.942,1439.7
662.073,1432.6
662.205,1429.7
662.336,1426.1
662.468,1427.25
662.599,1422.8
662.731,1424.95
662.862,1426.1
662.993,1422.4
663.125,1426.9