File: spectra/VLFR_02-HDPE_nobio_Raman_e9ca17e8.csv
nm,Intensity
528.65,1834.4
528.819,1834.95
528.987,1835.05
529.155,1835.35
529.324,1835.25
529.492,1833.8
529.66,1835.15
529.829,1836.15
529.997,1836.0
530.165,1834.5
530.334,1835.75
530.502,1835.75
530.67,1834.0
530.839,1834.65
531.007,1835.45
531.175,1835.4
531.344,1834.95
531.512,1838.3
531.68,1843.15
531.848,1979.6
532.017,2453.75
532.185,2380.7
532.353,1870.05
532.521,1835.85
532.69,1835.0
532.858,1835.05
533.026,1835.55
533.194,1836.15
533.363,1836.3
533.531,1844.65
533.699,1888.3
533.867,1967.3
534.036,2018.0
534.204,2023.2
534.372,2020.9
534.54,2015.95
534.708,2019.05
534.877,2019.7
535.045,2028.1
535.213,2022.85
535.381,2009.55
535.549,1992.75
535.717,1989.3
535.886,1984.65
536.054,1984.25
536.222,1977.75
536.39,1968.35
536.558,1976.7
536.726,1973.1
536.894,1968.6
537.062,1963.3
537.231,1966.9
537.399,1968.8
537.567,1975.95
537.735,1975.95
537.903,1969.85
538.071,1976.05
538.239,1970.6
538.407,1967.05
538.575,1959.15
538.743,1965.5
538.911,1964.45
539.079,1956.4
539.247,1959.9
539.415,1957.5
539.583,1950.1
539.751,1954.85
539.919,1958.2
540.087,1959.15
540.255,1953.55
540.423,1951.95
540.591,1952.85
540.759,1955.75
540.927,1951.2
541.095,1956.95
541.263,1955.8
541.431,1953.85
541.599,1959.5
541.767,1963.1
541.935,1954.85
542.103,1958.8
542.271,1958.35
542.439,1956.3
542.607,1964.45
542.775,1956.35
542.943,1954.15
543.111,1955.1
543.279,1957.1
543.446,1955.2
543.614,1956.35
543.782,1960.05
543.95,1961.6
544.118,1964.95
544.286,1956.65
544.454,1960.75
544.622,1954.8
544.789,1961.6
544.957,1961.75
545.125,1963.35
545.293,1961.35
545.461,1954.6
545.629,1956.55
545.796,1963.4
545.964,1962.85
546.132,1952.05
546.3,1954.6
546.468,1957.2
546.635,1962.25
546.803,1962.55
546.971,1960.9
547.139,1960.8
547.306,1962.15
547.474,1959.1
547.642,1959.15
547.81,1963.6
547.977,1972.45
548.145,1961.4
548.313,1964.25
548.481,1964.75
548.648,1964.65
548.816,1960.35
548.984,1964.75
549.151,1966.85
549.319,1961.65
549.487,1966.05
549.655,1961.4
549.822,1962.5
549.99,1965.4
550.158,1959.0
550.325,1972.35
550.493,1965.9
550.66,1964.45
550.828,1967.45
550.996,1968.15
551.163,1969.8
551.331,1967.3
551.499,1969.4
551.666,1970.35
551.834,1971.95
552.001,1977.45
552.169,1973.5
552.337,1971.6
552.504,1975.55
552.672,1969.9
552.839,1963.05
553.007,1974.0
553.174,1971.55
553.342,1982.75
553.509,1981.25
553.677,1984.65
553.844,1978.05
554.012,1982.65
554.179,1983.05
554.347,1978.5
554.514,1986.9
554.682,1989.15
554.849,1990.4
555.017,1991.9
555.184,1991.05
555.352,1988.8
555.519,1987.6
555.687,1991.7
555.854,1990.35
556.022,1996.7
556.189,1989.6
556.357,1992.15
556.524,1993.8
556.691,1996.25
556.859,2002.9
557.026,1999.65
557.194,2003.5
557.361,2004.95
557.528,2000.15
557.696,2014.2
557.863,2008.1
558.031,2008.9
558.198,2017.3
558.365,2014.9
558.533,2015.5
558.7,2011.3
558.867,2002.3
559.035,2010.75
559.202,2012.95
559.369,2005.15
559.537,2012.5
559.704,2016.6
559.871,2005.05
560.038,2003.45
560.206,2007.6
560.373,2006.0
560.54,2014.55
560.708,2014.4
560.875,2020.9
561.042,2013.15
561.209,2015.65
561.377,2013.45
561.544,2016.3
561.711,2014.95
561.878,2018.1
562.045,2020.55
562.213,2026.4
562.38,2021.35
562.547,2026.0
562.714,2029.9
562.881,2040.85
563.049,2035.2
563.216,2042.75
563.383,2039.0
563.55,2050.45
563.717,2119.8
563.884,2237.7
564.052,2308.75
564.219,2179.1
564.386,2083.95
564.553,2088.65
564.72,2094.25
564.887,2069.7
565.054,2066.85
565.221,2059.05
565.388,2059.15
565.556,2066.5
565.723,2090.6
565.89,2164.4
566.057,2318.3
566.224,2351.5
566.391,2182.2
566.558,2083.9
566.725,2053.0
566.892,2045.3
567.059,2058.2
567.226,2060.55
567.393,2089.1
567.56,2079.2
567.727,2054.2
567.894,2042.85
568.061,2037.95
568.228,2038.4
568.395,2037.4
568.562,2038.2
568.729,2037.4
568.896,2038.9
569.063,2044.15
569.23,2039.15
569.396,2052.9
569.563,2050.45
569.73,2050.45
569.897,2044.4
570.064,2054.15
570.231,2054.05
570.398,2056.9
570.565,2064.35
570.732,2081.95
570.898,2072.15
571.065,2096.4
571.232,2202.05
571.399,2482.85
571.566,2632.35
571.733,2344.55
571.9,2167.95
572.066,2119.55
572.233,2102.4
572.4,2091.15
572.567,2077.05
572.734,2073.1
572.9,2066.15
573.067,2065.3
573.234,2077.6
573.401,2081.35
573.567,2081.25
573.734,2094.75
573.901,2107.3
574.068,2109.25
574.234,2090.55
574.401,2083.25
574.568,2078.15
574.734,2078.15
574.901,2093.9
575.068,2095.35
575.235,2133.85
575.401,2215.2
575.568,2279.0
575.735,2232.25
575.901,2268.7
576.068,2367.3
576.235,2471.15
576.401,2446.2
576.568,2395.7
576.734,2346.65
576.901,2354.05
577.068,2345.8
577.234,2307.65
577.401,2250.5
577.567,2195.6
577.734,2171.7
577.901,2152.45
578.067,2147.25
578.234,2160.05
578.4,2162.05
578.567,2148.6
578.733,2163.0
578.9,2161.35
579.066,2168.05
579.233,2165.15
579.399,2179.15
579.566,2178.7
579.732,2176.9
579.899,2185.9
580.065,2187.05
580.232,2199.5
580.398,2187.55
580.565,2188.25
580.731,2190.05
580.898,2201.8
581.064,2202.05
581.231,2199.6
581.397,2203.6
581.563,2211.05
581.73,2206.4
581.896,2222.25
582.063,2207.05
582.229,2213.55
582.395,2229.15
582.562,2217.25
582.728,2226.8
582.895,2234.55
583.061,2226.45
583.227,2226.5
583.394,2231.85
583.56,2231.85
583.726,2237.7
583.893,2220.25
584.059,2225.95
584.225,2240.9
584.391,2243.05
584.558,2233.6
584.724,2231.2
584.89,2227.1
585.057,2229.55
585.223,2227.8
585.389,2236.45
585.555,2212.75
585.722,2209.9
585.888,2233.7
586.054,2219.0
586.22,2222.0
586.386,2225.25
586.553,2228.35
586.719,2213.8
586.885,2222.45
587.051,2220.3
587.217,2217.85
587.384,2218.55
587.55,2217.9
587.716,2215.85
587.882,2209.05
588.048,2223.45
588.214,2211.65
588.38,2205.85
588.546,2197.95
588.713,2198.55
588.879,2191.95
589.045,2185.05
589.211,2196.35
589.377,2195.1
589.543,2181.25
589.709,2186.2
589.875,2180.1
590.041,2185.45
590.207,2201.95
590.373,2203.35
590.539,2195.95
590.705,2189.85
590.871,2197.6
591.037,2193.35
591.203,2195.6
591.369,2198.0
591.535,2188.05
591.701,2184.4
591.867,2186.65
592.033,2195.1
592.199,2200.6
592.365,2184.85
592.531,2190.8
592.697,2203.0
592.863,2201.05
593.029,2187.2
593.195,2189.85
593.361,2194.65
593.526,2197.7
593.692,2191.55
593.858,2196.55
594.024,2199.7
594.19,2182.8
594.356,2194.8
594.522,2195.5
594.687,2189.7
594.853,2202.4
595.019,2202.7
595.185,2201.8
595.351,2204.8
595.516,2206.45
595.682,2196.75
595.848,2205.85
596.014,2213.25
596.18,2211.4
596.345,2207.2
596.511,2204.2
596.677,2203.3
596.843,2212.8
597.008,2214.85
597.174,2228.75
597.34,2221.25
597.505,2205.35
597.671,2207.3
597.837,2216.05
598.002,2209.9
598.168,2224.0
598.334,2206.0
598.499,2216.1
598.665,2214.6
598.831,2222.95
598.996,2225.25
599.162,2221.25
599.328,2227.05
599.493,2222.05
599.659,2226.85
599.824,2210.2
599.99,2221.85
600.156,2227.1
600.321,2210.65
600.487,2232.75
600.652,2232.9
600.818,2228.85
600.983,2207.1
601.149,2229.85
601.314,2214.2
601.48,2226.15
601.645,2212.8
601.811,2226.35
601.976,2233.25
602.142,2229.2
602.307,2226.5
602.473,2212.55
602.638,2211.85
602.804,2203.25
602.969,2211.25
603.135,2218.85
603.3,2219.15
603.466,2208.8
603.631,2207.6
603.796,2206.25
603.962,2211.65
604.127,2197.45
604.293,2213.35
604.458,2201.9
604.623,2197.15
604.789,2194.1
604.954,2194.8
605.119,2193.9
605.285,2187.5
605.45,2177.25
605.615,2180.5
605.781,2179.35
605.946,2184.3
606.111,2187.95
606.277,2177.9
606.442,2155.15
606.607,2173.5
606.772,2173.15
606.938,2171.35
607.103,2155.1
607.268,2164.4
607.433,2164.0
607.599,2154.95
607.764,2149.85
607.929,2163.15
608.094,2153.15
608.259,2146.9
608.425,2155.85
608.59,2152.15
608.755,2146.55
608.92,2144.2
609.085,2138.5
609.25,2141.5
609.415,2152.5
609.581,2142.3
609.746,2140.0
609.911,2142.7
610.076,2138.35
610.241,2130.25
610.406,2130.55
610.571,2141.8
610.736,2145.15
610.901,2127.95
611.066,2139.6
611.231,2146.05
611.396,2130.1
611.561,2129.65
611.727,2133.3
611.892,2121.8
612.057,2125.5
612.222,2115.0
612.386,2116.0
612.551,2130.35
612.716,2119.35
612.881,2117.85
613.046,2111.95
613.211,2112.45
613.376,2119.65
613.541,2115.85
613.706,2113.0
613.871,2119.8
614.036,2110.6
614.201,2113.95
614.366,2112.7
614.531,2118.5
614.695,2106.55
614.86,2113.45
615.025,2118.1
615.19,2113.9
615.355,2107.75
615.52,2119.95
615.684,2112.0
615.849,2119.4
616.014,2099.85
616.179,2114.5
616.344,2115.95
616.508,2113.8
616.673,2123.75
616.838,2114.75
617.003,2134.75
617.168,2134.35
617.332,2136.9
617.497,2133.65
617.662,2131.7
617.826,2135.05
617.991,2147.0
618.156,2132.0
618.32,2143.55
618.485,2137.2
618.65,2132.7
618.814,2139.4
618.979,2130.05
619.144,2129.1
619.308,2148.2
619.473,2148.35
619.638,2149.65
619.802,2149.5
619.967,2150.3
620.131,2151.65
620.296,2141.0
620.461,2148.15
620.625,2158.45
620.79,2156.35
620.954,2181.4
621.119,2180.3
621.283,2191.9
621.448,2205.6
621.612,2244.5
621.777,2275.15
621.941,2304.55
622.106,2316.5
622.27,2369.75
622.435,2317.35
622.599,2291.1
622.764,2237.45
622.928,2209.0
623.093,2181.05
623.257,2171.15
623.422,2165.1
623.586,2153.85
623.75,2157.55
623.915,2140.95
624.079,2160.35
624.244,2157.4
624.408,2159.15
624.572,2152.35
624.737,2164.6
624.901,2164.9
625.065,2152.05
625.23,2167.8
625.394,2181.65
625.558,2181.15
625.723,2197.55
625.887,2221.55
626.051,2250.3
626.215,2319.6
626.38,2435.15
626.544,2695.35
626.708,3125.05
626.872,3905.55
627.037,4595.3
627.201,4953.75
627.365,4589.35
627.529,4264.15
627.693,3913.75
627.858,3721.3
628.022,3699.05
628.186,3958.05
628.35,4709.25
628.514,5178.45
628.678,4599.35
628.843,3881.7
629.007,3704.3
629.171,3546.7
629.335,3500.25
629.499,3292.15
629.663,3183.9
629.827,3008.65
629.991,2940.05
630.155,2925.1
630.319,2922.7
630.483,2926.35
630.647,2781.2
630.812,2621.05
630.976,2479.15
631.14,2381.05
631.304,2294.95
631.468,2237.25
631.632,2217.3
631.796,2213.15
631.959,2189.05
632.123,2174.6
632.287,2178.15
632.451,2172.55
632.615,2169.05
632.779,2158.85
632.943,2158.45
633.107,2171.0
633.271,2166.35
633.435,2155.05
633.599,2141.5
633.763,2140.15
633.926,2149.1
634.09,2138.25
634.254,2131.15
634.418,2134.05
634.582,2130.3
634.746,2122.45
634.909,2121.85
635.073,2133.75
635.237,2121.05
635.401,2107.85
635.564,2113.95
635.728,2110.8
635.892,2120.2
636.056,2098.7
636.219,2108.3
636.383,2125.15
636.547,2105.5
636.711,2114.3
636.874,2113.85
637.038,2100.9
637.202,2093.25
637.365,2097.5
637.529,2104.05
637.693,2086.65
637.856,2084.7
638.02,2086.4
638.184,2079.9
638.347,2102.05
638.511,2072.1
638.674,2078.15
638.838,2075.65
639.002,2077.85
639.165,2074.05
639.329,2076.15
639.492,2066.0
639.656,2064.7
639.819,2068.0
639.983,2069.75
640.146,2061.35
640.31,2067.5
640.473,2069.5
640.637,2061.4
640.8,2062.3
640.964,2064.65
641.127,2068.85
641.291,2064.85
641.454,2063.3
641.618,2051.65
641.781,2052.1
641.944,2049.7
642.108,2060.1
642.271,2052.45
642.435,2068.55
642.598,2059.95
642.761,2045.65
642.925,2056.5
643.088,2049.3
643.251,2042.75
643.415,2054.4
643.578,2048.9
643.741,2043.15
643.905,2046.1
644.068,2041.45
644.231,2052.6
644.394,2047.1
644.558,2043.5
644.721,2049.3
644.884,2037.25
645.047,2042.05
645.211,2038.4
645.374,2043.55
645.537,2043.15
645.7,2039.2
645.863,2032.6
646.027,2032.9
646.19,2030.5
646.353,2035.95
646.516,2030.45
646.679,2034.0
646.842,2025.8
647.005,2025.2
647.169,2024.9
647.332,2022.55
647.495,2026.15
647.658,2019.7
647.821,2024.2
647.984,2029.35
648.147,2019.15
648.31,2016.25
648.473,2018.6
648.636,2025.55
648.799,2023.1
648.962,2023.2
649.125,2023.1
649.288,2012.15
649.451,2013.85
649.614,2006.2
649.777,2013.55
649.94,2027.0
650.103,2013.45
650.266,2015.65
650.429,2018.4
650.592,2026.05
650.755,2030.65
650.918,2014.05
651.08,2010.9
651.243,2009.55
651.406,2005.95
651.569,2002.0
651.732,2002.85
651.895,2006.05
652.058,2004.0
652.22,2009.15
652.383,2013.75
652.546,2004.8
652.709,2014.0
652.872,2011.6
653.034,2007.45
653.197,2002.7
653.36,2008.15
653.523,2002.85
653.685,2003.15
653.848,2002.5
654.011,2006.0
654.173,2006.0
654.336,1992.9
654.499,1991.0
654.662,1990.95
654.824,1991.65
654.987,2002.55
655.149,1995.75
655.312,1992.3
655.475,1993.2
655.637,1989.65
655.8,1997.6
655.963,1982.15
656.125,1974.1
656.288,1974.5
656.45,1978.4
656.613,1988.2
656.775,1990.55
656.938,1987.75
657.1,1984.8
657.263,1982.8
657.425,1986.5
657.588,1979.65
657.75,1979.65
657.913,1982.0
658.075,1982.5
658.238,1980.7
658.4,1973.15
658.563,1973.35
658.725,1974.9
658.888,1978.7
659.05,1970.6
659.212,1968.1
659.375,1970.3
659.537,1975.35
659.7,1977.8
659.862,1974.0
660.024,1971.2
660.187,1964.45
660.349,1973.8
660.511,1969.9
660.674,1970.3
660.836,1967.4
660.998,1971.9
661.079,1963.5