File: spectra/VLFR_01-LDPE_bio_Raman_f2eb6aca.csv
nm,Intensity
528.65,1842.0
528.819,1844.75
528.987,1841.95
529.155,1842.15
529.324,1842.5
529.492,1842.2
529.66,1843.35
529.829,1840.6
529.997,1844.3
530.165,1843.3
530.334,1843.4
530.502,1843.3
530.67,1843.0
530.839,1845.25
531.007,1845.05
531.175,1846.6
531.344,1847.4
531.512,1851.9
531.68,1873.1
531.848,2173.25
532.017,3824.8
532.185,3798.95
532.353,2239.55
532.521,1851.5
532.69,1848.45
532.858,1847.35
533.026,1849.35
533.194,1850.25
533.363,1858.75
533.531,1922.85
533.699,2391.8
533.867,3532.75
534.036,4385.75
534.204,4693.05
534.372,4704.7
534.54,4774.55
534.708,4843.1
534.877,5014.6
535.045,5038.85
535.213,5110.5
535.381,5247.4
535.549,5287.95
535.717,5365.9
535.886,5226.85
536.054,5187.8
536.222,5234.4
536.39,5262.5
536.558,5389.0
536.726,5327.15
536.894,5418.55
537.062,5346.5
537.231,5470.25
537.399,5565.1
537.567,5571.8
537.735,5620.55
537.903,5571.0
538.071,5595.95
538.239,5612.5
538.407,5597.6
538.575,5523.85
538.743,5572.9
538.911,5659.9
539.079,5736.45
539.247,5804.3
539.415,5681.1
539.583,5871.25
539.751,5882.2
539.919,5805.5
540.087,5926.05
540.255,5956.95
540.423,5943.25
540.591,5986.25
540.759,6016.65
540.927,5957.3
541.095,6162.1
541.263,6072.75
541.431,5998.35
541.599,6001.45
541.767,6028.4
541.935,6149.9
542.103,6103.9
542.271,6157.65
542.439,6163.6
542.607,6262.9
542.775,6217.2
542.943,6221.1
543.111,6214.5
543.279,6435.45
543.446,6325.35
543.614,6221.35
543.782,6344.35
543.95,6415.35
544.118,6381.8
544.286,6381.45
544.454,6308.1
544.622,6478.2
544.789,6486.35
544.957,6537.5
545.125,6557.2
545.293,6573.25
545.461,6599.7
545.629,6603.75
545.796,6598.8
545.964,6634.15
546.132,6705.0
546.3,6809.15
546.468,6789.35
546.635,6752.15
546.803,6795.85
546.971,6801.8
547.139,6865.4
547.306,6836.8
547.474,6806.95
547.642,6926.75
547.81,6905.0
547.977,7004.4
548.145,6937.4
548.313,7000.8
548.481,7010.5
548.648,7053.35
548.816,6982.75
548.984,7027.95
549.151,7140.05
549.319,7230.95
549.487,7175.15
549.655,7054.6
549.822,7037.15
549.99,7084.6
550.158,7162.6
550.325,7235.2
550.493,7329.35
550.66,7304.25
550.828,7233.1
550.996,7448.65
551.163,7443.6
551.331,7368.6
551.499,7558.5
551.666,7579.5
551.834,7561.3
552.001,7566.9
552.169,7509.0
552.337,7666.6
552.504,7670.75
552.672,7510.35
552.839,7549.55
553.007,7621.9
553.174,7603.3
553.342,7646.7
553.509,7700.15
553.677,7554.4
553.844,7803.2
554.012,7777.3
554.179,7709.0
554.347,7958.7
554.514,7987.85
554.682,7836.0
554.849,7921.35
555.017,7926.15
555.184,7856.4
555.352,7932.95
555.519,7910.05
555.687,7959.7
555.854,8072.1
556.022,8133.0
556.189,7954.35
556.357,8023.6
556.524,8118.3
556.691,8015.5
556.859,8247.45
557.026,8125.45
557.194,8076.4
557.361,8139.95
557.528,8262.6
557.696,8218.2
557.863,8230.1
558.031,8190.85
558.198,8347.6
558.365,8370.7
558.533,8433.45
558.7,8249.9
558.867,8423.55
559.035,8323.5
559.202,8471.55
559.369,8489.65
559.537,8691.6
559.704,8487.85
559.871,8653.25
560.038,8442.2
560.206,8588.5
560.373,8541.95
560.54,8813.15
560.708,8674.9
560.875,8725.15
561.042,8713.7
561.209,8804.0
561.377,8741.0
561.544,8679.8
561.711,8879.1
561.878,8944.8
562.045,9006.1
562.213,8863.65
562.38,8902.15
562.547,8869.8
562.714,9189.05
562.881,8873.25
563.049,8884.7
563.216,9126.1
563.383,8962.55
563.55,9141.8
563.717,9030.6
563.884,9196.85
564.052,9118.9
564.219,9170.15
564.386,9175.0
564.553,9174.45
564.72,9066.55
564.887,9228.8
565.054,9474.75
565.221,9472.45
565.388,9300.55
565.556,9337.2
565.723,9486.5
565.89,9304.3
566.057,9430.0
566.224,9495.0
566.391,9474.15
566.558,9410.05
566.725,9443.9
566.892,9355.6
567.059,9579.55
567.226,9381.5
567.393,9441.65
567.56,9608.95
567.727,9522.7
567.894,9660.3
568.061,9750.0
568.228,9729.5
568.395,9711.1
568.562,9869.5
568.729,9776.45
568.896,9633.25
569.063,9859.35
569.23,9829.35
569.396,9891.55
569.563,9934.65
569.73,9926.4
569.897,9907.2
570.064,9825.25
570.231,9868.85
570.398,9836.65
570.565,9963.35
570.732,10114.0
570.898,9968.45
571.065,10065.8
571.232,9976.6
571.399,10153.7
571.566,10222.7
571.733,10116.5
571.9,10299.8
572.066,10160.2
572.233,10107.0
572.4,10366.3
572.567,10491.3
572.734,10282.8
572.9,10306.6
573.067,10343.7
573.234,10308.0
573.401,10331.3
573.567,10495.9
573.734,10388.6
573.901,10332.8
574.068,10286.9
574.234,10333.3
574.401,10303.3
574.568,10462.5
574.734,10509.5
574.901,10306.3
575.068,10439.7
575.235,10548.8
575.401,10666.6
575.568,10548.9
575.735,10672.0
575.901,10557.3
576.068,10815.1
576.235,10620.9
576.401,10904.3
576.568,10818.8
576.734,10451.5
576.901,10715.8
577.068,11012.8
577.234,10837.2
577.401,10807.1
577.567,10639.8
577.734,10780.4
577.901,10837.5
578.067,10734.5
578.234,10669.9
578.4,10687.2
578.567,10884.3
578.733,10846.7
578.9,10701.6
579.066,10999.0
579.233,11111.4
579.399,10983.8
579.566,10893.3
579.732,10996.8
579.899,11027.7
580.065,10966.7
580.232,11040.7
580.398,11408.0
580.565,11102.0
580.731,11103.0
580.898,11155.2
581.064,11281.5
581.231,11230.8
581.397,11206.8
581.563,11129.4
581.73,11192.6
581.896,11198.5
582.063,11161.5
582.229,11380.2
582.395,11257.1
582.562,11384.2
582.728,11324.5
582.895,11236.5
583.061,11229.7
583.227,11332.0
583.394,11381.2
583.56,11200.8
583.726,11600.7
583.893,11565.0
584.059,11413.5
584.225,11448.0
584.391,11371.5
584.558,11343.9
584.724,11463.0
584.89,11521.2
585.057,11312.0
585.223,11507.8
585.389,11586.9
585.555,11545.3
585.722,11600.3
585.888,11218.8
586.054,11569.0
586.22,11565.0
586.386,11665.5
586.553,11533.2
586.719,11709.6
586.885,11509.2
587.051,11620.0
587.217,11841.5
587.384,11939.4
587.55,11526.7
587.716,11587.0
587.882,11888.8
588.048,12287.4
588.214,11849.9
588.38,11632.3
588.546,11985.8
588.713,12120.5
588.879,11869.9
589.045,11727.3
589.211,11755.9
589.377,11888.8
589.543,11846.8
589.709,11879.0
589.875,11968.0
590.041,11896.8
590.207,12058.9
590.373,11955.5
590.539,12269.3
590.705,11989.2
590.871,11851.1
591.037,12004.2
591.203,12074.2
591.369,12012.3
591.535,12305.3
591.701,12050.5
591.867,12225.9
592.033,12270.2
592.199,12166.3
592.365,12394.5
592.531,12480.0
592.697,12183.8
592.863,11986.5
593.029,12332.8
593.195,12362.4
593.361,12404.5
593.526,12165.8
593.692,12307.8
593.858,12382.0
594.024,12250.6
594.19,12584.0
594.356,12202.7
594.522,12352.0
594.687,12369.3
594.853,12423.7
595.019,12450.0
595.185,12491.5
595.351,12549.0
595.516,12374.2
595.682,12718.0
595.848,12685.5
596.014,12719.3
596.18,12592.5
596.345,12847.2
596.511,12744.5
596.677,12639.5
596.843,12998.2
597.008,12678.3
597.174,12652.8
597.34,12860.8
597.505,12768.2
597.671,12706.8
597.837,12946.3
598.002,12921.1
598.168,12846.0
598.334,12787.2
598.499,12690.5
598.665,12871.2
598.831,13138.8
598.996,12813.4
599.162,13013.8
599.328,12998.5
599.493,13332.5
599.659,13142.1
599.824,13007.6
599.99,13115.2
600.156,13086.5
600.321,12862.5
600.487,13401.8
600.652,13279.3
600.818,13067.0
600.983,13040.0
601.149,13265.3
601.314,13251.6
601.48,13452.8
601.645,13241.2
601.811,13437.8
601.976,13227.7
602.142,13345.3
602.307,13270.3
602.473,13454.9
602.638,13502.0
602.804,13263.8
602.969,13468.3
603.135,13304.8
603.3,13391.2
603.466,13401.7
603.631,13685.1
603.796,13463.0
603.962,13738.8
604.127,13414.5
604.293,13618.5
604.458,13697.8
604.623,13429.8
604.789,13483.8
604.954,13655.0
605.119,13825.5
605.285,13609.7
605.45,13423.7
605.615,13573.3
605.781,14084.7
605.946,13904.5
606.111,13607.5
606.277,13642.8
606.442,13767.5
606.607,13899.5
606.772,13731.1
606.938,13859.1
607.103,13864.0
607.268,13711.2
607.433,13975.0
607.599,13719.3
607.764,13815.0
607.929,13848.2
608.094,13917.8
608.259,14097.5
608.425,13654.3
608.59,13991.5
608.755,14139.3
608.92,13863.5
609.085,14355.0
609.25,14038.2
609.415,14149.8
609.581,14074.3
609.746,13960.3
609.911,14012.0
610.076,14132.5
610.241,14242.5
610.406,14286.0
610.571,14179.2
610.736,14070.3
610.901,14106.7
611.066,14557.6
611.231,14265.4
611.396,14206.7
611.561,14331.8
611.727,14360.3
611.892,14119.1
612.057,14172.8
612.222,14043.9
612.386,14534.8
612.551,14487.0
612.716,14328.2
612.881,14535.0
613.046,14519.3
613.211,14337.7
613.376,14163.6
613.541,14097.2
613.706,14755.2
613.871,14119.8
614.036,14557.7
614.201,14581.7
614.366,14356.6
614.531,14625.9
614.695,14456.0
614.86,14728.8
615.025,14578.2
615.19,14670.2
615.355,14768.7
615.52,14662.8
615.684,14523.4
615.849,14879.0
616.014,14615.0
616.179,14500.3
616.344,14750.7
616.508,14703.0
616.673,14750.5
616.838,14709.1
617.003,14471.2
617.168,14594.2
617.332,15007.2
617.497,14406.2
617.662,14747.0
617.826,14987.8
617.991,14689.9
618.156,14751.0
618.32,14583.8
618.485,14831.2
618.65,14839.5
618.814,14971.4
618.979,15120.9
619.144,14881.0
619.308,14778.1
619.473,14966.5
619.638,15113.3
619.802,15098.6
619.967,14921.8
620.131,15200.0
620.296,15047.3
620.461,15154.3
620.625,15142.0
620.79,15103.3
620.954,14749.3
621.119,15157.0
621.283,15008.9
621.448,15350.5
621.612,14963.1
621.777,15180.0
621.941,15210.0
622.106,15241.1
622.27,15090.6
622.435,15188.8
622.599,14999.6
622.764,15098.3
622.928,15219.8
623.093,15357.2
623.257,15392.7
623.422,14844.3
623.586,15465.5
623.75,15118.2
623.915,15454.0
624.079,15378.1
624.244,15126.8
624.408,15253.3
624.572,15428.5
624.737,15240.2
624.901,15051.4
625.065,15368.7
625.23,15467.1
625.394,15468.2
625.558,15112.7
625.723,15441.3
625.887,15115.7
626.051,15085.0
626.215,15500.7
626.38,15271.3
626.544,15291.0
626.708,15408.3
626.872,15403.5
627.037,15280.8
627.201,15231.4
627.365,15232.9
627.529,15429.4
627.693,15403.1
627.858,15447.7
628.022,15477.8
628.186,15669.6
628.35,15573.2
628.514,15100.0
628.678,15274.2
628.843,15370.3
629.007,15563.0
629.171,15549.4
629.335,15573.2
629.499,15547.3
629.663,15551.7
629.827,15580.7
629.991,15524.7
630.155,15524.7
630.319,15383.8
630.483,15326.3
630.647,15319.3
630.812,15405.8
630.976,15563.8
631.14,15456.8
631.304,15801.0
631.468,15759.1
631.632,15363.5
631.796,15335.8
631.959,15284.8
632.123,15374.1
632.287,15557.7
632.451,15697.8
632.615,15734.5
632.779,15651.8
632.943,15640.5
633.107,15938.8
633.271,15633.2
633.435,15446.3
633.599,15526.0
633.763,15520.7
633.926,15757.5
634.09,15853.8
634.254,15676.7
634.418,15584.9
634.582,15701.7
634.746,15420.3
634.909,15540.5
635.073,15833.8
635.237,15832.9
635.401,15258.2
635.564,15390.7
635.728,15266.0
635.892,15721.1
636.056,15554.6
636.219,15583.2
636.383,15317.5
636.547,15944.3
636.711,15548.9
636.874,15433.7
637.038,15486.8
637.202,15787.5
637.365,15565.1
637.529,15572.8
637.693,15599.6
637.856,15641.1
638.02,15609.7
638.184,15322.3
638.347,15638.8
638.511,16019.0
638.674,15693.1
638.838,15162.2
639.002,15521.7
639.165,15625.0
639.329,15589.8
639.492,15478.5
639.656,15513.2
639.819,15592.0
639.983,15523.8
640.146,15507.5
640.31,15227.5
640.473,15663.0
640.637,15526.8
640.8,15477.8
640.964,15023.8
641.127,15684.2
641.291,15293.5
641.454,15744.4
641.618,15347.0
641.781,15263.5
641.944,15500.3
642.108,15366.5
642.271,15380.2
642.435,15681.5
642.598,15403.0
642.761,15440.2
642.925,14872.3
643.088,15133.3
643.251,15402.3
643.415,14710.8
643.578,15526.5
643.741,15648.1
643.905,15259.2
644.068,14827.6
644.231,15307.2
644.394,15555.1
644.558,15445.7
644.721,14866.2
644.884,15011.8
645.047,15532.7
645.211,15432.0
645.374,15159.0
645.537,15040.3
645.7,15285.5
645.863,15279.5
646.027,15080.5
646.19,15072.4
646.353,15144.1
646.516,15170.0
646.679,15442.5
646.842,15224.0
647.005,14748.8
647.169,15157.2
647.332,14924.5
647.495,15042.5
647.658,15227.8
647.821,14779.3
647.984,15128.8
648.147,14970.4
648.31,14652.0
648.473,14803.3
648.636,14822.6
648.799,14969.6
648.962,14845.7
649.125,14551.5
649.288,15237.9
649.451,14548.3
649.614,14743.5
649.777,15109.3
649.94,15208.6
650.103,14448.0
650.266,14522.8
650.429,14429.8
650.592,14797.7
650.755,14910.6
650.918,14996.3
651.08,14622.0
651.243,14727.4
651.406,14765.8
651.569,14934.7
651.732,14466.2
651.895,14969.8
652.058,14303.8
652.22,14130.6
652.383,14214.3
652.546,14408.0
652.709,14689.5
652.872,14425.0
653.034,14263.4
653.197,13870.8
653.36,14219.1
653.523,14496.2
653.685,14228.0
653.848,13736.8
654.011,13589.2
654.173,14113.5
654.336,14075.0
654.499,14010.0
654.662,13692.4
654.824,14268.8
654.987,13806.6
655.149,13445.6
655.312,14260.7
655.475,13900.8
655.637,13524.0
655.8,14178.3
655.963,14078.4
656.125,13476.8
656.288,13593.8
656.45,14537.8
656.613,14293.4
656.775,13823.3
656.938,13163.6
657.1,13339.1
657.263,13620.7
657.425,13864.5
657.588,13623.8
657.75,13653.8
657.913,13537.1
658.075,13400.2
658.238,13181.4
658.4,13162.5
658.563,13599.0
658.725,13576.3
658.888,13408.3
659.05,13515.8
659.212,13241.8
659.375,13450.3
659.537,12953.4
659.7,13005.5
659.862,12775.4
660.024,13073.3
660.187,13311.8
660.349,12860.0
660.511,12924.8
660.674,12900.2
660.836,13091.5
660.998,13184.0
661.079,12724.1