File: spectra/VLFR_01-LDPE_bio_Raman_5f8294b7.csv
nm,Intensity
526.547,832.65
526.684,833.6
526.821,832.55
526.958,833.3
527.095,832.55
527.232,832.8
527.368,832.55
527.505,832.75
527.642,832.4
527.779,833.35
527.916,832.7
528.052,832.05
528.189,832.3
528.326,832.0
528.463,832.95
528.599,832.55
528.736,832.6
528.873,833.15
529.009,833.1
529.146,832.65
529.283,833.15
529.419,832.7
529.556,832.6
529.693,832.6
529.829,832.95
529.966,833.1
530.103,833.1
530.239,831.55
530.376,832.65
530.512,832.3
530.649,832.3
530.785,831.55
530.922,831.9
531.059,830.8
531.195,832.7
531.332,832.45
531.468,832.35
531.605,831.9
531.741,833.8
531.878,832.95
532.014,835.75
532.151,846.1
532.287,843.95
532.423,834.25
532.56,832.1
532.696,833.1
532.833,832.8
532.969,831.65
533.106,833.45
533.242,832.3
533.378,832.85
533.515,832.7
533.651,833.9
533.787,839.25
533.924,858.2
534.06,872.75
534.196,877.2
534.333,875.65
534.469,873.3
534.605,868.55
534.742,870.4
534.878,868.3
535.014,868.5
535.15,868.8
535.287,870.6
535.423,866.9
535.559,865.3
535.695,864.95
535.832,867.25
535.968,870.45
536.104,868.05
536.24,869.8
536.376,870.35
536.513,864.2
536.649,857.55
536.785,858.65
536.921,856.75
537.057,857.65
537.193,859.4
537.329,860.55
537.465,863.15
537.602,858.95
537.738,856.35
537.874,856.1
538.01,855.2
538.146,859.95
538.282,860.05
538.418,859.2
538.554,855.2
538.69,853.45
538.826,853.55
538.962,852.45
539.098,852.45
539.234,850.85
539.37,852.85
539.506,850.95
539.642,851.1
539.778,850.1
539.914,849.6
540.05,851.25
540.186,849.85
540.322,850.45
540.458,850.6
540.594,850.4
540.729,848.65
540.865,849.25
541.001,850.8
541.137,849.4
541.273,852.0
541.409,849.35
541.545,850.55
541.68,848.35
541.816,848.45
541.952,847.0
542.088,848.55
542.224,848.7
542.36,848.55
542.495,849.4
542.631,849.8
542.767,848.45
542.903,848.95
543.038,848.55
543.174,848.8
543.31,847.9
543.446,850.3
543.581,848.8
543.717,849.9
543.853,851.6
543.988,856.55
544.124,868.4
544.26,869.4
544.395,858.45
544.531,851.3
544.667,850.85
544.802,849.3
544.938,846.85
545.074,849.55
545.209,850.05
545.345,848.45
545.481,849.2
545.616,849.6
545.752,849.5
545.887,851.8
546.023,854.75
546.158,857.25
546.294,869.2
546.43,891.2
546.565,906.75
546.701,889.05
546.836,866.35
546.972,857.15
547.107,853.45
547.243,851.85
547.378,850.85
547.514,848.85
547.649,851.0
547.785,849.5
547.92,849.3
548.056,849.95
548.191,849.2
548.326,849.2
548.462,849.4
548.597,849.65
548.733,849.8
548.868,850.85
549.004,852.05
549.139,850.8
549.274,855.4
549.41,852.85
549.545,855.05
549.68,854.7
549.816,854.95
549.951,857.65
550.086,860.3
550.222,865.4
550.357,867.35
550.492,864.5
550.628,857.6
550.763,854.6
550.898,850.55
551.034,848.9
551.169,848.25
551.304,848.65
551.439,848.0
551.575,849.6
551.71,848.25
551.845,847.5
551.98,848.45
552.116,847.55
552.251,849.85
552.386,846.7
552.521,847.75
552.656,846.85
552.792,847.1
552.927,848.05
553.062,846.25
553.197,847.45
553.332,848.9
553.467,849.0
553.603,848.0
553.738,849.15
553.873,847.7
554.008,848.1
554.143,847.7
554.278,848.25
554.413,849.3
554.548,848.85
554.683,847.35
554.819,849.2
554.954,848.0
555.089,847.55
555.224,847.35
555.359,848.4
555.494,847.7
555.629,847.55
555.764,848.7
555.899,848.45
556.034,847.35
556.169,849.55
556.304,849.45
556.439,850.0
556.574,848.6
556.709,849.65
556.844,849.3
556.979,850.6
557.114,850.65
557.249,849.85
557.384,850.65
557.519,852.1
557.653,850.65
557.788,850.9
557.923,852.1
558.058,850.8
558.193,850.7
558.328,850.85
558.463,851.5
558.598,851.6
558.733,851.9
558.867,851.25
559.002,851.15
559.137,849.95
559.272,850.4
559.407,850.05
559.542,851.05
559.677,849.45
559.811,850.85
559.946,850.75
560.081,851.45
560.216,851.05
560.351,849.4
560.485,849.65
560.62,851.25
560.755,850.25
560.89,851.1
561.024,851.25
561.159,851.7
561.294,853.55
561.429,852.45
561.563,854.4
561.698,857.3
561.833,860.8
561.967,866.15
562.102,890.3
562.237,999.85
562.371,1128.5
562.506,994.7
562.641,889.6
562.775,864.7
562.91,858.95
563.045,858.25
563.179,858.7
563.314,858.6
563.449,858.45
563.583,858.85
563.718,861.3
563.853,866.45
563.987,882.05
564.122,891.15
564.256,876.65
564.391,868.35
564.525,866.0
564.66,866.6
564.795,866.0
564.929,864.0
565.064,863.5
565.198,863.1
565.333,862.15
565.467,862.7
565.602,863.9
565.736,866.8
565.871,870.5
566.005,884.8
566.14,903.95
566.274,901.1
566.409,889.7
566.543,885.25
566.678,881.15
566.812,872.7
566.947,869.05
567.081,866.35
567.216,865.45
567.35,864.65
567.484,867.1
567.619,866.65
567.753,864.5
567.888,865.65
568.022,864.5
568.156,863.75
568.291,866.15
568.425,865.6
568.56,866.35
568.694,866.6
568.828,867.15
568.963,868.4
569.097,868.75
569.231,867.0
569.366,867.2
569.5,870.65
569.634,870.2
569.769,872.3
569.903,870.95
570.037,872.75
570.172,870.8
570.306,872.1
570.44,875.95
570.575,874.5
570.709,876.75
570.843,877.25
570.977,879.0
571.112,879.7
571.246,882.1
571.38,895.55
571.514,933.55
571.649,937.5
571.783,907.35
571.917,895.75
572.051,891.95
572.185,891.4
572.32,887.45
572.454,884.25
572.588,885.85
572.722,885.05
572.856,885.9
572.991,885.2
573.125,885.7
573.259,886.7
573.393,887.05
573.527,887.15
573.661,888.05
573.795,891.85
573.93,893.1
574.064,896.3
574.198,891.5
574.332,893.2
574.466,893.45
574.6,894.8
574.734,894.25
574.868,896.1
575.002,896.4
575.136,898.85
575.271,901.65
575.405,908.4
575.539,924.45
575.673,930.15
575.807,922.6
575.941,925.05
576.075,934.6
576.209,947.35
576.343,957.95
576.477,951.65
576.611,946.25
576.745,945.75
576.879,949.75
577.013,947.9
577.147,949.3
577.281,946.3
577.415,940.7
577.549,935.35
577.683,935.05
577.817,938.2
577.951,936.7
578.085,942.2
578.218,938.9
578.352,944.5
578.486,947.9
578.62,950.6
578.754,951.3
578.888,951.6
579.022,955.9
579.156,960.15
579.29,959.95
579.424,967.45
579.557,966.7
579.691,971.4
579.825,969.7
579.959,971.55
580.093,976.8
580.227,977.4
580.361,979.75
580.494,981.8
580.628,985.2
580.762,990.5
580.896,987.35
581.03,992.85
581.164,994.55
581.297,997.85
581.431,1000.9
581.565,1003.1
581.699,1001.35
581.832,1007.35
581.966,1003.25
582.1,1009.75
582.234,1010.65
582.368,1013.85
582.501,1014.25
582.635,1013.65
582.769,1019.4
582.903,1017.25
583.036,1023.1
583.17,1022.6
583.304,1025.25
583.437,1025.75
583.571,1027.55
583.705,1029.4
583.838,1030.2
583.972,1032.5
584.106,1035.35
584.24,1033.65
584.373,1034.6
584.507,1040.4
584.641,1037.45
584.774,1039.3
584.908,1044.3
585.041,1041.85
585.175,1042.8
585.309,1046.6
585.442,1046.45
585.576,1053.3
585.71,1055.05
585.843,1048.95
585.977,1058.25
586.11,1057.15
586.244,1059.5
586.378,1062.7
586.511,1066.75
586.645,1069.1
586.778,1074.25
586.912,1072.55
587.045,1080.9
587.179,1079.1
587.313,1083.25
587.446,1085.25
587.58,1082.0
587.713,1090.4
587.847,1095.3
587.98,1090.65
588.114,1094.6
588.247,1101.6
588.381,1106.65
588.514,1110.35
588.648,1109.85
588.781,1115.25
588.915,1118.45
589.048,1120.3
589.182,1122.5
589.315,1128.6
589.449,1132.55
589.582,1133.9
589.715,1133.5
589.849,1138.3
589.982,1144.35
590.116,1149.75
590.249,1154.75
590.383,1153.65
590.516,1156.55
590.649,1167.15
590.783,1168.3
590.916,1170.8
591.05,1178.25
591.183,1177.65
591.316,1178.45
591.45,1185.25
591.583,1183.6
591.717,1185.0
591.85,1191.15
591.983,1191.35
592.117,1193.85
592.25,1193.95
592.383,1199.1
592.517,1200.3
592.65,1201.25
592.783,1202.45
592.917,1201.1
593.05,1197.1
593.183,1202.55
593.317,1204.6
593.45,1207.8
593.583,1205.05
593.717,1205.55
593.85,1208.8
593.983,1213.1
594.116,1215.25
594.25,1205.15
594.383,1212.5
594.516,1210.9
594.649,1215.7
594.783,1215.75
594.916,1219.55
595.049,1220.5
595.182,1215.85
595.316,1220.95
595.449,1222.65
595.582,1226.5
595.715,1220.75
595.849,1226.6
595.982,1224.3
596.115,1229.0
596.248,1220.5
596.381,1225.6
596.514,1222.65
596.648,1226.55
596.781,1231.15
596.914,1228.15
597.047,1229.65
597.18,1229.0
597.313,1232.85
597.447,1234.4
597.58,1234.95
597.713,1231.25
597.846,1232.8
597.979,1234.05
598.112,1237.1
598.245,1235.7
598.379,1240.75
598.512,1240.35
598.645,1244.6
598.778,1248.4
598.911,1246.1
599.044,1246.25
599.177,1241.7
599.31,1245.35
599.443,1247.85
599.576,1247.6
599.709,1252.6
599.842,1246.2
599.975,1251.55
600.109,1249.0
600.242,1246.35
600.375,1243.45
600.508,1240.2
600.641,1242.45
600.774,1239.1
600.907,1234.65
601.04,1237.2
601.173,1234.15
601.306,1229.5
601.439,1234.85
601.572,1230.4
601.705,1228.35
601.838,1227.15
601.971,1226.3
602.104,1217.3
602.237,1220.95
602.37,1220.0
602.503,1217.75
602.636,1214.15
602.768,1216.4
602.901,1211.55
603.034,1212.25
603.167,1212.55
603.3,1201.1
603.433,1198.5
603.566,1198.05
603.699,1197.45
603.832,1194.8
603.965,1185.15
604.098,1183.75
604.231,1181.25
604.364,1180.25
604.496,1175.65
604.629,1165.45
604.762,1166.8
604.895,1158.65
605.028,1160.85
605.161,1151.7
605.294,1151.75
605.427,1147.2
605.559,1141.65
605.692,1138.4
605.825,1133.1
605.958,1132.0
606.091,1128.35
606.224,1124.75
606.356,1115.75
606.489,1114.55
606.622,1117.65
606.755,1116.2
606.888,1110.35
607.02,1108.45
607.153,1106.35
607.286,1103.9
607.419,1103.95
607.552,1098.5
607.684,1097.65
607.817,1098.6
607.95,1091.6
608.083,1095.85
608.215,1091.55
608.348,1091.15
608.481,1088.95
608.614,1084.85
608.746,1088.45
608.879,1085.1
609.012,1080.95
609.145,1079.3
609.277,1076.85
609.41,1079.55
609.543,1080.05
609.675,1070.9
609.808,1071.65
609.941,1070.7
610.074,1072.5
610.206,1066.8
610.339,1067.05
610.472,1066.8
610.604,1060.7
610.737,1066.65
610.87,1061.25
611.002,1064.4
611.135,1063.75
611.268,1059.9
611.4,1059.75
611.533,1056.15
611.666,1057.4
611.798,1054.7
611.931,1056.8
612.063,1059.25
612.196,1055.65
612.329,1055.2
612.461,1055.6
612.594,1052.05
612.727,1052.1
612.859,1056.55
612.992,1056.25
613.124,1053.6
613.257,1054.55
613.39,1053.0
613.522,1051.15
613.655,1052.2
613.787,1053.9
613.92,1051.95
614.052,1045.85
614.185,1042.55
614.317,1047.6
614.45,1045.35
614.583,1041.85
614.715,1044.9
614.848,1041.2
614.98,1039.55
615.113,1036.65
615.245,1040.35
615.378,1037.7
615.51,1030.5
615.643,1035.25
615.775,1034.85
615.908,1031.3
616.04,1033.9
616.173,1031.95
616.305,1030.4
616.438,1027.8
616.57,1025.85
616.703,1027.3
616.835,1027.6
616.968,1028.5
617.1,1024.2
617.233,1024.35
617.365,1025.65
617.498,1022.25
617.63,1020.8
617.762,1021.7
617.895,1019.6
618.027,1019.15
618.16,1019.05
618.292,1019.4
618.425,1020.55
618.557,1011.9
618.689,1012.9
618.822,1015.15
618.954,1011.0
619.087,1013.15
619.219,1007.15
619.351,1008.1
619.484,1008.55
619.616,1008.45
619.749,1008.55
619.881,1007.2
620.013,1006.5
620.146,1004.55
620.278,1003.05
620.41,1000.35
620.543,1002.0
620.675,1002.75
620.808,1000.7
620.94,1001.25
621.072,1002.35
621.205,1000.45
621.337,1004.35
621.469,1004.4
621.602,1001.1
621.734,1000.05
621.866,1005.6
621.998,1006.25
622.131,1007.95
622.263,1007.45
622.395,1007.6
622.528,1004.6
622.66,1001.65
622.792,999.85
622.925,1002.05
623.057,1000.55
623.189,994.85
623.321,993.85
623.454,993.05
623.586,992.15
623.718,995.45
623.85,992.95
623.983,991.75
624.115,988.6
624.247,990.0
624.379,991.5
624.512,992.55
624.644,989.3
624.776,987.85
624.908,990.55
625.041,987.45
625.173,986.5
625.305,990.25
625.437,989.0
625.569,989.8
625.702,990.2
625.834,993.6
625.966,993.7
626.098,991.75
626.23,995.0
626.363,998.85
626.495,1005.65
626.627,1016.1
626.759,1035.4
626.891,1076.3
627.024,1136.2
627.156,1204.65
627.288,1220.9
627.42,1208.15
627.552,1174.75
627.684,1155.05
627.816,1134.3
627.949,1121.85
628.081,1119.2
628.213,1123.7
628.345,1150.15
628.477,1201.95
628.609,1250.45
628.741,1214.0
628.874,1166.8
629.006,1153.85
629.138,1151.05
629.27,1147.55
629.402,1132.25
629.534,1120.35
629.666,1112.2
629.798,1102.35
629.93,1096.7
630.062,1094.1
630.195,1094.2
630.327,1086.3
630.459,1090.55
630.591,1084.8
630.723,1078.15
630.855,1064.3
630.987,1052.9
631.119,1040.4
631.251,1029.15
631.383,1024.55
631.515,1019.85
631.647,1019.05
631.779,1018.35
631.911,1016.9
632.043,1014.85
632.175,1013.75
632.307,1010.3
632.439,1008.75
632.571,1008.6
632.703,1011.7
632.835,1007.7
632.967,1007.4
633.099,1005.75
633.231,1008.0
633.363,1007.95
633.495,1006.7
633.627,1008.75
633.759,1008.7
633.891,1008.45
634.023,1008.55
634.155,1012.9
634.287,1012.5
634.419,1012.8
634.551,1009.2
634.683,1011.95
634.815,1010.5
634.947,1009.0
635.079,1014.75
635.211,1012.35
635.343,1014.2
635.475,1010.0
635.607,1012.75
635.739,1012.1
635.871,1015.85
636.003,1016.95
636.135,1019.05
636.267,1014.65
636.398,1014.15
636.53,1014.4
636.662,1013.25
636.794,1017.65
636.926,1014.8
637.058,1018.6
637.19,1015.95
637.322,1015.2
637.454,1015.15
637.586,1017.75
637.717,1016.8
637.849,1016.25
637.981,1018.9
638.113,1021.4
638.245,1018.75
638.377,1023.75
638.509,1023.95
638.641,1020.2
638.773,1022.75
638.904,1023.3
639.036,1024.0
639.168,1024.85
639.3,1022.05
639.432,1022.95
639.564,1027.2
639.695,1023.3
639.827,1027.0
639.959,1025.55
640.091,1029.55
640.223,1026.45
640.355,1030.3
640.486,1031.15
640.618,1029.0
640.75,1030.45
640.882,1030.15
641.014,1032.8
641.146,1034.15
641.277,1034.0
641.409,1032.85
641.541,1034.05
641.673,1034.9
641.805,1039.55
641.936,1037.3
642.068,1038.4
642.2,1036.5
642.332,1036.7
642.464,1038.2
642.595,1036.0
642.727,1037.8
642.859,1042.65
642.991,1040.1
643.122,1037.55
643.254,1037.55
643.386,1037.25
643.518,1040.75
643.649,1039.25
643.781,1041.55
643.913,1038.9
644.045,1039.05
644.176,1037.4
644.308,1036.0
644.44,1041.8
644.572,1041.25
644.703,1036.8
644.835,1039.2
644.967,1038.6
645.099,1041.7
645.23,1039.15
645.362,1040.35
645.494,1039.35
645.625,1037.25
645.757,1040.75
645.889,1043.75
646.021,1039.45
646.152,1038.4
646.284,1040.45
646.416,1040.55
646.547,1039.5
646.679,1038.15
646.811,1035.8
646.942,1040.2
647.074,1036.55
647.206,1041.35
647.337,1034.9
647.469,1037.85
647.601,1039.75
647.732,1037.6
647.864,1036.15
647.996,1036.15
648.127,1038.15
648.259,1033.85
648.391,1033.85
648.522,1035.45
648.654,1036.25
648.786,1041.5
648.917,1038.4
649.049,1039.75
649.181,1041.1
649.312,1037.5
649.444,1043.55
649.576,1048.15
649.707,1048.5
649.839,1050.65
649.971,1052.2
650.102,1049.8
650.234,1047.4
650.365,1041.0
650.497,1036.95
650.629,1033.55
650.76,1029.9
650.892,1032.3
651.023,1029.65
651.155,1030.4
651.287,1028.6
651.418,1029.45
651.55,1028.25
651.682,1028.85
651.813,1029.5
651.945,1022.15
652.076,1023.45
652.208,1019.3
652.339,1023.15
652.471,1021.8
652.603,1023.85
652.734,1021.55
652.866,1021.9
652.997,1020.85
653.129,1022.8
653.261,1021.8
653.392,1021.65
653.524,1023.3
653.655,1025.0
653.787,1018.3
653.918,1021.05
654.05,1020.35
654.181,1023.1
654.313,1020.2
654.445,1019.45
654.576,1018.05
654.708,1019.95
654.839,1015.9
654.971,1013.95
655.102,1017.85
655.234,1014.05
655.365,1016.25
655.497,1012.35
655.628,1014.15
655.76,1015.25
655.892,1007.45
656.023,1010.6
656.155,1011.45
656.286,1008.0
656.418,1008.0
656.549,1010.45
656.681,1007.0
656.812,1007.6
656.944,1005.85
657.075,1005.9
657.207,1003.75
657.338,1003.35
657.47,1004.6
657.601,1005.25
657.733,1002.4
657.864,1000.3
657.996,1000.15
658.127,1000.9
658.259,998.4
658.39,997.65
658.522,993.95
658.653,997.45
658.785,993.0
658.916,993.85
659.048,989.75
659.179,991.2
659.311,995.7
659.442,992.45
659.574,987.3
659.705,988.8
659.836,988.3
659.968,985.0
660.099,984.15
660.231,981.1
660.362,982.45
660.494,982.6
660.625,977.2
660.757,974.5
660.888,973.55
661.02,971.6
661.151,973.1
661.283,972.0
661.414,969.65
661.545,969.1
661.677,968.3
661.808,965.15
661.94,966.0
662.071,963.25
662.203,965.05
662.334,960.85
662.466,961.05
662.597,959.6
662.728,957.75
662.86,959.4
662.991,960.8
663.123,951.7