File: spectra/VLFR_01-LDPE_bio_Raman_5603c198.csv
nm,Intensity
528.626,1863.6
528.795,1865.2
528.963,1864.6
529.132,1864.8
529.3,1864.1
529.469,1864.7
529.637,1864.4
529.806,1865.0
529.974,1862.9
530.143,1865.5
530.311,1865.1
530.48,1866.6
530.648,1863.8
530.816,1864.7
530.985,1864.8
531.153,1866.2
531.322,1868.6
531.49,1870.1
531.658,1892.8
531.827,2338.0
531.995,3542.7
532.164,3784.1
532.332,2160.4
532.5,1871.0
532.669,1868.3
532.837,1866.3
533.006,1863.4
533.174,1867.6
533.342,1866.6
533.511,1874.8
533.679,1938.2
533.847,2055.8
534.016,2144.3
534.184,2169.7
534.352,2176.1
534.521,2151.8
534.689,2164.8
534.857,2165.1
535.025,2164.7
535.194,2170.1
535.362,2166.7
535.53,2174.3
535.699,2160.1
535.867,2160.4
536.035,2152.9
536.203,2142.9
536.372,2128.9
536.54,2142.7
536.708,2137.8
536.876,2128.0
537.044,2115.5
537.213,2138.9
537.381,2142.3
537.549,2142.1
537.717,2144.5
537.885,2146.7
538.054,2145.7
538.222,2127.8
538.39,2145.7
538.558,2145.5
538.726,2144.2
538.894,2121.7
539.063,2134.7
539.231,2123.9
539.399,2127.8
539.567,2117.0
539.735,2127.5
539.903,2138.8
540.071,2136.4
540.239,2126.3
540.408,2121.6
540.576,2129.1
540.744,2129.0
540.912,2122.7
541.08,2133.0
541.248,2119.3
541.416,2137.0
541.584,2120.7
541.752,2135.0
541.92,2124.5
542.088,2129.9
542.256,2138.0
542.424,2125.8
542.592,2146.5
542.76,2127.1
542.928,2131.8
543.096,2126.8
543.264,2131.9
543.432,2122.9
543.6,2124.8
543.768,2150.4
543.936,2156.1
544.104,2137.9
544.272,2138.6
544.44,2133.5
544.608,2127.0
544.776,2135.0
544.944,2145.0
545.112,2150.8
545.28,2151.0
545.448,2126.3
545.616,2134.0
545.784,2152.0
545.951,2148.6
546.119,2130.2
546.287,2145.7
546.455,2148.4
546.623,2142.6
546.791,2141.2
546.959,2157.4
547.127,2157.6
547.294,2145.0
547.462,2131.5
547.63,2132.3
547.798,2141.2
547.966,2135.6
548.134,2144.0
548.301,2156.8
548.469,2164.9
548.637,2157.6
548.805,2137.2
548.972,2159.6
549.14,2143.9
549.308,2160.0
549.476,2148.9
549.644,2153.8
549.811,2163.3
549.979,2144.2
550.147,2147.5
550.315,2150.1
550.482,2156.3
550.65,2165.7
550.818,2153.4
550.985,2153.2
551.153,2166.8
551.321,2154.3
551.488,2164.2
551.656,2168.4
551.824,2176.2
551.991,2178.0
552.159,2172.3
552.327,2171.1
552.494,2158.5
552.662,2151.5
552.83,2152.7
552.997,2145.9
553.165,2193.2
553.333,2162.0
553.5,2175.0
553.668,2175.5
553.835,2187.4
554.003,2172.1
554.171,2190.8
554.338,2170.5
554.506,2178.1
554.673,2194.8
554.841,2194.6
555.008,2200.7
555.176,2202.1
555.343,2180.7
555.511,2199.5
555.679,2194.2
555.846,2183.7
556.014,2204.8
556.181,2199.8
556.349,2199.2
556.516,2190.0
556.684,2195.7
556.851,2203.1
557.018,2199.0
557.186,2187.8
557.353,2207.6
557.521,2217.3
557.688,2213.7
557.856,2228.5
558.023,2224.2
558.191,2225.2
558.358,2230.6
558.525,2208.1
558.693,2199.1
558.86,2195.0
559.028,2205.5
559.195,2201.4
559.362,2197.3
559.53,2211.0
559.697,2212.3
559.864,2203.5
560.032,2194.5
560.199,2197.3
560.366,2212.6
560.534,2223.5
560.701,2224.3
560.868,2228.5
561.036,2238.3
561.203,2224.4
561.37,2212.5
561.538,2204.6
561.705,2235.3
561.872,2228.1
562.039,2251.3
562.207,2240.1
562.374,2226.3
562.541,2239.7
562.708,2255.5
562.876,2271.2
563.043,2263.5
563.21,2270.8
563.377,2262.3
563.545,2290.6
563.712,2328.4
563.879,2409.6
564.046,2464.9
564.213,2423.4
564.38,2342.9
564.548,2326.2
564.715,2329.1
564.882,2336.2
565.049,2306.7
565.216,2292.6
565.383,2304.9
565.551,2284.5
565.718,2327.4
565.885,2391.2
566.052,2496.2
566.219,2512.5
566.386,2420.6
566.553,2336.4
566.72,2326.5
566.887,2317.0
567.054,2331.4
567.221,2333.0
567.388,2334.8
567.555,2333.2
567.722,2322.6
567.889,2314.1
568.057,2322.5
568.224,2323.5
568.391,2327.3
568.558,2317.4
568.725,2324.7
568.892,2328.9
569.058,2322.1
569.225,2341.2
569.392,2370.3
569.559,2348.4
569.726,2373.7
569.893,2368.2
570.06,2361.7
570.227,2368.7
570.394,2405.8
570.561,2407.1
570.728,2414.2
570.895,2408.3
571.062,2445.8
571.229,2539.2
571.395,2685.4
571.562,2802.8
571.729,2706.2
571.896,2585.3
572.063,2555.0
572.23,2552.4
572.397,2527.1
572.563,2534.4
572.73,2514.5
572.897,2514.9
573.064,2541.0
573.231,2536.4
573.397,2563.9
573.564,2572.1
573.731,2568.7
573.898,2610.7
574.064,2621.7
574.231,2613.3
574.398,2604.8
574.565,2630.1
574.731,2667.4
574.898,2663.4
575.065,2674.7
575.232,2694.9
575.398,2806.3
575.565,2894.1
575.732,2929.2
575.898,2898.9
576.065,3010.9
576.232,3113.3
576.398,3128.1
576.565,3076.6
576.732,3120.2
576.898,3128.4
577.065,3074.7
577.232,3088.7
577.398,3034.9
577.565,3059.8
577.731,3059.6
577.898,3070.3
578.065,3114.9
578.231,3107.6
578.398,3143.3
578.564,3129.2
578.731,3180.8
578.897,3244.1
579.064,3287.6
579.23,3282.7
579.397,3320.9
579.563,3371.1
579.73,3382.4
579.896,3432.6
580.063,3492.0
580.229,3479.8
580.396,3507.1
580.562,3593.9
580.729,3606.1
580.895,3665.8
581.062,3705.3
581.228,3776.5
581.395,3747.1
581.561,3783.9
581.728,3788.2
581.894,3854.5
582.06,3906.6
582.227,3928.2
582.393,3915.3
582.56,3959.1
582.726,4045.5
582.892,4072.2
583.059,4076.9
583.225,4141.3
583.391,4198.2
583.558,4136.8
583.724,4204.2
583.89,4286.1
584.057,4369.2
584.223,4487.4
584.389,4373.4
584.556,4517.5
584.722,4526.0
584.888,4457.0
585.054,4602.5
585.221,4578.4
585.387,4602.4
585.553,4654.8
585.719,4647.0
585.886,4782.1
586.052,4909.1
586.218,4840.3
586.384,4880.2
586.55,5009.7
586.717,5102.3
586.883,5027.0
587.049,5163.5
587.215,5276.7
587.381,5278.3
587.548,5383.4
587.714,5487.7
587.88,5539.2
588.046,5632.7
588.212,5620.7
588.378,5705.9
588.544,5759.1
588.71,5808.1
588.876,5728.1
589.043,5858.6
589.209,6037.3
589.375,6012.7
589.541,6108.2
589.707,6199.7
589.873,6272.8
590.039,6185.2
590.205,6277.2
590.371,6530.5
590.537,6637.4
590.703,6566.0
590.869,6626.8
591.035,6717.1
591.201,6691.2
591.367,6783.5
591.533,6827.7
591.699,6838.0
591.865,7013.0
592.031,7139.2
592.197,7098.7
592.363,7247.0
592.529,7218.5
592.694,7264.2
592.86,7250.0
593.026,7344.8
593.192,7372.0
593.358,7472.8
593.524,7478.9
593.69,7421.4
593.856,7603.2
594.021,7593.3
594.187,7576.7
594.353,7832.5
594.519,7829.9
594.685,7859.4
594.851,7772.7
595.016,7915.7
595.182,8005.3
595.348,8183.8
595.514,8192.4
595.68,8257.1
595.845,8515.2
596.011,8482.3
596.177,8524.1
596.342,8686.3
596.508,8677.0
596.674,8713.6
596.84,8920.3
597.005,9072.0
597.171,8852.1
597.337,9042.8
597.502,9242.5
597.668,9292.3
597.834,9233.7
597.999,9456.3
598.165,9453.0
598.331,9562.0
598.496,9668.6
598.662,9729.5
598.828,9760.9
598.993,9857.3
599.159,9988.0
599.324,10152.6
599.49,10045.5
599.656,10270.0
599.821,10339.6
599.987,10226.3
600.152,10260.7
600.318,10349.0
600.483,10392.4
600.649,10285.7
600.814,10407.5
600.98,10487.9
601.145,10242.4
601.311,10528.8
601.476,10331.6
601.642,10516.7
601.807,10389.4
601.973,10230.7
602.138,10193.8
602.304,10106.0
602.469,10080.5
602.635,10129.4
602.8,10083.0
602.965,9914.0
603.131,10118.9
603.296,9991.1
603.462,9778.2
603.627,9645.6
603.792,9753.0
603.958,9666.7
604.123,9417.3
604.288,9270.1
604.454,9298.4
604.619,9212.1
604.784,9116.4
604.95,9120.1
605.115,8773.5
605.28,8745.5
605.446,8745.7
605.611,8737.7
605.776,8435.7
605.941,8425.6
606.107,8305.7
606.272,8261.7
606.437,8260.1
606.602,8115.3
606.767,8000.8
606.933,8046.2
607.098,7794.3
607.263,7822.0
607.428,7533.9
607.593,7730.4
607.759,7550.6
607.924,7517.9
608.089,7370.5
608.254,7489.1
608.419,7303.0
608.584,7180.3
608.749,7194.8
608.915,7168.6
609.08,7095.3
609.245,6897.7
609.41,6972.8
609.575,6860.8
609.74,6878.8
609.905,6846.8
610.07,6785.8
610.235,6713.0
610.4,6652.0
610.565,6649.2
610.73,6587.5
610.895,6525.0
611.06,6572.7
611.225,6455.0
611.39,6548.4
611.555,6490.8
611.72,6378.5
611.885,6245.6
612.05,6221.7
612.215,6250.2
612.38,6263.7
612.545,6019.0
612.71,6181.4
612.875,6082.7
613.04,6082.7
613.204,6028.6
613.369,6005.2
613.534,6014.0
613.699,5872.4
613.864,5892.0
614.029,5851.5
614.194,5835.8
614.358,5815.9
614.523,5829.9
614.688,5756.2
614.853,5674.8
615.018,5674.5
615.182,5693.7
615.347,5640.4
615.512,5686.4
615.677,5506.5
615.841,5500.0
616.006,5517.8
616.171,5387.4
616.336,5484.6
616.5,5356.9
616.665,5384.9
616.83,5399.0
616.994,5339.9
617.159,5342.5
617.324,5309.4
617.489,5170.2
617.653,5240.5
617.818,5195.2
617.982,5202.8
618.147,5169.4
618.312,5138.3
618.476,5111.9
618.641,5044.4
618.805,5116.6
618.97,5087.4
619.135,4959.1
619.299,4993.9
619.464,5036.2
619.628,5043.0
619.793,4967.4
619.957,4929.7
620.122,5008.9
620.286,4905.6
620.451,4876.6
620.615,4796.0
620.78,4924.9
620.944,4862.6
621.109,4860.4
621.273,4837.8
621.438,4819.0
621.602,4809.0
621.767,4759.7
621.931,4818.9
622.095,4833.3
622.26,4853.6
622.424,4760.3
622.589,4773.9
622.753,4739.7
622.917,4720.7
623.082,4685.0
623.246,4596.8
623.41,4646.8
623.575,4635.2
623.739,4668.4
623.903,4546.0
624.068,4572.8
624.232,4538.7
624.396,4628.2
624.561,4541.3
624.725,4522.1
624.889,4543.2
625.053,4539.2
625.218,4555.1
625.382,4451.9
625.546,4478.9
625.71,4453.3
625.875,4466.7
626.039,4459.4
626.203,4498.1
626.367,4532.2
626.531,4739.7
626.695,4888.0
626.86,5236.8
627.024,5793.7
627.188,5999.6
627.352,6004.3
627.516,5869.9
627.68,5548.0
627.844,5451.0
628.008,5391.1
628.172,5505.0
628.337,5805.7
628.501,6319.2
628.665,6037.9
628.829,5686.4
628.993,5593.3
629.157,5475.9
629.321,5466.3
629.485,5219.2
629.649,5105.5
629.813,5175.0
629.977,5100.6
630.141,4977.0
630.305,4903.6
630.469,5026.7
630.633,4873.2
630.797,4822.5
630.96,4613.2
631.124,4538.5
631.288,4500.0
631.452,4406.1
631.616,4391.0
631.78,4307.9
631.944,4298.0
632.108,4257.9
632.272,4328.0
632.435,4317.2
632.599,4258.2
632.763,4345.6
632.927,4272.9
633.091,4241.3
633.254,4354.8
633.418,4319.4
633.582,4279.9
633.746,4273.6
633.91,4279.7
634.073,4270.9
634.237,4300.5
634.401,4308.1
634.564,4292.9
634.728,4261.6
634.892,4370.4
635.056,4352.8
635.219,4242.0
635.383,4248.3
635.547,4308.5
635.71,4265.3
635.874,4275.4
636.038,4353.8
636.201,4322.7
636.365,4359.0
636.528,4359.4
636.692,4352.4
636.856,4358.7
637.019,4321.1
637.183,4346.1
637.346,4343.4
637.51,4310.5
637.673,4380.3
637.837,4384.7
638.0,4322.3
638.164,4417.3
638.327,4413.7
638.491,4411.1
638.654,4387.7
638.818,4403.4
638.981,4407.2
639.145,4430.0
639.308,4445.2
639.472,4413.2
639.635,4427.2
639.799,4435.0
639.962,4525.6
640.125,4494.4
640.289,4510.3
640.452,4434.7
640.616,4538.6
640.779,4475.7
640.942,4507.8
641.106,4470.5
641.269,4484.1
641.432,4645.3
641.596,4583.6
641.759,4553.9
641.922,4542.5
642.085,4541.1
642.249,4547.8
642.412,4601.6
642.575,4644.1
642.738,4654.9
642.902,4618.0
643.065,4583.7
643.228,4543.2
643.391,4737.2
643.555,4639.7
643.718,4633.3
643.881,4612.0
644.044,4776.2
644.207,4694.7
644.37,4696.3
644.534,4672.3
644.697,4676.3
644.86,4717.0
645.023,4602.0
645.186,4761.5
645.349,4702.3
645.512,4738.8
645.675,4750.5
645.838,4660.4
646.001,4757.1
646.164,4735.4
646.327,4708.8
646.49,4749.3
646.653,4731.5
646.816,4773.2
646.979,4687.3
647.142,4749.3
647.305,4822.2
647.468,4688.1
647.631,4695.1
647.794,4735.3
647.957,4655.8
648.12,4740.2
648.283,4732.7
648.446,4699.7
648.609,4643.6
648.772,4746.1
648.935,4733.2
649.098,4673.7
649.26,4735.2
649.423,4638.0
649.586,4652.1
649.749,4715.0
649.912,4697.7
650.075,4741.4
650.237,4654.4
650.4,4757.0
650.563,4691.9
650.726,4688.1
650.888,4713.2
651.051,4866.2
651.214,4660.3
651.377,4613.5
651.539,4726.9
651.702,4630.8
651.865,4645.6
652.027,4692.8
652.19,4786.0
652.353,4751.5
652.515,4624.3
652.678,4755.9
652.841,4741.2
653.003,4701.3
653.166,4672.2
653.329,4685.8
653.491,4671.0
653.654,4640.6
653.816,4596.4
653.979,4627.1
654.142,4623.5
654.304,4637.7
654.467,4614.2
654.629,4505.1
654.792,4623.2
654.954,4592.7
655.117,4521.5
655.279,4543.0
655.442,4606.8
655.604,4532.6
655.767,4603.7
655.929,4496.3
656.091,4510.2
656.254,4461.1
656.416,4524.1
656.579,4442.7
656.741,4460.0
656.904,4326.0
657.066,4314.1
657.228,4365.0
657.391,4360.9
657.553,4298.7
657.715,4354.0
657.878,4186.0
658.04,4203.5
658.202,4180.7
658.365,4160.7
658.527,4118.4
658.689,4111.2
658.851,4071.2
659.014,4068.1
659.176,4040.4
659.338,3909.0
659.5,3915.0
659.663,3926.3
659.825,3891.1
659.987,3879.9
660.149,3903.4
660.311,3933.8
660.474,3799.7
660.636,3845.1
660.798,3824.2
660.96,3722.7
661.041,3714.7