File: spectra/VLFR_09-PET_bio_Raman_045d928a.csv
nm,Intensity
528.65,1854.1
528.819,1852.15
528.987,1851.65
529.155,1851.45
529.324,1850.1
529.492,1854.6
529.66,1851.25
529.829,1852.25
529.997,1851.35
530.165,1852.4
530.334,1850.75
530.502,1852.35
530.67,1852.35
530.839,1853.05
531.007,1853.4
531.175,1851.8
531.344,1855.15
531.512,1857.75
531.68,1874.45
531.848,2202.1
532.017,3065.95
532.185,2861.85
532.353,1934.2
532.521,1855.65
532.69,1858.1
532.858,1857.15
533.026,1857.45
533.194,1862.7
533.363,1875.05
533.531,2006.65
533.699,2839.4
533.867,4399.35
534.036,5339.5
534.204,5506.75
534.372,5461.1
534.54,5337.85
534.708,5286.9
534.877,5295.75
535.045,5225.2
535.213,5175.95
535.381,5171.15
535.549,5076.45
535.717,4978.8
535.886,4950.95
536.054,4868.45
536.222,4873.7
536.39,4887.6
536.558,4910.05
536.726,4913.25
536.894,4869.25
537.062,4879.6
537.231,4924.65
537.399,4971.2
537.567,5064.05
537.735,5083.75
537.903,5091.45
538.071,5059.35
538.239,5115.75
538.407,5088.0
538.575,5099.75
538.743,5089.2
538.911,5198.45
539.079,5256.45
539.247,5225.9
539.415,5261.45
539.583,5281.55
539.751,5370.65
539.919,5357.45
540.087,5380.55
540.255,5396.0
540.423,5430.85
540.591,5415.3
540.759,5410.85
540.927,5446.15
541.095,5434.65
541.263,5402.7
541.431,5440.1
541.599,5447.95
541.767,5428.15
541.935,5444.8
542.103,5562.7
542.271,5584.75
542.439,5601.7
542.607,5668.15
542.775,5628.45
542.943,5723.7
543.111,5701.9
543.279,5723.4
543.446,5732.55
543.614,5731.35
543.782,5730.05
543.95,5759.65
544.118,5861.65
544.286,5821.3
544.454,5836.65
544.622,5829.85
544.789,5828.55
544.957,5947.35
545.125,5930.3
545.293,5953.4
545.461,5957.9
545.629,5990.2
545.796,6045.0
545.964,6007.95
546.132,6025.55
546.3,6086.75
546.468,6174.7
546.635,6143.1
546.803,6113.1
546.971,6207.05
547.139,6138.2
547.306,6249.9
547.474,6223.6
547.642,6306.25
547.81,6230.8
547.977,6363.45
548.145,6388.3
548.313,6373.15
548.481,6507.6
548.648,6442.45
548.816,6409.0
548.984,6427.45
549.151,6486.5
549.319,6561.75
549.487,6475.9
549.655,6537.25
549.822,6451.2
549.99,6549.45
550.158,6524.6
550.325,6705.55
550.493,6890.4
550.66,7091.75
550.828,6984.5
550.996,6807.85
551.163,6798.0
551.331,6839.25
551.499,6786.4
551.666,6866.65
551.834,6889.1
552.001,6950.45
552.169,6819.6
552.337,6975.95
552.504,6913.7
552.672,7015.55
552.839,7178.1
553.007,7002.0
553.174,6946.35
553.342,6960.55
553.509,6969.65
553.677,6904.6
553.844,7076.05
554.012,7032.15
554.179,7019.95
554.347,7195.45
554.514,7148.3
554.682,7127.1
554.849,7205.5
555.017,7273.9
555.184,7225.85
555.352,7351.7
555.519,7298.95
555.687,7367.35
555.854,7465.6
556.022,7448.3
556.189,7368.35
556.357,7449.85
556.524,7526.95
556.691,7572.55
556.859,7588.2
557.026,7549.1
557.194,7818.45
557.361,7988.1
557.528,8188.35
557.696,8143.1
557.863,8017.7
558.031,7772.9
558.198,7691.1
558.365,7796.0
558.533,7778.75
558.7,7669.3
558.867,7737.0
559.035,7794.8
559.202,7695.75
559.369,7667.45
559.537,7706.55
559.704,7700.9
559.871,7684.95
560.038,7742.0
560.206,7823.35
560.373,7871.05
560.54,7849.1
560.708,7994.8
560.875,7925.55
561.042,7866.1
561.209,8019.9
561.377,8059.65
561.544,8162.15
561.711,8243.7
561.878,8182.2
562.045,8196.85
562.213,8280.9
562.38,8120.75
562.547,8259.85
562.714,8306.15
562.881,8274.05
563.049,8308.85
563.216,8177.0
563.383,8282.95
563.55,8232.6
563.717,8263.9
563.884,8343.85
564.052,8504.4
564.219,8423.2
564.386,8511.3
564.553,8612.95
564.72,8639.25
564.887,8826.25
565.054,8963.8
565.221,8981.3
565.388,9031.6
565.556,9040.8
565.723,9100.7
565.89,9051.1
566.057,8890.25
566.224,8903.2
566.391,8841.35
566.558,8841.8
566.725,8739.65
566.892,8848.95
567.059,8847.65
567.226,8919.2
567.393,8867.7
567.56,8913.85
567.727,9097.15
567.894,9181.85
568.061,9068.3
568.228,9129.1
568.395,9005.8
568.562,9089.6
568.729,9055.35
568.896,9134.95
569.063,9202.15
569.23,9174.1
569.396,9170.55
569.563,9205.95
569.73,9326.1
569.897,9435.35
570.064,9296.5
570.231,9357.55
570.398,9496.7
570.565,9659.7
570.732,9950.35
570.898,10113.2
571.065,10379.1
571.232,10658.3
571.399,10689.7
571.566,10508.0
571.733,10342.8
571.9,10038.8
572.066,9984.65
572.233,9838.5
572.4,9809.0
572.567,9868.1
572.734,9729.25
572.9,9668.7
573.067,9727.35
573.234,9818.3
573.401,9655.7
573.567,9764.85
573.734,9716.1
573.901,9805.35
574.068,9846.85
574.234,9814.95
574.401,9740.8
574.568,9739.35
574.734,9897.5
574.901,9918.45
575.068,9990.6
575.235,10069.7
575.401,10172.3
575.568,10180.5
575.735,10075.2
575.901,10111.6
576.068,10090.1
576.235,10189.3
576.401,10364.8
576.568,10227.1
576.734,10243.1
576.901,10119.7
577.068,10285.3
577.234,10335.9
577.401,10162.7
577.567,10089.8
577.734,10107.5
577.901,10112.2
578.067,10112.3
578.234,10138.8
578.4,10192.9
578.567,10251.2
578.733,10259.0
578.9,10184.0
579.066,10197.1
579.233,10298.2
579.399,10301.3
579.566,10204.3
579.732,10514.1
579.899,10543.2
580.065,10328.3
580.232,10337.2
580.398,10483.9
580.565,10483.7
580.731,10572.8
580.898,10603.5
581.064,10502.8
581.231,10654.7
581.397,10662.4
581.563,11071.4
581.73,11697.5
581.896,13039.8
582.063,14612.0
582.229,14380.6
582.395,12453.0
582.562,11103.0
582.728,10851.4
582.895,10531.3
583.061,10661.3
583.227,10661.8
583.394,10552.9
583.56,10701.3
583.726,10729.8
583.893,10796.0
584.059,10740.0
584.225,10521.5
584.391,10619.6
584.558,10734.5
584.724,10650.4
584.89,10701.3
585.057,10791.7
585.223,10846.4
585.389,11014.6
585.555,11821.3
585.722,12319.5
585.888,12925.1
586.054,12946.0
586.22,12599.5
586.386,12020.2
586.553,11428.1
586.719,11124.5
586.885,10920.1
587.051,10865.4
587.217,10801.3
587.384,10954.8
587.55,10661.2
587.716,10915.7
587.882,10929.6
588.048,10931.8
588.214,10865.1
588.38,10763.4
588.546,10700.1
588.713,11061.0
588.879,10702.8
589.045,10838.4
589.211,10813.7
589.377,10720.5
589.543,10871.5
589.709,10678.0
589.875,10781.7
590.041,10747.6
590.207,10767.3
590.373,10795.0
590.539,10796.7
590.705,10705.5
590.871,10916.1
591.037,10866.2
591.203,11011.3
591.369,10836.5
591.535,10942.5
591.701,10906.5
591.867,10949.0
592.033,10988.7
592.199,10865.9
592.365,11035.7
592.531,10990.6
592.697,10814.4
592.863,10924.5
593.029,11019.3
593.195,11089.7
593.361,10868.5
593.526,10922.9
593.692,10835.8
593.858,11049.3
594.024,10996.0
594.19,10939.5
594.356,10955.3
594.522,11026.5
594.687,10861.8
594.853,11105.3
595.019,11158.4
595.185,11033.0
595.351,11036.3
595.516,11037.8
595.682,11316.2
595.848,10939.0
596.014,11092.0
596.18,11273.1
596.345,11209.4
596.511,11036.2
596.677,11253.0
596.843,11351.6
597.008,11273.7
597.174,11112.3
597.34,11134.1
597.505,11368.8
597.671,11159.8
597.837,11170.8
598.002,11284.8
598.168,11441.2
598.334,11317.6
598.499,11287.9
598.665,11315.9
598.831,11183.5
598.996,11403.5
599.162,11195.4
599.328,11494.0
599.493,11412.3
599.659,11371.7
599.824,11401.1
599.99,11551.5
600.156,11496.5
600.321,11394.1
600.487,11320.4
600.652,11519.8
600.818,11622.6
600.983,11581.5
601.149,11489.3
601.314,11538.0
601.48,11550.3
601.645,11542.3
601.811,11584.8
601.976,11591.5
602.142,11563.5
602.307,11666.5
602.473,11653.3
602.638,11696.3
602.804,11670.9
602.969,11616.0
603.135,11759.0
603.3,11730.2
603.466,11926.5
603.631,11667.8
603.796,11701.8
603.962,11839.5
604.127,11911.5
604.293,11800.7
604.458,11861.1
604.623,12000.4
604.789,11852.3
604.954,11781.3
605.119,11776.5
605.285,11975.6
605.45,11803.2
605.615,12052.0
605.781,11957.6
605.946,12167.8
606.111,11995.0
606.277,12120.9
606.442,12236.7
606.607,12033.8
606.772,12226.8
606.938,12095.6
607.103,12158.8
607.268,12243.5
607.433,12237.3
607.599,12317.0
607.764,12261.2
607.929,12339.2
608.094,12478.8
608.259,12260.8
608.425,12304.8
608.59,12445.2
608.755,12461.0
608.92,12508.3
609.085,12516.3
609.25,12696.3
609.415,12516.3
609.581,12453.8
609.746,12490.3
609.911,12766.5
610.076,12809.2
610.241,12591.5
610.406,12563.5
610.571,12814.4
610.736,12892.5
610.901,12804.9
611.066,12818.0
611.231,12993.8
611.396,12984.7
611.561,13012.7
611.727,13039.4
611.892,12739.3
612.057,13114.4
612.222,13062.1
612.386,13320.2
612.551,13200.2
612.716,13225.2
612.881,13044.0
613.046,13091.1
613.211,13034.8
613.376,13197.6
613.541,13506.1
613.706,13125.3
613.871,13461.2
614.036,13575.8
614.201,13306.4
614.366,13694.2
614.531,13391.2
614.695,13663.9
614.86,13476.5
615.025,13758.2
615.19,13555.0
615.355,13844.0
615.52,13693.5
615.684,13734.0
615.849,13964.1
616.014,13869.8
616.179,13667.2
616.344,13753.7
616.508,14104.1
616.673,13988.2
616.838,13967.3
617.003,14093.5
617.168,14070.9
617.332,13854.4
617.497,14153.5
617.662,14294.8
617.826,14334.5
617.991,14274.6
618.156,14526.1
618.32,14493.2
618.485,14369.7
618.65,14587.2
618.814,14717.8
618.979,14530.4
619.144,14657.0
619.308,14931.6
619.473,14581.7
619.638,14708.7
619.802,14648.6
619.967,14774.0
620.131,14950.0
620.296,14935.6
620.461,14894.3
620.625,15053.5
620.79,15135.4
620.954,14605.5
621.119,15145.5
621.283,15200.8
621.448,14973.2
621.612,15363.8
621.777,15035.2
621.941,15351.5
622.106,14989.0
622.27,15683.8
622.435,15257.0
622.599,15083.6
622.764,15181.5
622.928,15459.8
623.093,15464.7
623.257,15673.1
623.422,15595.7
623.586,15610.3
623.75,15555.3
623.915,15771.5
624.079,15689.3
624.244,15875.0
624.408,15760.5
624.572,15785.7
624.737,15668.8
624.901,15920.5
625.065,16285.8
625.23,15818.5
625.394,15759.5
625.558,15923.4
625.723,16211.1
625.887,15937.1
626.051,16445.8
626.215,15911.0
626.38,16371.2
626.544,15968.3
626.708,15958.2
626.872,15998.8
627.037,16300.3
627.201,16084.2
627.365,16482.2
627.529,16400.3
627.693,16261.3
627.858,16490.3
628.022,16479.7
628.186,16497.7
628.35,16488.0
628.514,16831.3
628.678,16659.2
628.843,16554.4
629.007,16444.0
629.171,16629.4
629.335,17034.3
629.499,17169.9
629.663,17055.8
629.827,16811.4
629.991,16832.2
630.155,16688.8
630.319,16832.6
630.483,17191.1
630.647,16912.6
630.812,17220.1
630.976,17238.1
631.14,17344.9
631.304,17021.1
631.468,17280.1
631.632,17752.8
631.796,17657.2
631.959,17595.8
632.123,17134.3
632.287,17685.1
632.451,17670.3
632.615,17448.3
632.779,17259.7
632.943,17955.3
633.107,17565.1
633.271,17420.3
633.435,17889.8
633.599,17718.9
633.763,17775.7
633.926,17697.1
634.09,17567.8
634.254,17525.2
634.418,17280.2
634.582,17675.5
634.746,17469.1
634.909,17555.8
635.073,17637.4
635.237,17415.4
635.401,18026.7
635.564,17263.9
635.728,17518.9
635.892,17362.5
636.056,17706.5
636.219,18511.8
636.383,18160.5
636.547,18692.2
636.711,18312.7
636.874,17942.3
637.038,18248.8
637.202,17719.1
637.365,17282.1
637.529,17724.7
637.693,17929.4
637.856,17730.7
638.02,17713.8
638.184,17375.6
638.347,17822.0
638.511,17984.4
638.674,17678.5
638.838,17701.5
639.002,17463.3
639.165,17740.2
639.329,17733.4
639.492,17453.7
639.656,17560.2
639.819,17566.3
639.983,17887.2
640.146,17811.7
640.31,17800.0
640.473,17519.8
640.637,17166.2
640.8,17387.9
640.964,17387.9
641.127,17234.4
641.291,17538.8
641.454,17485.9
641.618,17388.0
641.781,17532.0
641.944,17516.3
642.108,17437.5
642.271,17623.2
642.435,17492.3
642.598,17899.7
642.761,17239.3
642.925,17451.9
643.088,17384.3
643.251,17236.7
643.415,17393.9
643.578,17470.2
643.741,17208.1
643.905,17551.8
644.068,17263.8
644.231,17570.3
644.394,17950.8
644.558,17777.4
644.721,17092.0
644.884,17233.3
645.047,17070.2
645.211,17186.1
645.374,17661.9
645.537,17366.9
645.7,17237.4
645.863,17198.2
646.027,17094.0
646.19,16774.1
646.353,17599.0
646.516,16992.3
646.679,17205.4
646.842,17618.9
647.005,17198.3
647.169,16243.0
647.332,17110.4
647.495,17171.6
647.658,17243.3
647.821,16955.1
647.984,16889.1
648.147,16772.9
648.31,16998.8
648.473,16583.8
648.636,16899.9
648.799,16909.9
648.962,16760.1
649.125,16389.3
649.288,16597.6
649.451,16439.3
649.614,16492.3
649.777,16660.7
649.94,16748.7
650.103,16732.7
650.266,16181.3
650.429,16762.2
650.592,16956.0
650.755,16412.4
650.918,16572.8
651.08,16535.9
651.243,16165.1
651.406,16567.2
651.569,16319.0
651.732,16463.8
651.895,16264.5
652.058,16160.0
652.22,16383.6
652.383,15684.3
652.546,16141.8
652.709,16343.0
652.872,16224.4
653.034,16092.8
653.197,16023.3
653.36,15619.2
653.523,15824.5
653.685,15829.6
653.848,15558.2
654.011,15775.4
654.173,15455.5
654.336,15526.0
654.499,15319.2
654.662,15456.4
654.824,15474.3
654.987,15530.7
655.149,15478.9
655.312,15484.1
655.475,15136.5
655.637,15316.8
655.8,15608.5
655.963,15249.5
656.125,15295.3
656.288,14671.5
656.45,15132.8
656.613,15380.8
656.775,15137.8
656.938,14492.7
657.1,15209.7
657.263,14940.1
657.425,14858.0
657.588,14717.3
657.75,14561.0
657.913,14670.7
658.075,14482.0
658.238,14654.3
658.4,14478.8
658.563,14901.8
658.725,14733.9
658.888,14362.0
659.05,14170.4
659.212,14167.0
659.375,14113.5
659.537,14213.2
659.7,13999.4
659.862,13950.8
660.024,14027.2
660.187,14100.0
660.349,14254.5
660.511,13709.3
660.674,13951.7
660.836,13872.0
660.998,13723.0
661.079,13632.0