File: spectra/VLFR_08-PLA_bio_Raman_8a362359.csv
nm,Intensity
528.626,1866.3
528.795,1865.3
528.963,1863.0
529.132,1863.7
529.3,1864.3
529.469,1864.0
529.637,1864.9
529.806,1864.3
529.974,1863.9
530.143,1865.1
530.311,1864.2
530.48,1863.6
530.648,1863.8
530.816,1865.3
530.985,1863.8
531.153,1864.6
531.322,1867.9
531.49,1871.8
531.658,1907.6
531.827,2428.0
531.995,4029.3
532.164,4199.9
532.332,2101.3
532.5,1870.1
532.669,1866.8
532.837,1864.4
533.006,1866.9
533.174,1864.4
533.342,1868.3
533.511,1877.8
533.679,1963.9
533.847,2106.3
534.016,2238.2
534.184,2290.4
534.352,2287.4
534.521,2294.6
534.689,2312.3
534.857,2307.3
535.025,2344.5
535.194,2346.9
535.362,2370.5
535.53,2378.6
535.699,2360.8
535.867,2362.8
536.035,2356.9
536.203,2377.0
536.372,2335.3
536.54,2349.1
536.708,2337.6
536.876,2359.6
537.044,2337.2
537.213,2362.8
537.381,2378.6
537.549,2387.0
537.717,2385.2
537.885,2377.8
538.054,2391.8
538.222,2374.0
538.39,2389.5
538.558,2403.1
538.726,2396.5
538.894,2395.3
539.063,2395.1
539.231,2397.4
539.399,2395.9
539.567,2405.4
539.735,2395.6
539.903,2410.3
540.071,2421.6
540.239,2410.0
540.408,2403.0
540.576,2410.0
540.744,2408.9
540.912,2408.9
541.08,2440.9
541.248,2450.6
541.416,2436.3
541.584,2442.2
541.752,2454.8
541.92,2455.9
542.088,2445.9
542.256,2431.9
542.424,2464.3
542.592,2484.5
542.76,2473.9
542.928,2440.5
543.096,2460.6
543.264,2464.7
543.432,2440.7
543.6,2463.6
543.768,2485.4
543.936,2474.3
544.104,2484.4
544.272,2464.1
544.44,2441.0
544.608,2481.8
544.776,2470.6
544.944,2485.7
545.112,2490.5
545.28,2508.6
545.448,2483.7
545.616,2485.9
545.784,2509.5
545.951,2513.1
546.119,2480.5
546.287,2474.8
546.455,2520.7
546.623,2522.7
546.791,2515.1
546.959,2531.2
547.127,2523.2
547.294,2526.4
547.462,2513.5
547.63,2492.1
547.798,2522.7
547.966,2531.5
548.134,2527.0
548.301,2556.7
548.469,2578.4
548.637,2561.8
548.805,2540.4
548.972,2568.9
549.14,2541.2
549.308,2549.6
549.476,2578.7
549.644,2565.5
549.811,2576.4
549.979,2578.9
550.147,2563.7
550.315,2552.2
550.482,2562.6
550.65,2564.1
550.818,2597.4
550.985,2604.1
551.153,2578.1
551.321,2593.9
551.488,2616.7
551.656,2583.2
551.824,2626.8
551.991,2603.5
552.159,2635.0
552.327,2593.2
552.494,2612.5
552.662,2606.5
552.83,2602.1
552.997,2615.5
553.165,2606.1
553.333,2630.3
553.5,2607.1
553.668,2629.1
553.835,2634.1
554.003,2623.1
554.171,2622.6
554.338,2647.4
554.506,2643.0
554.673,2645.5
554.841,2645.5
555.008,2647.7
555.176,2658.8
555.343,2642.6
555.511,2648.0
555.679,2650.7
555.846,2652.2
556.014,2639.8
556.181,2657.4
556.349,2663.5
556.516,2652.2
556.684,2655.7
556.851,2646.0
557.018,2656.2
557.186,2630.1
557.353,2634.4
557.521,2641.2
557.688,2662.8
557.856,2681.5
558.023,2674.8
558.191,2678.7
558.358,2665.3
558.525,2661.2
558.693,2640.0
558.86,2648.1
559.028,2678.3
559.195,2682.2
559.362,2654.9
559.53,2704.8
559.697,2674.8
559.864,2676.5
560.032,2680.6
560.199,2672.9
560.366,2670.3
560.534,2692.5
560.701,2714.5
560.868,2716.5
561.036,2722.2
561.203,2726.9
561.37,2690.0
561.538,2705.9
561.705,2706.0
561.872,2719.7
562.039,2717.6
562.207,2711.0
562.374,2735.0
562.541,2710.6
562.708,2714.1
562.876,2720.2
563.043,2733.7
563.21,2715.0
563.377,2715.6
563.545,2716.6
563.712,2721.2
563.879,2737.0
564.046,2724.4
564.213,2718.3
564.38,2749.4
564.548,2749.4
564.715,2736.4
564.882,2745.6
565.049,2747.2
565.216,2751.8
565.383,2737.9
565.551,2763.6
565.718,2724.7
565.885,2740.3
566.052,2779.3
566.219,2761.9
566.386,2750.5
566.553,2725.1
566.72,2743.8
566.887,2754.0
567.054,2767.1
567.221,2759.2
567.388,2766.5
567.555,2751.9
567.722,2781.8
567.889,2745.1
568.057,2759.9
568.224,2747.6
568.391,2784.9
568.558,2759.4
568.725,2783.4
568.892,2778.4
569.058,2781.5
569.225,2774.2
569.392,2798.2
569.559,2802.6
569.726,2768.9
569.893,2781.5
570.06,2787.4
570.227,2766.9
570.394,2784.6
570.561,2772.3
570.728,2775.9
570.895,2780.6
571.062,2766.2
571.229,2764.2
571.395,2775.7
571.562,2778.1
571.729,2810.8
571.896,2808.5
572.063,2816.0
572.23,2802.7
572.397,2829.5
572.563,2839.7
572.73,2845.8
572.897,2791.2
573.064,2808.2
573.231,2806.5
573.397,2815.8
573.564,2820.4
573.731,2812.9
573.898,2809.6
574.064,2796.4
574.231,2819.3
574.398,2825.7
574.565,2832.5
574.731,2807.8
574.898,2801.9
575.065,2821.6
575.232,2798.2
575.398,2799.9
575.565,2820.9
575.732,2831.7
575.898,2821.9
576.065,2829.0
576.232,2835.1
576.398,2830.9
576.565,2830.9
576.732,2849.4
576.898,2832.9
577.065,2852.2
577.232,2830.0
577.398,2821.6
577.565,2828.3
577.731,2829.5
577.898,2801.8
578.065,2815.3
578.231,2823.3
578.398,2819.1
578.564,2829.8
578.731,2798.8
578.897,2834.0
579.064,2845.8
579.23,2829.1
579.397,2838.2
579.563,2849.4
579.73,2837.1
579.896,2838.5
580.063,2852.9
580.229,2858.2
580.396,2826.4
580.562,2837.5
580.729,2844.6
580.895,2845.9
581.062,2838.1
581.228,2860.5
581.395,2852.5
581.561,2834.0
581.728,2844.3
581.894,2874.8
582.06,2857.3
582.227,2840.9
582.393,2860.3
582.56,2858.2
582.726,2851.5
582.892,2829.4
583.059,2823.0
583.225,2894.7
583.391,2847.8
583.558,2834.7
583.724,2824.7
583.89,2860.4
584.057,2871.1
584.223,2835.1
584.389,2856.8
584.556,2870.2
584.722,2842.6
584.888,2853.6
585.054,2843.7
585.221,2845.5
585.387,2796.0
585.553,2820.3
585.719,2805.4
585.886,2802.0
586.052,2855.6
586.218,2805.5
586.384,2839.3
586.55,2845.1
586.717,2847.7
586.883,2813.0
587.049,2839.4
587.215,2845.8
587.381,2834.8
587.548,2863.3
587.714,2831.8
587.88,2853.1
588.046,2834.8
588.212,2812.0
588.378,2829.9
588.544,2839.1
588.71,2777.8
588.876,2782.0
589.043,2783.3
589.209,2777.7
589.375,2792.7
589.541,2772.0
589.707,2789.9
589.873,2791.8
590.039,2802.0
590.205,2813.9
590.371,2814.0
590.537,2840.4
590.703,2813.6
590.869,2799.7
591.035,2830.5
591.201,2820.7
591.367,2813.1
591.533,2815.2
591.699,2812.6
591.865,2801.6
592.031,2813.7
592.197,2827.4
592.363,2827.0
592.529,2818.2
592.694,2804.9
592.86,2790.0
593.026,2805.2
593.192,2825.0
593.358,2827.6
593.524,2805.1
593.69,2794.9
593.856,2825.0
594.021,2813.9
594.187,2816.5
594.353,2799.6
594.519,2775.1
594.685,2795.3
594.851,2813.7
595.016,2804.1
595.182,2795.1
595.348,2795.5
595.514,2850.9
595.68,2817.2
595.845,2828.2
596.011,2823.5
596.177,2847.8
596.342,2834.5
596.508,2822.8
596.674,2820.1
596.84,2814.5
597.005,2831.9
597.171,2834.4
597.337,2828.9
597.502,2814.7
597.668,2813.3
597.834,2817.7
597.999,2817.7
598.165,2836.8
598.331,2791.4
598.496,2789.2
598.662,2824.7
598.828,2823.2
598.993,2807.9
599.159,2802.1
599.324,2845.3
599.49,2841.4
599.656,2822.8
599.821,2810.5
599.987,2823.9
600.152,2824.4
600.318,2816.1
600.483,2841.1
600.649,2797.8
600.814,2818.9
600.98,2824.6
601.145,2834.0
601.311,2829.0
601.476,2808.4
601.642,2825.0
601.807,2819.4
601.973,2794.1
602.138,2798.3
602.304,2830.3
602.469,2785.8
602.635,2787.7
602.8,2827.5
602.965,2806.4
603.131,2845.0
603.296,2841.0
603.462,2799.8
603.627,2817.9
603.792,2827.6
603.958,2832.9
604.123,2830.1
604.288,2815.2
604.454,2826.6
604.619,2818.1
604.784,2817.5
604.95,2811.7
605.115,2824.6
605.28,2805.8
605.446,2833.1
605.611,2800.9
605.776,2782.2
605.941,2806.5
606.107,2834.4
606.272,2807.5
606.437,2815.8
606.602,2789.9
606.767,2803.0
606.933,2832.3
607.098,2822.2
607.263,2851.7
607.428,2801.8
607.593,2803.8
607.759,2824.6
607.924,2804.8
608.089,2809.4
608.254,2824.0
608.419,2806.6
608.584,2802.7
608.749,2808.2
608.915,2768.1
609.08,2800.5
609.245,2791.9
609.41,2798.5
609.575,2822.7
609.74,2808.6
609.905,2802.6
610.07,2805.3
610.235,2794.5
610.4,2793.8
610.565,2831.9
610.73,2845.5
610.895,2801.0
611.06,2797.7
611.225,2801.4
611.39,2800.6
611.555,2793.2
611.72,2815.6
611.885,2792.0
612.05,2783.5
612.215,2789.0
612.38,2794.0
612.545,2819.6
612.71,2800.3
612.875,2796.5
613.04,2799.3
613.204,2804.0
613.369,2825.2
613.534,2792.2
613.699,2777.4
613.864,2764.6
614.029,2777.3
614.194,2756.5
614.358,2799.3
614.523,2807.8
614.688,2816.0
614.853,2791.6
615.018,2778.5
615.182,2779.8
615.347,2793.3
615.512,2783.3
615.677,2777.1
615.841,2793.0
616.006,2782.7
616.171,2761.2
616.336,2738.8
616.5,2776.5
616.665,2763.0
616.83,2784.3
616.994,2742.8
617.159,2781.1
617.324,2745.9
617.489,2787.4
617.653,2784.6
617.818,2806.0
617.982,2752.6
618.147,2748.5
618.312,2768.2
618.476,2783.1
618.641,2800.5
618.805,2775.9
618.97,2759.6
619.135,2747.9
619.299,2770.0
619.464,2748.2
619.628,2787.7
619.793,2785.2
619.957,2776.4
620.122,2758.4
620.286,2791.9
620.451,2743.6
620.615,2778.6
620.78,2772.1
620.944,2749.6
621.109,2756.6
621.273,2768.5
621.438,2774.8
621.602,2754.7
621.767,2754.6
621.931,2757.3
622.095,2786.2
622.26,2758.3
622.424,2754.2
622.589,2742.8
622.753,2752.8
622.917,2737.2
623.082,2759.0
623.246,2748.0
623.41,2756.3
623.575,2753.7
623.739,2774.4
623.903,2743.2
624.068,2746.9
624.232,2729.2
624.396,2731.3
624.561,2733.1
624.725,2711.7
624.889,2729.7
625.053,2746.7
625.218,2710.8
625.382,2698.1
625.546,2731.9
625.71,2714.3
625.875,2720.8
626.039,2720.9
626.203,2729.3
626.367,2725.0
626.531,2744.7
626.695,2697.7
626.86,2707.0
627.024,2705.3
627.188,2713.0
627.352,2702.0
627.516,2706.4
627.68,2689.4
627.844,2690.7
628.008,2702.8
628.172,2725.4
628.337,2708.8
628.501,2691.8
628.665,2683.7
628.829,2708.9
628.993,2697.5
629.157,2722.8
629.321,2709.4
629.485,2715.6
629.649,2695.4
629.813,2687.2
629.977,2662.0
630.141,2652.8
630.305,2682.1
630.469,2685.9
630.633,2695.2
630.797,2711.1
630.96,2693.7
631.124,2669.2
631.288,2681.4
631.452,2674.4
631.616,2683.2
631.78,2637.9
631.944,2679.9
632.108,2677.8
632.272,2682.4
632.435,2677.3
632.599,2691.4
632.763,2659.2
632.927,2677.0
633.091,2689.0
633.254,2673.2
633.418,2686.8
633.582,2674.3
633.746,2677.8
633.91,2678.0
634.073,2653.1
634.237,2677.2
634.401,2646.2
634.564,2660.3
634.728,2669.5
634.892,2639.4
635.056,2648.6
635.219,2649.0
635.383,2642.8
635.547,2634.6
635.71,2643.8
635.874,2647.1
636.038,2655.0
636.201,2624.5
636.365,2650.5
636.528,2653.4
636.692,2649.7
636.856,2623.5
637.019,2661.6
637.183,2646.5
637.346,2659.0
637.51,2633.9
637.673,2622.8
637.837,2623.8
638.0,2621.6
638.164,2625.8
638.327,2644.5
638.491,2624.0
638.654,2624.8
638.818,2630.9
638.981,2628.8
639.145,2592.8
639.308,2604.9
639.472,2621.1
639.635,2607.2
639.799,2586.9
639.962,2599.9
640.125,2587.2
640.289,2600.4
640.452,2581.0
640.616,2600.2
640.779,2582.5
640.942,2567.5
641.106,2591.8
641.269,2590.1
641.432,2582.9
641.596,2595.0
641.759,2590.2
641.922,2582.3
642.085,2564.3
642.249,2574.3
642.412,2550.1
642.575,2586.7
642.738,2617.4
642.902,2561.0
643.065,2557.7
643.228,2550.7
643.391,2570.7
643.555,2585.9
643.718,2554.9
643.881,2560.2
644.044,2594.0
644.207,2555.2
644.37,2571.6
644.534,2561.2
644.697,2564.7
644.86,2529.1
645.023,2536.6
645.186,2581.8
645.349,2549.5
645.512,2524.3
645.675,2534.1
645.838,2577.3
646.001,2536.5
646.164,2547.5
646.327,2528.8
646.49,2515.9
646.653,2516.9
646.816,2517.2
646.979,2514.9
647.142,2518.3
647.305,2524.3
647.468,2510.1
647.631,2528.2
647.794,2499.7
647.957,2523.7
648.12,2532.4
648.283,2509.7
648.446,2505.6
648.609,2528.4
648.772,2523.5
648.935,2514.1
649.098,2515.1
649.26,2482.0
649.423,2453.3
649.586,2478.9
649.749,2502.2
649.912,2503.6
650.075,2492.8
650.237,2475.3
650.4,2471.2
650.563,2494.1
650.726,2504.9
650.888,2488.5
651.051,2484.4
651.214,2481.2
651.377,2482.9
651.539,2468.6
651.702,2451.9
651.865,2461.4
652.027,2458.5
652.19,2468.3
652.353,2474.2
652.515,2457.1
652.678,2464.5
652.841,2440.1
653.003,2464.4
653.166,2437.0
653.329,2444.2
653.491,2426.4
653.654,2422.3
653.816,2439.1
653.979,2429.9
654.142,2427.1
654.304,2413.2
654.467,2424.6
654.629,2413.5
654.792,2401.2
654.954,2404.7
655.117,2377.6
655.279,2422.5
655.442,2381.2
655.604,2383.0
655.767,2376.3
655.929,2378.4
656.091,2331.2
656.254,2321.6
656.416,2321.4
656.579,2350.5
656.741,2368.3
656.904,2359.5
657.066,2363.0
657.228,2354.5
657.391,2341.7
657.553,2348.1
657.715,2372.4
657.878,2365.9
658.04,2359.0
658.202,2366.2
658.365,2349.1
658.527,2334.4
658.689,2340.9
658.851,2317.2
659.014,2329.6
659.176,2321.9
659.338,2325.6
659.5,2319.0
659.663,2347.2
659.825,2327.0
659.987,2321.3
660.149,2301.7
660.311,2318.1
660.474,2344.7
660.636,2328.6
660.798,2321.1
660.96,2326.5
661.041,2312.4