File: spectra/VLFR_02-HDPE_bio_Raman_524f6fc1.csv
nm,Intensity
528.65,1844.25
528.819,1845.95
528.987,1844.6
529.155,1845.7
529.324,1845.05
529.492,1844.4
529.66,1844.85
529.829,1845.9
529.997,1845.05
530.165,1845.8
530.334,1845.55
530.502,1847.75
530.67,1845.85
530.839,1846.45
531.007,1846.6
531.175,1848.1
531.344,1849.35
531.512,1856.9
531.68,1892.4
531.848,2601.15
532.017,5549.7
532.185,4672.1
532.353,2134.0
532.521,1851.8
532.69,1848.3
532.858,1846.8
533.026,1847.4
533.194,1846.85
533.363,1847.75
533.531,1868.5
533.699,1983.75
533.867,2212.7
534.036,2354.0
534.204,2402.15
534.372,2380.4
534.54,2380.8
534.708,2395.35
534.877,2417.35
535.045,2391.35
535.213,2342.7
535.381,2293.65
535.549,2231.1
535.717,2196.35
535.886,2168.25
536.054,2134.8
536.222,2129.05
536.39,2127.45
536.558,2121.95
536.726,2124.4
536.894,2124.7
537.062,2104.7
537.231,2108.35
537.399,2121.8
537.567,2117.3
537.735,2102.15
537.903,2110.65
538.071,2106.75
538.239,2100.25
538.407,2091.05
538.575,2089.2
538.743,2088.5
538.911,2074.95
539.079,2070.9
539.247,2076.35
539.415,2070.75
539.583,2062.75
539.751,2066.4
539.919,2060.35
540.087,2059.7
540.255,2054.5
540.423,2053.3
540.591,2054.15
540.759,2057.2
540.927,2059.1
541.095,2053.75
541.263,2056.75
541.431,2061.35
541.599,2054.6
541.767,2062.15
541.935,2065.8
542.103,2065.35
542.271,2052.2
542.439,2065.85
542.607,2066.75
542.775,2056.3
542.943,2062.35
543.111,2072.2
543.279,2065.25
543.446,2058.25
543.614,2065.25
543.782,2066.65
543.95,2057.45
544.118,2065.45
544.286,2071.95
544.454,2061.65
544.622,2059.3
544.789,2056.95
544.957,2067.5
545.125,2064.0
545.293,2067.25
545.461,2069.9
545.629,2062.7
545.796,2076.95
545.964,2077.7
546.132,2070.0
546.3,2070.7
546.468,2071.2
546.635,2073.95
546.803,2079.3
546.971,2075.3
547.139,2069.6
547.306,2072.85
547.474,2079.95
547.642,2079.45
547.81,2088.55
547.977,2076.95
548.145,2079.15
548.313,2082.2
548.481,2083.3
548.648,2080.4
548.816,2077.2
548.984,2080.75
549.151,2077.0
549.319,2083.1
549.487,2082.05
549.655,2080.1
549.822,2073.2
549.99,2076.65
550.158,2076.8
550.325,2084.9
550.493,2085.3
550.66,2086.4
550.828,2099.35
550.996,2088.3
551.163,2087.45
551.331,2095.2
551.499,2101.85
551.666,2096.3
551.834,2092.3
552.001,2092.85
552.169,2091.6
552.337,2099.25
552.504,2083.5
552.672,2104.75
552.839,2102.35
553.007,2108.4
553.174,2116.9
553.342,2115.85
553.509,2130.2
553.677,2123.45
553.844,2124.85
554.012,2122.0
554.179,2134.75
554.347,2134.75
554.514,2129.8
554.682,2137.05
554.849,2134.8
555.017,2139.0
555.184,2143.85
555.352,2142.4
555.519,2141.7
555.687,2152.9
555.854,2154.0
556.022,2158.5
556.189,2165.5
556.357,2148.15
556.524,2164.05
556.691,2162.0
556.859,2181.8
557.026,2171.3
557.194,2181.85
557.361,2181.35
557.528,2189.35
557.696,2199.95
557.863,2199.15
558.031,2206.0
558.198,2226.35
558.365,2226.4
558.533,2224.65
558.7,2224.2
558.867,2208.65
559.035,2197.65
559.202,2193.5
559.369,2195.15
559.537,2201.8
559.704,2191.0
559.871,2192.15
560.038,2202.45
560.206,2188.55
560.373,2185.35
560.54,2186.65
560.708,2190.25
560.875,2193.0
561.042,2204.95
561.209,2193.1
561.377,2200.65
561.544,2201.45
561.711,2205.05
561.878,2219.15
562.045,2216.5
562.213,2220.25
562.38,2224.2
562.547,2237.15
562.714,2244.4
562.881,2259.3
563.049,2251.35
563.216,2273.8
563.383,2295.45
563.55,2350.75
563.717,2589.85
563.884,3251.65
564.052,3575.8
564.219,2963.0
564.386,2538.85
564.553,2453.3
564.72,2468.05
564.887,2424.9
565.054,2390.75
565.221,2367.15
565.388,2365.75
565.556,2388.3
565.723,2511.3
565.89,2862.3
566.057,3645.8
566.224,3956.25
566.391,3079.9
566.558,2467.25
566.725,2336.75
566.892,2318.5
567.059,2313.7
567.226,2357.85
567.393,2461.2
567.56,2462.5
567.727,2318.8
567.894,2275.15
568.061,2269.75
568.228,2259.5
568.395,2263.4
568.562,2264.9
568.729,2268.2
568.896,2258.4
569.063,2261.7
569.23,2275.2
569.396,2272.75
569.563,2276.9
569.73,2279.55
569.897,2272.75
570.064,2284.2
570.231,2297.5
570.398,2342.85
570.565,2354.6
570.732,2369.75
570.898,2403.4
571.065,2450.05
571.232,2802.2
571.399,3863.45
571.566,4643.55
571.733,3573.3
571.9,2696.55
572.066,2534.75
572.233,2428.85
572.4,2391.6
572.567,2336.05
572.734,2312.1
572.9,2294.1
573.067,2285.5
573.234,2295.35
573.401,2302.55
573.567,2301.1
573.734,2346.4
573.901,2414.55
574.068,2382.9
574.234,2324.55
574.401,2274.65
574.568,2280.8
574.734,2283.0
574.901,2297.45
575.068,2339.0
575.235,2520.5
575.401,3051.6
575.568,3419.9
575.735,3125.85
575.901,2931.1
576.068,3239.3
576.235,3632.1
576.401,3649.2
576.568,3296.95
576.734,3181.1
576.901,3163.8
577.068,3130.85
577.234,2975.35
577.401,2726.9
577.567,2536.5
577.734,2453.1
577.901,2391.25
578.067,2346.45
578.234,2332.0
578.4,2315.35
578.567,2317.0
578.733,2310.95
578.9,2303.25
579.066,2306.2
579.233,2300.75
579.399,2298.45
579.566,2306.85
579.732,2311.45
579.899,2303.65
580.065,2319.05
580.232,2304.25
580.398,2296.8
580.565,2315.95
580.731,2303.25
580.898,2300.85
581.064,2311.0
581.231,2309.1
581.397,2299.3
581.563,2305.85
581.73,2296.85
581.896,2307.6
582.063,2296.6
582.229,2290.45
582.395,2297.6
582.562,2302.2
582.728,2286.5
582.895,2282.8
583.061,2295.45
583.227,2291.8
583.394,2297.2
583.56,2304.45
583.726,2292.7
583.893,2297.1
584.059,2297.25
584.225,2294.05
584.391,2302.9
584.558,2298.2
584.724,2294.0
584.89,2299.3
585.057,2296.6
585.223,2310.9
585.389,2315.3
585.555,2300.4
585.722,2299.25
585.888,2295.35
586.054,2301.1
586.22,2323.0
586.386,2315.4
586.553,2317.35
586.719,2315.95
586.885,2319.6
587.051,2330.2
587.217,2326.2
587.384,2326.0
587.55,2340.3
587.716,2331.4
587.882,2344.4
588.048,2348.8
588.214,2332.9
588.38,2350.6
588.546,2348.05
588.713,2348.2
588.879,2367.05
589.045,2356.2
589.211,2355.5
589.377,2364.95
589.543,2341.75
589.709,2349.05
589.875,2378.45
590.041,2368.6
590.207,2364.05
590.373,2381.05
590.539,2359.65
590.705,2376.85
590.871,2397.75
591.037,2380.4
591.203,2386.85
591.369,2392.9
591.535,2393.45
591.701,2397.65
591.867,2401.2
592.033,2397.6
592.199,2402.25
592.365,2417.2
592.531,2408.85
592.697,2391.2
592.863,2415.9
593.029,2429.9
593.195,2418.0
593.361,2416.4
593.526,2431.1
593.692,2421.95
593.858,2426.25
594.024,2406.65
594.19,2408.4
594.356,2425.85
594.522,2415.85
594.687,2424.6
594.853,2422.15
595.019,2427.5
595.185,2407.5
595.351,2455.85
595.516,2425.25
595.682,2449.65
595.848,2440.7
596.014,2452.95
596.18,2440.25
596.345,2436.0
596.511,2446.25
596.677,2438.8
596.843,2455.4
597.008,2450.2
597.174,2478.8
597.34,2489.1
597.505,2453.75
597.671,2476.1
597.837,2486.85
598.002,2471.55
598.168,2492.05
598.334,2466.35
598.499,2497.0
598.665,2490.9
598.831,2500.8
598.996,2518.95
599.162,2534.25
599.328,2523.65
599.493,2514.25
599.659,2543.6
599.824,2516.95
599.99,2532.3
600.156,2516.9
600.321,2509.65
600.487,2513.45
600.652,2517.8
600.818,2516.5
600.983,2516.5
601.149,2546.45
601.314,2530.0
601.48,2513.95
601.645,2534.05
601.811,2555.1
601.976,2578.9
602.142,2559.75
602.307,2562.2
602.473,2519.85
602.638,2545.6
602.804,2518.35
602.969,2505.0
603.135,2491.55
603.3,2530.25
603.466,2502.5
603.631,2510.05
603.796,2494.4
603.962,2499.25
604.127,2509.9
604.293,2489.7
604.458,2490.35
604.623,2482.95
604.789,2479.95
604.954,2482.45
605.119,2468.85
605.285,2463.6
605.45,2475.95
605.615,2446.25
605.781,2448.4
605.946,2446.2
606.111,2446.15
606.277,2449.85
606.442,2436.35
606.607,2422.9
606.772,2437.95
606.938,2435.8
607.103,2433.45
607.268,2416.65
607.433,2420.65
607.599,2400.25
607.764,2407.15
607.929,2417.0
608.094,2412.25
608.259,2414.25
608.425,2408.35
608.59,2406.9
608.755,2405.3
608.92,2405.55
609.085,2406.55
609.25,2383.4
609.415,2393.85
609.581,2415.5
609.746,2378.65
609.911,2396.55
610.076,2410.25
610.241,2393.85
610.406,2410.0
610.571,2413.25
610.736,2413.05
610.901,2433.4
611.066,2436.55
611.231,2426.6
611.396,2436.7
611.561,2396.35
611.727,2382.25
611.892,2367.55
612.057,2388.6
612.222,2365.7
612.386,2359.65
612.551,2370.9
612.716,2370.65
612.881,2382.9
613.046,2365.95
613.211,2366.95
613.376,2361.4
613.541,2365.15
613.706,2365.4
613.871,2370.8
614.036,2358.4
614.201,2359.9
614.366,2373.65
614.531,2367.2
614.695,2381.5
614.86,2363.6
615.025,2367.05
615.19,2368.4
615.355,2381.5
615.52,2380.4
615.684,2378.65
615.849,2387.75
616.014,2387.7
616.179,2385.35
616.344,2389.45
616.508,2400.4
616.673,2426.8
616.838,2470.95
617.003,2466.25
617.168,2490.5
617.332,2478.7
617.497,2477.35
617.662,2486.75
617.826,2498.85
617.991,2516.65
618.156,2501.75
618.32,2511.3
618.485,2465.55
618.65,2464.7
618.814,2492.6
618.979,2498.55
619.144,2515.65
619.308,2525.15
619.473,2559.65
619.638,2577.5
619.802,2550.75
619.967,2554.9
620.131,2535.15
620.296,2538.1
620.461,2541.8
620.625,2549.25
620.79,2573.5
620.954,2631.0
621.119,2677.2
621.283,2741.35
621.448,2784.2
621.612,2869.65
621.777,3003.4
621.941,3161.0
622.106,3275.75
622.27,3286.9
622.435,3230.95
622.599,3129.6
622.764,2912.85
622.928,2765.9
623.093,2691.3
623.257,2629.2
623.422,2595.75
623.586,2550.7
623.75,2559.55
623.915,2556.35
624.079,2548.85
624.244,2545.8
624.408,2550.1
624.572,2535.95
624.737,2545.2
624.901,2560.65
625.065,2580.4
625.23,2595.55
625.394,2643.1
625.558,2676.1
625.723,2699.05
625.887,2812.85
626.051,2946.15
626.215,3126.2
626.38,3584.7
626.544,4526.6
626.708,6277.55
626.872,9056.05
627.037,12261.0
627.201,14587.8
627.365,13605.7
627.529,11361.5
627.693,10284.7
627.858,9315.15
628.022,8949.55
628.186,10200.6
628.35,12811.9
628.514,14625.3
628.678,13054.8
628.843,9916.35
629.007,8627.85
629.171,8053.75
629.335,7587.85
629.499,7141.95
629.663,6584.45
629.827,6119.5
629.991,5705.35
630.155,5566.35
630.319,5694.5
630.483,5411.0
630.647,4991.15
630.812,4542.35
630.976,3950.5
631.14,3431.8
631.304,3073.4
631.468,2891.9
631.632,2815.85
631.796,2721.35
631.959,2643.55
632.123,2636.8
632.287,2589.4
632.451,2575.45
632.615,2538.2
632.779,2496.5
632.943,2509.2
633.107,2518.25
633.271,2487.6
633.435,2456.55
633.599,2462.65
633.763,2439.6
633.926,2441.65
634.09,2431.9
634.254,2398.65
634.418,2383.2
634.582,2394.65
634.746,2377.95
634.909,2369.7
635.073,2360.2
635.237,2359.25
635.401,2353.05
635.564,2339.25
635.728,2340.75
635.892,2345.35
636.056,2334.55
636.219,2335.55
636.383,2336.45
636.547,2339.15
636.711,2333.6
636.874,2314.25
637.038,2301.6
637.202,2305.8
637.365,2295.2
637.529,2278.2
637.693,2275.3
637.856,2263.85
638.02,2256.45
638.184,2278.2
638.347,2274.25
638.511,2259.1
638.674,2272.75
638.838,2261.25
639.002,2255.55
639.165,2264.5
639.329,2254.2
639.492,2259.25
639.656,2249.3
639.819,2255.0
639.983,2249.3
640.146,2249.6
640.31,2243.75
640.473,2246.4
640.637,2252.75
640.8,2254.35
640.964,2259.25
641.127,2246.65
641.291,2231.35
641.454,2243.25
641.618,2260.45
641.781,2261.85
641.944,2251.95
642.108,2239.6
642.271,2257.7
642.435,2260.35
642.598,2250.35
642.761,2242.5
642.925,2256.0
643.088,2231.75
643.251,2238.05
643.415,2236.75
643.578,2255.15
643.741,2236.25
643.905,2250.8
644.068,2234.2
644.231,2246.05
644.394,2243.05
644.558,2238.05
644.721,2234.8
644.884,2252.1
645.047,2228.9
645.211,2232.95
645.374,2241.4
645.537,2246.55
645.7,2232.95
645.863,2238.2
646.027,2230.4
646.19,2227.4
646.353,2219.2
646.516,2235.1
646.679,2247.2
646.842,2232.85
647.005,2225.0
647.169,2232.95
647.332,2234.75
647.495,2222.1
647.658,2221.55
647.821,2225.15
647.984,2222.95
648.147,2228.8
648.31,2230.15
648.473,2219.0
648.636,2206.65
648.799,2217.3
648.962,2207.5
649.125,2224.0
649.288,2211.55
649.451,2205.35
649.614,2210.85
649.777,2206.95
649.94,2221.85
650.103,2196.6
650.266,2216.3
650.429,2211.8
650.592,2220.85
650.755,2227.35
650.918,2193.7
651.08,2212.95
651.243,2215.5
651.406,2200.4
651.569,2197.25
651.732,2189.3
651.895,2203.2
652.058,2202.6
652.22,2216.9
652.383,2199.5
652.546,2198.25
652.709,2185.1
652.872,2193.85
653.034,2187.75
653.197,2192.35
653.36,2191.45
653.523,2182.1
653.685,2182.35
653.848,2188.4
654.011,2198.65
654.173,2182.25
654.336,2179.85
654.499,2181.85
654.662,2179.5
654.824,2184.25
654.987,2176.15
655.149,2180.45
655.312,2182.25
655.475,2175.5
655.637,2177.05
655.8,2170.95
655.963,2191.2
656.125,2166.05
656.288,2161.85
656.45,2157.25
656.613,2160.55
656.775,2171.25
656.938,2156.25
657.1,2168.2
657.263,2164.25
657.425,2164.7
657.588,2150.35
657.75,2158.55
657.913,2143.85
658.075,2146.6
658.238,2137.9
658.4,2142.0
658.563,2150.75
658.725,2139.7
658.888,2154.45
659.05,2136.6
659.212,2143.75
659.375,2141.65
659.537,2130.2
659.7,2133.9
659.862,2136.95
660.024,2155.75
660.187,2143.5
660.349,2143.95
660.511,2141.15
660.674,2130.25
660.836,2123.5
660.998,2122.6
661.079,2119.4