File: spectra/VLFR_02-HDPE_bio_Raman_a3d612d3.csv
nm,Intensity
526.547,832.1
526.684,832.75
526.821,833.65
526.958,832.7
527.095,831.55
527.232,831.8
527.368,831.25
527.505,831.8
527.642,833.15
527.779,832.4
527.916,833.35
528.052,832.15
528.189,833.5
528.326,832.15
528.463,831.75
528.599,832.5
528.736,833.15
528.873,832.2
529.009,831.95
529.146,831.75
529.283,833.05
529.419,833.05
529.556,831.6
529.693,832.5
529.829,832.3
529.966,833.75
530.103,833.65
530.239,833.65
530.376,832.55
530.512,831.15
530.649,832.8
530.785,831.7
530.922,832.35
531.059,832.55
531.195,833.2
531.332,832.6
531.468,832.95
531.605,832.85
531.741,831.85
531.878,831.75
532.014,842.8
532.151,884.4
532.287,877.25
532.423,838.85
532.56,832.5
532.696,832.9
532.833,832.45
532.969,832.7
533.106,832.2
533.242,831.55
533.378,832.75
533.515,831.85
533.651,832.6
533.787,838.25
533.924,854.5
534.06,870.25
534.196,876.2
534.333,873.9
534.469,872.15
534.605,868.95
534.742,868.4
534.878,867.2
535.014,866.5
535.15,864.75
535.287,861.3
535.423,861.85
535.559,859.75
535.695,859.2
535.832,855.0
535.968,856.9
536.104,854.85
536.24,853.9
536.376,853.5
536.513,854.25
536.649,853.05
536.785,852.7
536.921,853.65
537.057,852.2
537.193,853.3
537.329,853.3
537.465,851.8
537.602,852.65
537.738,852.15
537.874,851.75
538.01,852.0
538.146,852.0
538.282,852.3
538.418,852.6
538.554,850.8
538.69,850.1
538.826,850.4
538.962,848.75
539.098,848.85
539.234,847.55
539.37,847.95
539.506,848.05
539.642,847.25
539.778,848.35
539.914,847.8
540.05,847.35
540.186,846.3
540.322,847.15
540.458,847.25
540.594,845.95
540.729,845.6
540.865,846.5
541.001,846.45
541.137,846.8
541.273,845.65
541.409,845.4
541.545,846.6
541.68,848.0
541.816,844.85
541.952,847.05
542.088,846.1
542.224,845.95
542.36,845.55
542.495,845.8
542.631,845.75
542.767,846.1
542.903,845.9
543.038,846.0
543.174,845.35
543.31,845.1
543.446,845.6
543.581,845.15
543.717,845.7
543.853,846.55
543.988,845.1
544.124,846.5
544.26,845.8
544.395,845.2
544.531,846.1
544.667,844.9
544.802,845.05
544.938,845.0
545.074,845.85
545.209,845.4
545.345,844.85
545.481,846.7
545.616,846.7
545.752,846.2
545.887,844.55
546.023,843.7
546.158,844.1
546.294,844.65
546.43,844.6
546.565,844.5
546.701,844.95
546.836,844.7
546.972,844.9
547.107,844.5
547.243,845.0
547.378,844.8
547.514,844.8
547.649,845.4
547.785,844.55
547.92,844.75
548.056,846.5
548.191,844.0
548.326,844.6
548.462,844.0
548.597,844.25
548.733,844.9
548.868,843.9
549.004,843.55
549.139,844.35
549.274,844.25
549.41,843.9
549.545,844.7
549.68,844.8
549.816,845.25
549.951,845.2
550.086,845.1
550.222,844.35
550.357,844.95
550.492,845.75
550.628,845.75
550.763,844.65
550.898,844.75
551.034,845.35
551.169,844.25
551.304,844.35
551.439,845.5
551.575,844.75
551.71,844.35
551.845,843.25
551.98,845.1
552.116,845.55
552.251,845.2
552.386,845.15
552.521,844.25
552.656,844.5
552.792,845.35
552.927,845.2
553.062,844.85
553.197,845.2
553.332,846.2
553.467,847.1
553.603,846.45
553.738,846.9
553.873,846.85
554.008,846.55
554.143,846.1
554.278,846.4
554.413,845.6
554.548,845.45
554.683,848.05
554.819,845.1
554.954,844.95
555.089,847.15
555.224,847.2
555.359,847.35
555.494,845.2
555.629,845.4
555.764,848.05
555.899,845.0
556.034,848.45
556.169,846.65
556.304,846.1
556.439,847.45
556.574,846.95
556.709,847.65
556.844,847.4
556.979,847.8
557.114,849.5
557.249,849.05
557.384,849.95
557.519,850.7
557.653,849.4
557.788,850.35
557.923,850.35
558.058,849.55
558.193,851.35
558.328,851.7
558.463,851.15
558.598,853.3
558.733,850.3
558.867,851.8
559.002,851.3
559.137,851.2
559.272,848.7
559.407,851.65
559.542,850.55
559.677,851.5
559.811,850.55
559.946,851.95
560.081,850.1
560.216,849.0
560.351,849.05
560.485,851.05
560.62,851.25
560.755,850.45
560.89,850.3
561.024,849.7
561.159,850.8
561.294,849.5
561.429,850.85
561.563,851.65
561.698,851.95
561.833,851.65
561.967,852.05
562.102,852.5
562.237,854.6
562.371,853.4
562.506,853.75
562.641,854.95
562.775,855.0
562.91,854.8
563.045,855.4
563.179,855.5
563.314,854.45
563.449,857.8
563.583,858.75
563.718,859.1
563.853,873.85
563.987,912.05
564.122,928.8
564.256,890.25
564.391,868.9
564.525,867.25
564.66,865.85
564.795,867.8
564.929,866.6
565.064,862.95
565.198,862.7
565.333,861.45
565.467,861.9
565.602,863.45
565.736,867.45
565.871,874.7
566.005,898.95
566.14,967.15
566.274,991.1
566.409,916.75
566.543,873.95
566.678,863.95
566.812,861.0
566.947,858.1
567.081,858.4
567.216,858.85
567.35,858.85
567.484,861.85
567.619,859.7
567.753,856.9
567.888,856.15
568.022,855.0
568.156,858.2
568.291,857.55
568.425,856.0
568.56,856.65
568.694,856.8
568.828,854.35
568.963,858.35
569.097,856.75
569.231,856.65
569.366,857.8
569.5,857.2
569.634,856.7
569.769,856.75
569.903,858.75
570.037,857.7
570.172,859.0
570.306,859.75
570.44,859.7
570.575,859.65
570.709,864.5
570.843,861.85
570.977,863.2
571.112,863.8
571.246,867.0
571.38,884.2
571.514,952.15
571.649,979.1
571.783,904.45
571.917,878.05
572.051,868.85
572.185,868.1
572.32,864.55
572.454,863.65
572.588,862.3
572.722,861.35
572.856,860.85
572.991,860.05
573.125,859.8
573.259,857.95
573.393,859.7
573.527,858.1
573.661,860.55
573.795,860.6
573.93,865.65
574.064,867.75
574.198,861.75
574.332,859.2
574.466,860.7
574.6,858.6
574.734,858.4
574.868,859.55
575.002,860.55
575.136,861.75
575.271,866.4
575.405,887.75
575.539,941.45
575.673,939.05
575.807,897.75
575.941,888.7
576.075,890.85
576.209,903.2
576.343,909.35
576.477,905.15
576.611,895.15
576.745,891.8
576.879,890.75
577.013,892.15
577.147,889.05
577.281,883.4
577.415,878.0
577.549,872.7
577.683,869.25
577.817,865.2
577.951,864.35
578.085,865.35
578.218,864.45
578.352,862.8
578.486,863.45
578.62,864.2
578.754,863.25
578.888,864.55
579.022,864.1
579.156,862.85
579.29,863.7
579.424,864.1
579.557,864.6
579.691,865.75
579.825,864.8
579.959,864.75
580.093,865.45
580.227,865.05
580.361,864.4
580.494,866.8
580.628,866.2
580.762,865.85
580.896,864.0
581.03,865.2
581.164,865.55
581.297,865.95
581.431,866.85
581.565,867.1
581.699,868.25
581.832,869.5
581.966,869.55
582.1,868.1
582.234,869.05
582.368,870.3
582.501,870.6
582.635,870.2
582.769,870.65
582.903,870.25
583.036,871.55
583.17,872.05
583.304,873.45
583.437,871.4
583.571,871.75
583.705,875.45
583.838,873.15
583.972,873.7
584.106,875.35
584.24,872.45
584.373,873.55
584.507,876.5
584.641,876.85
584.774,875.35
584.908,873.95
585.041,876.4
585.175,877.3
585.309,877.8
585.442,877.5
585.576,879.35
585.71,880.0
585.843,881.25
585.977,879.35
586.11,881.45
586.244,883.55
586.378,883.65
586.511,881.4
586.645,882.6
586.778,884.2
586.912,884.8
587.045,884.45
587.179,885.75
587.313,887.95
587.446,885.7
587.58,886.55
587.713,887.3
587.847,888.3
587.98,887.35
588.114,887.0
588.247,890.6
588.381,889.2
588.514,890.15
588.648,889.1
588.781,890.85
588.915,890.7
589.048,895.55
589.182,892.6
589.315,892.6
589.449,891.35
589.582,894.15
589.715,894.95
589.849,893.75
589.982,894.8
590.116,894.95
590.249,895.5
590.383,893.85
590.516,894.75
590.649,897.25
590.783,896.35
590.916,896.95
591.05,898.15
591.183,898.05
591.316,898.4
591.45,898.9
591.583,896.85
591.717,898.7
591.85,898.9
591.983,898.75
592.117,899.55
592.25,901.75
592.383,900.35
592.517,901.5
592.65,899.1
592.783,900.0
592.917,900.75
593.05,900.75
593.183,901.1
593.317,900.85
593.45,901.2
593.583,899.8
593.717,900.15
593.85,905.0
593.983,900.85
594.116,901.7
594.25,904.4
594.383,903.75
594.516,902.35
594.649,904.5
594.783,904.8
594.916,904.55
595.049,905.0
595.182,906.05
595.316,905.8
595.449,905.05
595.582,905.35
595.715,905.9
595.849,906.1
595.982,905.7
596.115,905.7
596.248,908.75
596.381,908.85
596.514,908.25
596.648,908.55
596.781,906.9
596.914,910.3
597.047,911.35
597.18,906.9
597.313,908.65
597.447,913.2
597.58,913.1
597.713,911.9
597.846,911.85
597.979,913.95
598.112,911.65
598.245,915.15
598.379,917.05
598.512,913.6
598.645,915.4
598.778,917.25
598.911,918.0
599.044,920.95
599.177,916.9
599.31,918.65
599.443,918.45
599.576,920.5
599.709,921.8
599.842,922.35
599.975,921.6
600.109,919.6
600.242,922.7
600.375,919.2
600.508,922.55
600.641,920.65
600.774,919.85
600.907,922.4
601.04,921.9
601.173,922.0
601.306,918.75
601.439,920.25
601.572,922.5
601.705,923.25
601.838,923.55
601.971,924.9
602.104,923.1
602.237,921.9
602.37,924.45
602.503,921.55
602.636,922.15
602.768,925.05
602.901,923.25
603.034,921.45
603.167,921.85
603.3,919.45
603.433,920.95
603.566,920.15
603.699,919.95
603.832,919.55
603.965,919.4
604.098,920.5
604.231,916.7
604.364,919.75
604.496,918.35
604.629,915.85
604.762,916.55
604.895,914.85
605.028,912.7
605.161,914.35
605.294,911.7
605.427,912.05
605.559,913.15
605.692,911.45
605.825,909.1
605.958,909.15
606.091,907.75
606.224,909.1
606.356,907.95
606.489,906.6
606.622,906.15
606.755,903.7
606.888,906.8
607.02,905.6
607.153,903.2
607.286,901.75
607.419,904.0
607.552,900.9
607.684,902.8
607.817,903.4
607.95,902.1
608.083,900.55
608.215,899.6
608.348,900.25
608.481,900.2
608.614,898.2
608.746,901.15
608.879,899.3
609.012,899.3
609.145,900.55
609.277,896.5
609.41,895.4
609.543,898.6
609.675,897.4
609.808,897.7
609.941,896.45
610.074,896.3
610.206,896.2
610.339,894.95
610.472,896.05
610.604,896.5
610.737,897.45
610.87,895.15
611.002,895.7
611.135,897.25
611.268,896.15
611.4,895.05
611.533,894.8
611.666,895.45
611.798,892.15
611.931,890.65
612.063,893.55
612.196,889.75
612.329,889.65
612.461,891.7
612.594,889.95
612.727,892.1
612.859,891.35
612.992,889.95
613.124,889.75
613.257,892.75
613.39,891.1
613.522,891.1
613.655,892.75
613.787,890.1
613.92,887.75
614.052,890.9
614.185,890.25
614.317,888.8
614.45,886.5
614.583,888.85
614.715,886.15
614.848,887.4
614.98,886.9
615.113,889.15
615.245,886.65
615.378,888.35
615.51,885.0
615.643,887.7
615.775,886.15
615.908,886.7
616.04,885.7
616.173,885.45
616.305,885.3
616.438,886.15
616.57,886.6
616.703,886.5
616.835,885.4
616.968,887.15
617.1,884.95
617.233,884.95
617.365,888.3
617.498,888.3
617.63,885.75
617.762,885.9
617.895,885.2
618.027,886.9
618.16,887.5
618.292,883.5
618.425,884.5
618.557,884.95
618.689,884.8
618.822,884.75
618.954,884.65
619.087,884.8
619.219,882.5
619.351,883.3
619.484,884.05
619.616,882.9
619.749,883.9
619.881,884.2
620.013,884.15
620.146,883.25
620.278,882.5
620.41,881.05
620.543,882.55
620.675,882.85
620.808,883.8
620.94,881.8
621.072,882.8
621.205,883.25
621.337,884.05
621.469,884.4
621.602,889.25
621.734,887.15
621.866,887.35
621.998,892.6
622.131,891.0
622.263,891.85
622.395,893.5
622.528,890.95
622.66,888.3
622.792,886.35
622.925,884.9
623.057,883.95
623.189,883.9
623.321,881.0
623.454,879.6
623.586,880.05
623.718,880.5
623.85,878.8
623.983,880.2
624.115,880.0
624.247,880.35
624.379,879.8
624.512,879.0
624.644,878.85
624.776,881.7
624.908,880.25
625.041,878.55
625.173,880.95
625.305,880.55
625.437,881.95
625.569,881.7
625.702,881.85
625.834,882.95
625.966,884.3
626.098,885.55
626.23,886.0
626.363,891.8
626.495,896.35
626.627,911.8
626.759,935.3
626.891,976.2
627.024,1034.65
627.156,1106.25
627.288,1130.5
627.42,1109.4
627.552,1072.65
627.684,1045.5
627.816,1024.0
627.949,1012.5
628.081,1006.9
628.213,1005.9
628.345,1027.85
628.477,1076.3
628.609,1134.55
628.741,1099.3
628.874,1052.0
629.006,1033.3
629.138,1025.6
629.27,1019.95
629.402,1013.05
629.534,999.8
629.666,987.3
629.798,977.5
629.93,970.1
630.062,964.7
630.195,964.5
630.327,963.95
630.459,962.8
630.591,955.7
630.723,947.8
630.855,938.35
630.987,920.25
631.119,909.95
631.251,895.6
631.383,893.9
631.515,889.1
631.647,885.1
631.779,884.9
631.911,882.4
632.043,880.55
632.175,879.05
632.307,878.5
632.439,877.05
632.571,878.15
632.703,874.5
632.835,876.3
632.967,876.3
633.099,876.05
633.231,874.7
633.363,874.75
633.495,875.8
633.627,873.7
633.759,872.55
633.891,872.7
634.023,873.6
634.155,874.05
634.287,872.95
634.419,872.65
634.551,871.95
634.683,872.2
634.815,871.85
634.947,872.7
635.079,873.1
635.211,871.75
635.343,870.65
635.475,872.35
635.607,871.65
635.739,873.8
635.871,872.95
636.003,872.05
636.135,872.65
636.267,871.35
636.398,873.15
636.53,871.2
636.662,872.1
636.794,870.85
636.926,871.4
637.058,871.7
637.19,871.95
637.322,871.7
637.454,872.25
637.586,871.7
637.717,871.15
637.849,870.7
637.981,871.75
638.113,871.65
638.245,871.05
638.377,872.95
638.509,871.9
638.641,872.15
638.773,870.9
638.904,872.05
639.036,871.55
639.168,871.9
639.3,873.15
639.432,872.7
639.564,872.45
639.695,873.7
639.827,872.75
639.959,873.75
640.091,873.0
640.223,872.6
640.355,872.7
640.486,872.9
640.618,873.15
640.75,871.5
640.882,872.25
641.014,871.55
641.146,875.3
641.277,874.85
641.409,874.85
641.541,873.2
641.673,874.4
641.805,875.5
641.936,873.5
642.068,874.9
642.2,872.95
642.332,875.6
642.464,874.75
642.595,874.95
642.727,873.85
642.859,873.5
642.991,873.6
643.122,875.65
643.254,876.15
643.386,875.3
643.518,876.7
643.649,875.25
643.781,875.2
643.913,874.65
644.045,874.35
644.176,874.5
644.308,873.0
644.44,874.85
644.572,874.3
644.703,873.8
644.835,872.9
644.967,875.05
645.099,874.4
645.23,874.05
645.362,874.0
645.494,875.05
645.625,874.15
645.757,874.85
645.889,875.05
646.021,875.1
646.152,874.6
646.284,873.65
646.416,875.55
646.547,876.05
646.679,875.05
646.811,874.8
646.942,875.15
647.074,873.8
647.206,877.15
647.337,876.3
647.469,874.6
647.601,875.9
647.732,876.35
647.864,875.15
647.996,877.2
648.127,876.35
648.259,875.6
648.391,874.6
648.522,877.15
648.654,873.85
648.786,876.4
648.917,876.4
649.049,876.45
649.181,876.35
649.312,875.55
649.444,874.8
649.576,875.25
649.707,874.05
649.839,877.1
649.971,877.85
650.102,876.95
650.234,875.9
650.365,876.75
650.497,875.2
650.629,875.45
650.76,875.15
650.892,875.4
651.023,877.2
651.155,877.0
651.287,876.85
651.418,876.55
651.55,875.3
651.682,875.15
651.813,875.95
651.945,876.7
652.076,875.1
652.208,877.25
652.339,876.2
652.471,877.15
652.603,878.15
652.734,875.85
652.866,875.3
652.997,876.6
653.129,877.05
653.261,878.15
653.392,875.35
653.524,877.5
653.655,875.95
653.787,876.2
653.918,876.85
654.05,876.55
654.181,875.2
654.313,875.75
654.445,875.95
654.576,876.5
654.708,877.05
654.839,877.35
654.971,874.75
655.102,874.8
655.234,876.45
655.365,875.75
655.497,876.05
655.628,876.2
655.76,875.55
655.892,875.1
656.023,876.35
656.155,877.25
656.286,875.2
656.418,875.15
656.549,876.6
656.681,874.6
656.812,874.75
656.944,874.05
657.075,876.8
657.207,873.55
657.338,875.25
657.47,874.5
657.601,875.65
657.733,876.25
657.864,874.9
657.996,873.85
658.127,874.85
658.259,871.85
658.39,874.75
658.522,874.5
658.653,874.45
658.785,874.25
658.916,873.95
659.048,871.2
659.179,875.2
659.311,871.9
659.442,873.2
659.574,873.6
659.705,873.0
659.836,871.25
659.968,873.05
660.099,871.95
660.231,873.1
660.362,872.35
660.494,871.4
660.625,872.0
660.757,871.9
660.888,871.35
661.02,870.5
661.151,870.4
661.283,868.65
661.414,868.0
661.545,870.5
661.677,869.0
661.808,868.3
661.94,868.45
662.071,869.9
662.203,866.2
662.334,865.7
662.466,866.6
662.597,867.8
662.728,864.95
662.86,865.85
662.991,866.8
663.123,864.95