File: spectra/VLFR_06-PET_bio_Raman_0a65e96b.csv
nm,Intensity
528.626,1868.4
528.795,1869.1
528.963,1867.7
529.132,1866.2
529.3,1867.9
529.469,1867.3
529.637,1866.8
529.806,1867.1
529.974,1866.4
530.143,1869.0
530.311,1866.8
530.48,1867.7
530.648,1867.5
530.816,1867.7
530.985,1868.6
531.153,1871.0
531.322,1873.0
531.49,1876.5
531.658,1907.8
531.827,2444.6
531.995,4760.8
532.164,4953.8
532.332,2450.4
532.5,1878.4
532.669,1873.3
532.837,1873.8
533.006,1873.8
533.174,1879.9
533.342,1893.7
533.511,2032.1
533.679,3042.9
533.847,5243.8
534.016,6666.0
534.184,6606.6
534.352,6175.6
534.521,5588.9
534.689,5270.6
534.857,4974.3
535.025,4635.9
535.194,4284.6
535.362,3971.6
535.53,3689.9
535.699,3375.8
535.867,3131.6
536.035,3008.8
536.203,2864.9
536.372,2784.2
536.54,2705.3
536.708,2657.0
536.876,2652.2
537.044,2613.0
537.213,2567.5
537.381,2577.0
537.549,2575.4
537.717,2544.4
537.885,2549.4
538.054,2562.0
538.222,2557.2
538.39,2579.8
538.558,2562.6
538.726,2560.8
538.894,2576.9
539.063,2557.6
539.231,2585.4
539.399,2638.4
539.567,2669.0
539.735,2678.8
539.903,2716.4
540.071,2671.6
540.239,2635.5
540.408,2551.8
540.576,2490.0
540.744,2493.5
540.912,2452.7
541.08,2415.3
541.248,2422.2
541.416,2408.2
541.584,2402.7
541.752,2420.9
541.92,2412.2
542.088,2421.8
542.256,2405.1
542.424,2429.5
542.592,2431.2
542.76,2432.4
542.928,2398.5
543.096,2407.7
543.264,2399.2
543.432,2427.5
543.6,2424.2
543.768,2438.0
543.936,2450.0
544.104,2458.0
544.272,2433.9
544.44,2445.2
544.608,2434.5
544.776,2455.0
544.944,2453.2
545.112,2459.2
545.28,2443.6
545.448,2443.6
545.616,2446.4
545.784,2478.4
545.951,2461.6
546.119,2480.0
546.287,2474.9
546.455,2483.0
546.623,2498.1
546.791,2507.7
546.959,2497.2
547.127,2494.6
547.294,2499.6
547.462,2522.9
547.63,2507.5
547.798,2515.7
547.966,2522.7
548.134,2552.8
548.301,2523.4
548.469,2531.3
548.637,2542.6
548.805,2574.2
548.972,2527.5
549.14,2538.5
549.308,2537.7
549.476,2547.2
549.644,2546.8
549.811,2560.5
549.979,2548.9
550.147,2585.3
550.315,2658.5
550.482,2970.5
550.65,3401.3
550.818,3173.9
550.985,2698.0
551.153,2610.5
551.321,2631.1
551.488,2625.3
551.656,2640.3
551.824,2639.3
551.991,2632.9
552.159,2702.5
552.327,2679.5
552.494,2680.9
552.662,2855.5
552.83,3038.5
552.997,2903.3
553.165,2745.3
553.333,2714.1
553.5,2692.5
553.668,2706.7
553.835,2708.0
554.003,2711.5
554.171,2700.3
554.338,2697.8
554.506,2704.5
554.673,2719.6
554.841,2734.3
555.008,2786.6
555.176,2812.1
555.343,2855.3
555.511,3048.6
555.679,3150.8
555.846,3110.6
556.014,3078.2
556.181,3113.2
556.349,3122.4
556.516,3152.9
556.684,3176.9
556.851,3199.7
557.018,3282.0
557.186,3511.2
557.353,3805.9
557.521,4090.8
557.688,3954.9
557.856,3528.3
558.023,3365.3
558.191,3307.9
558.358,3341.5
558.525,3312.5
558.693,3279.2
558.86,3164.9
559.028,3013.2
559.195,3039.7
559.362,2936.8
559.53,2898.0
559.697,2877.4
559.864,2905.2
560.032,2921.4
560.199,2906.9
560.366,2916.7
560.534,2917.2
560.701,2907.5
560.868,2966.3
561.036,2933.0
561.203,2997.3
561.37,3036.1
561.538,3048.9
561.705,3053.1
561.872,3068.9
562.039,3145.4
562.207,3171.0
562.374,3163.3
562.541,3122.1
562.708,3166.9
562.876,3189.1
563.043,3164.0
563.21,3196.7
563.377,3210.3
563.545,3171.4
563.712,3085.2
563.879,3074.0
564.046,3104.4
564.213,3118.9
564.38,3138.9
564.548,3179.9
564.715,3256.4
564.882,3355.3
565.049,3503.3
565.216,3628.8
565.383,3702.5
565.551,3903.2
565.718,4016.2
565.885,3992.9
566.052,3873.8
566.219,3673.4
566.386,3477.5
566.553,3342.7
566.72,3264.1
566.887,3242.7
567.054,3262.4
567.221,3263.6
567.388,3392.2
567.555,3572.8
567.722,3695.6
567.889,3607.7
568.057,3407.5
568.224,3322.0
568.391,3311.7
568.558,3272.3
568.725,3286.9
568.892,3286.1
569.058,3297.1
569.225,3318.1
569.392,3324.4
569.559,3366.9
569.726,3462.5
569.893,3486.4
570.06,3563.6
570.227,3636.9
570.394,3881.5
570.561,4127.4
570.728,4425.0
570.895,4597.9
571.062,4957.7
571.229,5308.5
571.395,5336.3
571.562,5096.5
571.729,4610.6
571.896,4403.1
572.063,4205.6
572.23,3941.1
572.397,3788.1
572.563,3654.4
572.73,3586.8
572.897,3562.4
573.064,3460.1
573.231,3511.2
573.397,3510.8
573.564,3520.7
573.731,3581.8
573.898,3606.6
574.064,3693.3
574.231,3631.9
574.398,3611.8
574.565,3569.8
574.731,3651.5
574.898,3592.9
575.065,3683.7
575.232,3808.7
575.398,3890.3
575.565,3809.6
575.732,3653.6
575.898,3660.2
576.065,3707.4
576.232,3827.1
576.398,3870.9
576.565,3905.3
576.732,3888.9
576.898,3871.1
577.065,3839.7
577.232,3772.6
577.398,3672.3
577.565,3679.2
577.731,3653.2
577.898,3651.2
578.065,3606.5
578.231,3667.4
578.398,3604.6
578.564,3664.8
578.731,3687.7
578.897,3669.2
579.064,3687.1
579.23,3701.9
579.397,3688.1
579.563,3684.4
579.73,3715.4
579.896,3774.9
580.063,3707.9
580.229,3749.4
580.396,3772.3
580.562,3852.7
580.729,3821.9
580.895,3853.3
581.062,3946.6
581.228,3999.0
581.395,4113.2
581.561,4353.5
581.728,5271.1
581.894,7136.9
582.06,9801.7
582.227,10506.7
582.393,7334.8
582.56,4846.2
582.726,4169.8
582.892,3950.3
583.059,3930.4
583.225,3862.6
583.391,3888.7
583.558,3909.4
583.724,3919.9
583.89,3840.1
584.057,3907.4
584.223,3885.0
584.389,3938.7
584.556,3975.2
584.722,3971.9
584.888,3973.2
585.054,4140.4
585.221,4314.9
585.387,4903.1
585.553,5938.4
585.719,6835.1
585.886,7620.6
586.052,7622.0
586.218,7150.8
586.384,6359.2
586.55,5423.1
586.717,4717.1
586.883,4342.1
587.049,4177.3
587.215,4022.2
587.381,4033.4
587.548,3958.6
587.714,3960.8
587.88,3967.4
588.046,3998.0
588.212,3925.8
588.378,3921.0
588.544,3952.9
588.71,3946.5
588.876,3946.5
589.043,3928.6
589.209,3917.0
589.375,3912.7
589.541,3921.6
589.707,3912.0
589.873,3887.5
590.039,3884.7
590.205,3851.5
590.371,3952.7
590.537,3946.0
590.703,3900.0
590.869,3917.7
591.035,3909.0
591.201,3956.6
591.367,3937.4
591.533,3908.7
591.699,3927.9
591.865,3973.6
592.031,3967.8
592.197,3908.6
592.363,4011.0
592.529,3976.3
592.694,3921.3
592.86,3945.8
593.026,3938.0
593.192,4039.1
593.358,3987.7
593.524,3856.2
593.69,3933.5
593.856,3942.0
594.021,3990.2
594.187,3920.1
594.353,3994.0
594.519,3961.7
594.685,3926.2
594.851,4009.0
595.016,3956.8
595.182,4014.8
595.348,4004.6
595.514,4029.6
595.68,3976.3
595.845,3987.9
596.011,4065.0
596.177,4028.8
596.342,3978.4
596.508,4017.3
596.674,3985.7
596.84,4083.5
597.005,4024.5
597.171,3956.5
597.337,4032.5
597.502,4010.1
597.668,4010.0
597.834,4025.4
597.999,4009.0
598.165,3971.8
598.331,4043.1
598.496,4039.9
598.662,4058.4
598.828,4060.4
598.993,4075.2
599.159,3993.6
599.324,4056.2
599.49,4080.2
599.656,4069.3
599.821,4086.7
599.987,4047.1
600.152,4061.1
600.318,4072.9
600.483,4077.8
600.649,4084.8
600.814,4126.0
600.98,4119.9
601.145,3995.8
601.311,4091.2
601.476,4111.3
601.642,4075.2
601.807,4079.4
601.973,4075.6
602.138,4161.4
602.304,4065.1
602.469,4070.4
602.635,4112.1
602.8,4124.1
602.965,4058.6
603.131,4133.5
603.296,4100.8
603.462,4129.9
603.627,4099.3
603.792,4124.0
603.958,4067.7
604.123,4145.0
604.288,4104.4
604.454,4094.3
604.619,4157.4
604.784,4171.4
604.95,4123.5
605.115,4127.0
605.28,4115.1
605.446,4184.4
605.611,4127.8
605.776,4114.6
605.941,4179.7
606.107,4132.1
606.272,4200.3
606.437,4163.1
606.602,4137.7
606.767,4161.4
606.933,4160.1
607.098,4173.8
607.263,4123.2
607.428,4222.2
607.593,4151.5
607.759,4184.9
607.924,4201.8
608.089,4195.4
608.254,4125.5
608.419,4166.1
608.584,4153.9
608.749,4235.9
608.915,4247.6
609.08,4125.7
609.245,4175.2
609.41,4160.6
609.575,4206.9
609.74,4239.3
609.905,4193.6
610.07,4178.9
610.235,4232.0
610.4,4212.2
610.565,4194.6
610.73,4176.2
610.895,4235.6
611.06,4219.3
611.225,4276.9
611.39,4186.2
611.555,4226.3
611.72,4195.6
611.885,4222.0
612.05,4285.8
612.215,4208.8
612.38,4242.1
612.545,4321.8
612.71,4178.8
612.875,4270.9
613.04,4271.5
613.204,4245.1
613.369,4280.9
613.534,4289.3
613.699,4342.1
613.864,4199.5
614.029,4309.9
614.194,4364.9
614.358,4256.0
614.523,4292.4
614.688,4354.7
614.853,4279.1
615.018,4298.8
615.182,4312.0
615.347,4402.9
615.512,4315.2
615.677,4327.8
615.841,4315.5
616.006,4347.8
616.171,4334.5
616.336,4301.1
616.5,4371.0
616.665,4409.3
616.83,4356.1
616.994,4326.4
617.159,4415.9
617.324,4378.5
617.489,4405.6
617.653,4468.2
617.818,4474.0
617.982,4419.8
618.147,4380.4
618.312,4457.8
618.476,4519.3
618.641,4460.9
618.805,4405.5
618.97,4451.8
619.135,4427.9
619.299,4423.0
619.464,4497.2
619.628,4380.8
619.793,4504.3
619.957,4399.1
620.122,4376.7
620.286,4433.1
620.451,4416.8
620.615,4470.3
620.78,4471.1
620.944,4424.1
621.109,4437.4
621.273,4522.0
621.438,4506.3
621.602,4442.0
621.767,4453.6
621.931,4477.4
622.095,4411.4
622.26,4496.5
622.424,4504.7
622.589,4432.1
622.753,4499.1
622.917,4526.4
623.082,4570.9
623.246,4512.8
623.41,4447.0
623.575,4526.2
623.739,4498.4
623.903,4488.0
624.068,4543.2
624.232,4560.5
624.396,4598.9
624.561,4605.9
624.725,4700.0
624.889,4683.7
625.053,4614.2
625.218,4572.8
625.382,4572.1
625.546,4600.7
625.71,4641.2
625.875,4595.1
626.039,4654.6
626.203,4563.6
626.367,4612.8
626.531,4578.7
626.695,4679.8
626.86,4577.1
627.024,4563.5
627.188,4642.0
627.352,4721.7
627.516,4712.0
627.68,4621.7
627.844,4769.3
628.008,4697.9
628.172,4758.4
628.337,4874.0
628.501,4901.2
628.665,4895.8
628.829,4908.9
628.993,4965.3
629.157,5023.9
629.321,5031.1
629.485,4905.5
629.649,4964.7
629.813,4990.5
629.977,4853.7
630.141,4845.8
630.305,4950.8
630.469,4973.6
630.633,4942.9
630.797,5036.3
630.96,5200.9
631.124,5543.8
631.288,5820.9
631.452,5998.7
631.616,6142.9
631.78,6259.1
631.944,6076.9
632.108,6061.4
632.272,5857.4
632.435,5667.1
632.599,5641.8
632.763,5567.8
632.927,5364.4
633.091,5526.6
633.254,5452.4
633.418,5376.9
633.582,5320.5
633.746,5313.1
633.91,5312.9
634.073,5155.0
634.237,5054.4
634.401,5145.8
634.564,5185.0
634.728,5090.8
634.892,5047.8
635.056,5052.6
635.219,5166.1
635.383,5235.1
635.547,5272.6
635.71,5352.4
635.874,5567.7
636.038,5802.7
636.201,6004.9
636.365,6436.4
636.528,6568.6
636.692,6318.7
636.856,6119.9
637.019,5765.9
637.183,5564.4
637.346,5396.7
637.51,5383.4
637.673,5209.5
637.837,5155.4
638.0,5112.9
638.164,5187.6
638.327,5094.1
638.491,5230.1
638.654,5069.4
638.818,5063.9
638.981,5071.1
639.145,5095.5
639.308,5166.2
639.472,5074.1
639.635,4958.9
639.799,5013.7
639.962,5025.5
640.125,5020.6
640.289,5057.3
640.452,5080.4
640.616,5009.4
640.779,5037.9
640.942,5102.7
641.106,5059.8
641.269,4996.3
641.432,5157.1
641.596,5158.5
641.759,5034.8
641.922,5068.2
642.085,5080.3
642.249,5071.8
642.412,5261.9
642.575,5234.6
642.738,5084.8
642.902,5113.6
643.065,5094.4
643.228,5043.0
643.391,5023.8
643.555,5113.9
643.718,5109.3
643.881,5171.4
644.044,5088.9
644.207,5071.8
644.37,5085.6
644.534,4992.6
644.697,5041.2
644.86,5025.4
645.023,5069.9
645.186,5047.4
645.349,5155.7
645.512,5158.0
645.675,5059.8
645.838,5038.5
646.001,5129.8
646.164,5046.8
646.327,5212.4
646.49,5091.8
646.653,5087.1
646.816,5102.7
646.979,5147.7
647.142,5155.5
647.305,4973.5
647.468,5118.6
647.631,4908.5
647.794,5028.3
647.957,5120.9
648.12,4999.1
648.283,5001.2
648.446,5036.0
648.609,5111.3
648.772,4891.6
648.935,4992.7
649.098,4933.1
649.26,4981.5
649.423,5014.8
649.586,4993.0
649.749,5024.8
649.912,4975.0
650.075,5112.4
650.237,4840.6
650.4,4943.6
650.563,4948.8
650.726,5030.0
650.888,4997.9
651.051,4917.5
651.214,5005.3
651.377,5019.7
651.539,4869.3
651.702,4882.0
651.865,4908.6
652.027,4868.2
652.19,4968.9
652.353,4861.9
652.515,4822.5
652.678,4859.4
652.841,4826.0
653.003,4898.2
653.166,4723.6
653.329,4794.4
653.491,4824.2
653.654,4809.9
653.816,4626.0
653.979,4817.8
654.142,4768.8
654.304,4862.4
654.467,4774.4
654.629,4695.2
654.792,4694.9
654.954,4786.1
655.117,4852.8
655.279,4728.4
655.442,4685.3
655.604,4729.6
655.767,4837.1
655.929,4823.9
656.091,4659.5
656.254,4692.2
656.416,4779.3
656.579,4702.1
656.741,4655.7
656.904,4605.2
657.066,4660.4
657.228,4591.2
657.391,4614.2
657.553,4571.7
657.715,4600.0
657.878,4549.1
658.04,4533.1
658.202,4443.6
658.365,4407.1
658.527,4645.3
658.689,4606.5
658.851,4582.5
659.014,4371.2
659.176,4547.5
659.338,4603.6
659.5,4458.0
659.663,4509.6
659.825,4350.9
659.987,4407.1
660.149,4405.8
660.311,4387.0
660.474,4429.8
660.636,4548.5
660.798,4419.2
660.96,4435.2
661.041,4442.0