File: spectra/VLFR_02-HDPE_nobio_Raman_41d6915f.csv
cm-1,Intensity
-123.878,1852.15
-117.855,1852.6
-111.836,1852.85
-105.821,1853.15
-99.8104,1853.15
-93.8036,1852.45
-87.8007,1853.55
-81.8019,1853.4
-75.807,1852.95
-69.8161,1852.95
-63.8293,1853.45
-57.8464,1853.65
-51.8675,1853.45
-45.8926,1854.45
-39.9216,1855.2
-33.9547,1854.75
-27.9917,1857.3
-22.0326,1861.35
-16.0776,1890.8
-10.1265,2281.6
-4.17932,3489.7
1.76388,3046.3
7.70313,1953.75
13.6384,1855.3
19.5698,1854.6
25.4972,1856.7
31.4207,1853.8
37.3403,1853.35
43.256,1855.8
49.1677,1868.7
55.0755,1945.15
60.9794,2080.4
66.8794,2169.35
72.7754,2195.6
78.6676,2178.7
84.5559,2157.75
90.4402,2175.95
96.3207,2164.4
102.197,2160.75
108.07,2160.35
113.939,2132.9
119.804,2116.85
125.665,2110.5
131.522,2081.55
137.375,2090.05
143.225,2077.1
149.07,2067.7
154.912,2067.2
160.75,2062.5
166.584,2061.25
172.414,2066.65
178.241,2066.05
184.063,2077.45
189.882,2064.35
195.697,2059.15
201.508,2067.85
207.315,2059.5
213.119,2051.9
218.918,2059.65
224.714,2050.9
230.506,2046.4
236.294,2039.25
242.078,2044.15
247.859,2038.7
253.636,2038.95
259.409,2032.25
265.178,2029.1
270.943,2029.95
276.705,2030.45
282.463,2026.9
288.217,2022.6
293.967,2019.7
299.713,2025.35
305.456,2023.65
311.195,2021.8
316.93,2026.85
322.662,2026.75
328.389,2024.5
334.113,2027.3
339.834,2025.6
345.55,2024.4
351.263,2027.75
356.972,2017.0
362.677,2029.1
368.379,2036.1
374.077,2023.95
379.771,2026.2
385.461,2023.0
391.148,2020.2
396.831,2026.5
402.51,2023.45
408.186,2035.2
413.858,2030.5
419.526,2027.55
425.19,2025.1
430.851,2027.2
436.508,2022.2
442.162,2025.0
447.811,2028.0
453.458,2021.1
459.1,2021.7
464.739,2021.7
470.374,2027.3
476.005,2021.05
481.633,2022.5
487.257,2018.15
492.878,2021.3
498.494,2027.1
504.107,2019.75
509.717,2027.25
515.323,2021.55
520.925,2028.15
526.524,2019.7
532.119,2026.75
537.71,2018.55
543.298,2025.9
548.882,2019.6
554.462,2020.4
560.039,2025.7
565.613,2018.25
571.182,2022.4
576.748,2024.8
582.311,2024.5
587.87,2022.85
593.425,2027.9
598.977,2028.15
604.525,2015.15
610.069,2030.05
615.61,2025.95
621.148,2027.7
626.682,2032.6
632.212,2025.1
637.739,2023.45
643.262,2032.85
648.781,2029.7
654.297,2027.7
659.81,2035.4
665.319,2031.6
670.824,2032.3
676.326,2040.35
681.824,2036.5
687.319,2038.5
692.81,2037.45
698.298,2028.7
703.782,2031.2
709.262,2041.65
714.739,2043.95
720.213,2056.35
725.683,2050.95
731.15,2048.9
736.613,2050.95
742.072,2062.35
747.528,2052.7
752.981,2064.7
758.43,2053.75
763.875,2064.85
769.317,2063.7
774.756,2068.65
780.191,2061.1
785.623,2061.9
791.051,2072.85
796.475,2070.85
801.897,2072.3
807.314,2078.25
812.729,2073.6
818.139,2080.8
823.547,2085.25
828.951,2091.45
834.351,2083.9
839.748,2087.85
845.142,2095.05
850.532,2087.75
855.918,2107.15
861.302,2101.05
866.681,2112.15
872.058,2132.8
877.431,2129.9
882.8,2122.1
888.166,2127.45
893.529,2122.8
898.888,2118.95
904.244,2129.9
909.596,2122.25
914.945,2117.5
920.291,2137.95
925.633,2135.4
930.972,2125.0
936.308,2134.6
941.64,2129.3
946.968,2133.1
952.294,2140.4
957.615,2144.95
962.934,2146.55
968.249,2149.85
973.561,2148.1
978.869,2141.5
984.174,2136.8
989.476,2147.5
994.774,2152.6
1000.07,2157.75
1005.36,2164.6
1010.65,2164.95
1015.93,2173.25
1021.22,2180.45
1026.49,2167.2
1031.77,2187.2
1037.04,2182.15
1042.31,2194.9
1047.57,2225.55
1052.83,2360.5
1058.09,2622.55
1063.35,2773.9
1068.6,2488.2
1073.85,2297.0
1079.09,2277.85
1084.33,2275.6
1089.57,2253.05
1094.81,2244.8
1100.04,2235.05
1105.27,2225.15
1110.49,2246.05
1115.71,2300.85
1120.93,2514.1
1126.15,2924.0
1131.36,3069.1
1136.57,2545.85
1141.77,2267.5
1146.98,2208.6
1152.18,2197.5
1157.37,2208.15
1162.56,2230.7
1167.75,2253.8
1172.94,2235.95
1178.12,2195.55
1183.3,2192.1
1188.48,2180.2
1193.65,2187.6
1198.82,2166.7
1203.99,2178.3
1209.15,2177.95
1214.31,2179.15
1219.46,2170.7
1224.62,2180.05
1229.77,2195.7
1234.92,2189.4
1240.06,2174.8
1245.2,2191.75
1250.34,2180.75
1255.47,2188.15
1260.6,2210.8
1265.73,2213.05
1270.85,2220.5
1275.97,2217.2
1281.09,2251.45
1286.21,2422.95
1291.32,2877.3
1296.43,3206.75
1301.53,2712.45
1306.63,2346.65
1311.73,2273.95
1316.83,2214.6
1321.92,2214.75
1327.01,2179.6
1332.1,2188.25
1337.18,2169.35
1342.26,2158.4
1347.34,2168.45
1352.41,2151.05
1357.48,2168.55
1362.55,2185.45
1367.61,2214.3
1372.67,2202.65
1377.73,2167.8
1382.78,2140.45
1387.84,2150.25
1392.88,2150.05
1397.93,2153.5
1402.97,2190.35
1408.01,2297.1
1413.05,2602.15
1418.08,2756.15
1423.11,2543.5
1428.14,2441.4
1433.16,2568.3
1438.18,2709.9
1443.2,2690.85
1448.21,2530.45
1453.22,2495.35
1458.23,2507.85
1463.23,2481.95
1468.23,2400.75
1473.23,2306.95
1478.23,2226.75
1483.22,2191.0
1488.21,2183.3
1493.2,2157.8
1498.18,2152.3
1503.16,2151.6
1508.14,2139.55
1513.11,2141.6
1518.08,2137.75
1523.05,2131.4
1528.01,2133.65
1532.97,2139.6
1537.93,2144.4
1542.89,2139.8
1547.84,2132.05
1552.79,2137.25
1557.73,2149.7
1562.68,2133.25
1567.62,2135.35
1572.56,2137.05
1577.49,2132.4
1582.42,2136.55
1587.35,2130.35
1592.27,2130.4
1597.19,2142.05
1602.11,2138.25
1607.03,2132.7
1611.94,2133.6
1616.85,2146.8
1621.76,2126.2
1626.66,2132.3
1631.56,2134.5
1636.46,2142.55
1641.36,2134.9
1646.25,2131.85
1651.14,2130.75
1656.02,2134.3
1660.9,2127.8
1665.78,2125.0
1670.66,2133.6
1675.54,2136.75
1680.41,2135.6
1685.27,2137.1
1690.14,2136.1
1695.0,2139.4
1699.86,2138.55
1704.71,2135.6
1709.57,2144.05
1714.42,2131.75
1719.26,2145.95
1724.11,2141.55
1728.95,2131.45
1733.79,2136.0
1738.62,2147.45
1743.46,2134.5
1748.28,2141.6
1753.11,2149.1
1757.93,2143.35
1762.75,2154.65
1767.57,2159.4
1772.39,2153.8
1777.2,2160.05
1782.01,2154.8
1786.81,2158.5
1791.62,2167.05
1796.41,2167.85
1801.21,2168.8
1806.01,2166.5
1810.8,2155.85
1815.59,2155.1
1820.37,2162.25
1825.15,2151.95
1829.93,2162.25
1834.71,2166.6
1839.48,2156.25
1844.25,2169.15
1849.02,2170.1
1853.79,2177.4
1858.55,2180.1
1863.31,2178.95
1868.06,2188.0
1872.82,2190.0
1877.57,2197.8
1882.31,2185.65
1887.06,2195.05
1891.8,2188.65
1896.54,2195.4
1901.28,2210.95
1906.01,2206.95
1910.74,2208.7
1915.47,2220.15
1920.19,2210.7
1924.91,2216.25
1929.63,2217.2
1934.35,2219.35
1939.06,2227.3
1943.77,2218.5
1948.48,2220.1
1953.19,2230.6
1957.89,2235.15
1962.59,2227.9
1967.28,2231.45
1971.98,2246.85
1976.67,2239.85
1981.35,2246.4
1986.04,2254.55
1990.72,2253.9
1995.4,2252.35
2000.08,2257.95
2004.75,2264.95
2009.42,2267.55
2014.09,2280.5
2018.75,2272.4
2023.42,2287.05
2028.08,2287.9
2032.73,2282.65
2037.39,2297.35
2042.04,2311.65
2046.69,2285.45
2051.33,2313.65
2055.97,2305.05
2060.61,2304.7
2065.25,2304.9
2069.88,2324.25
2074.52,2325.3
2079.15,2333.45
2083.77,2333.35
2088.39,2340.4
2093.01,2345.75
2097.63,2356.2
2102.25,2350.0
2106.86,2353.6
2111.47,2356.75
2116.08,2373.0
2120.68,2368.35
2125.28,2369.45
2129.88,2363.8
2134.47,2375.9
2139.07,2367.45
2143.66,2359.6
2148.24,2365.25
2152.83,2380.2
2157.41,2382.95
2161.99,2363.6
2166.57,2371.35
2171.14,2377.6
2175.71,2408.7
2180.28,2411.3
2184.84,2399.5
2189.41,2390.35
2193.97,2380.25
2198.52,2377.05
2203.08,2378.55
2207.63,2369.85
2212.18,2383.3
2216.73,2381.6
2221.27,2360.25
2225.81,2392.95
2230.35,2379.7
2234.89,2359.7
2239.42,2355.5
2243.95,2377.0
2248.48,2375.4
2253.0,2351.9
2257.52,2350.05
2262.04,2363.5
2266.56,2354.75
2271.07,2362.5
2275.58,2358.7
2280.09,2354.25
2284.6,2337.9
2289.1,2353.85
2293.6,2357.55
2298.1,2326.5
2302.6,2346.75
2307.09,2343.95
2311.58,2336.85
2316.07,2362.55
2320.55,2359.0
2325.03,2331.95
2329.51,2331.0
2333.99,2339.05
2338.46,2334.4
2342.93,2339.6
2347.4,2333.8
2351.87,2336.05
2356.33,2345.05
2360.79,2319.55
2365.25,2331.95
2369.71,2335.35
2374.16,2334.5
2378.61,2329.25
2383.06,2331.3
2387.5,2331.3
2391.94,2335.55
2396.38,2332.45
2400.82,2350.0
2405.26,2354.5
2409.69,2324.5
2414.12,2344.65
2418.54,2340.75
2422.97,2355.95
2427.39,2360.1
2431.81,2365.25
2436.22,2361.35
2440.64,2340.2
2445.05,2331.5
2449.46,2339.3
2453.86,2343.35
2458.27,2318.05
2462.67,2328.35
2467.06,2316.9
2471.46,2325.8
2475.85,2328.5
2480.24,2331.55
2484.63,2300.85
2489.02,2328.95
2493.4,2297.0
2497.78,2311.55
2502.16,2327.15
2506.53,2333.4
2510.9,2310.55
2515.27,2317.2
2519.64,2326.4
2524.0,2323.65
2528.37,2319.55
2532.73,2325.7
2537.08,2307.0
2541.44,2307.55
2545.79,2320.3
2550.14,2315.55
2554.48,2309.3
2558.83,2312.25
2563.17,2314.95
2567.51,2308.15
2571.85,2323.7
2576.18,2329.1
2580.51,2311.45
2584.84,2336.85
2589.17,2341.6
2593.49,2358.8
2597.81,2351.3
2602.13,2350.55
2606.45,2359.45
2610.76,2354.5
2615.07,2332.8
2619.38,2358.1
2623.69,2322.85
2627.99,2326.45
2632.29,2344.9
2636.59,2349.95
2640.89,2338.45
2645.18,2349.65
2649.47,2355.25
2653.76,2350.65
2658.05,2359.95
2662.33,2354.35
2666.61,2342.8
2670.89,2356.5
2675.17,2351.05
2679.44,2339.3
2683.71,2354.45
2687.98,2381.25
2692.25,2393.55
2696.51,2383.0
2700.77,2437.8
2705.03,2464.65
2709.29,2479.2
2713.54,2565.95
2717.79,2589.45
2722.04,2593.0
2726.29,2562.3
2730.53,2510.75
2734.77,2446.55
2739.01,2402.15
2743.25,2355.1
2747.48,2331.4
2751.71,2332.25
2755.94,2337.05
2760.17,2317.7
2764.39,2323.4
2768.61,2301.95
2772.83,2321.6
2777.05,2296.0
2781.27,2300.5
2785.48,2299.55
2789.69,2301.35
2793.89,2323.7
2798.1,2341.15
2802.3,2326.4
2806.5,2359.85
2810.7,2359.05
2814.89,2391.0
2819.09,2451.75
2823.28,2544.4
2827.46,2708.9
2831.65,3113.15
2835.83,3787.3
2840.01,4877.5
2844.19,6399.4
2848.37,6838.95
2852.54,6319.25
2856.71,5790.15
2860.88,5203.75
2865.05,4856.4
2869.21,4801.75
2873.37,5228.15
2877.53,6162.3
2881.69,6971.5
2885.84,6123.5
2889.99,5080.15
2894.14,4704.6
2898.29,4562.15
2902.43,4242.2
2906.58,4156.7
2910.72,3924.9
2914.85,3747.0
2918.99,3624.1
2923.12,3613.7
2927.25,3553.05
2931.38,3495.85
2935.5,3313.45
2939.63,3070.6
2943.75,2805.6
2947.87,2617.95
2951.98,2493.75
2956.1,2409.2
2960.21,2365.8
2964.32,2329.35
2968.42,2303.65
2972.53,2278.0
2976.63,2275.05
2980.73,2274.35
2984.83,2238.2
2988.92,2256.5
2993.01,2231.95
2997.1,2216.85
3001.19,2218.6
3005.28,2215.8
3009.36,2198.1
3013.44,2213.1
3017.52,2197.5
3021.6,2185.65
3025.67,2192.3
3029.74,2179.95
3033.81,2176.25
3037.88,2165.2
3041.94,2166.45
3046.01,2164.55
3050.07,2163.3
3054.12,2157.45
3058.18,2159.25
3062.23,2162.35
3066.28,2144.7
3070.33,2139.7
3074.38,2144.85
3078.42,2148.55
3082.46,2151.8
3086.5,2150.9
3090.54,2143.85
3094.57,2129.3
3098.6,2133.1
3102.63,2120.2
3106.66,2114.05
3110.69,2120.15
3114.71,2118.5
3118.73,2119.55
3122.75,2113.1
3126.77,2123.0
3130.78,2114.85
3134.79,2113.4
3138.8,2116.25
3142.81,2110.4
3146.81,2109.05
3150.82,2109.05
3154.82,2103.85
3158.81,2108.5
3162.81,2108.7
3166.8,2098.15
3170.79,2112.65
3174.78,2116.15
3178.77,2108.95
3182.75,2091.6
3186.74,2094.05
3190.72,2105.55
3194.69,2096.2
3198.67,2092.65
3202.64,2095.75
3206.61,2099.55
3210.58,2095.75
3214.55,2089.5
3218.51,2092.5
3222.47,2100.8
3226.43,2099.85
3230.39,2092.25
3234.35,2094.85
3238.3,2098.5
3242.25,2094.6
3246.2,2095.35
3250.15,2085.65
3254.09,2094.5
3258.03,2099.2
3261.97,2084.55
3265.91,2087.3
3269.84,2100.85
3273.78,2090.45
3277.71,2098.75
3281.64,2084.8
3285.56,2089.35
3289.49,2086.8
3293.41,2097.6
3297.33,2096.4
3301.25,2082.75
3305.16,2089.15
3309.07,2094.2
3312.99,2086.9
3316.89,2087.25
3320.8,2081.0
3324.7,2086.15
3328.61,2080.9
3332.51,2077.3
3336.4,2083.85
3340.3,2077.25
3344.19,2094.2
3348.08,2084.25
3351.97,2080.1
3355.86,2084.5
3359.74,2081.15
3363.63,2094.15
3367.51,2080.7
3371.39,2076.95
3375.26,2078.05
3379.13,2082.35
3383.01,2083.2
3386.88,2065.3
3390.74,2077.65
3394.61,2069.4
3398.47,2077.4
3402.33,2083.5
3406.19,2072.85
3410.05,2076.95
3413.9,2074.8
3417.75,2080.95
3421.6,2072.85
3425.45,2080.35
3429.3,2082.7
3433.14,2069.8
3436.98,2074.0
3440.82,2071.55
3444.66,2077.45
3448.49,2073.35
3452.32,2063.5
3456.15,2068.5
3459.98,2075.65
3463.81,2067.7
3467.63,2072.05
3471.46,2085.25
3475.28,2069.8
3479.09,2065.95
3482.91,2078.3
3486.72,2056.5
3490.53,2064.35
3494.34,2075.0
3498.15,2065.25
3501.96,2064.2
3505.76,2068.2
3509.56,2063.05
3513.36,2068.65
3517.15,2060.1
3520.95,2057.1
3524.74,2066.5
3528.53,2055.65
3532.32,2060.6
3536.11,2051.75
3539.89,2045.45
3543.67,2056.75
3547.45,2054.95
3551.23,2051.0
3555.0,2052.4
3558.78,2041.5
3562.55,2054.1
3566.32,2053.75
3570.09,2043.05
3573.85,2056.4
3577.61,2062.95
3581.37,2055.85
3585.13,2048.05
3588.89,2044.05
3592.64,2055.0
3596.4,2046.45
3600.15,2046.45
3603.9,2040.85
3607.64,2044.95
3611.39,2049.05
3615.13,2044.95
3618.87,2042.85
3622.61,2031.65
3626.34,2041.9
3630.08,2033.1
3633.81,2046.55
3637.54,2053.4
3641.27,2041.95
3644.99,2038.1
3648.72,2043.75
3652.44,2042.6
3656.16,2030.45
3659.87,2033.0
3663.59,2018.35
3665.45,2021.2