File: spectra/VLFR_02-HDPE_nobio_Raman_2e410ac8.csv
nm,Intensity
526.5,830.6
526.637,828.9
526.774,828.9
526.91,830.5
527.047,828.5
527.184,829.1
527.32,827.4
527.457,830.4
527.594,829.6
527.73,829.0
527.867,829.6
528.004,827.9
528.14,830.0
528.277,829.3
528.414,828.7
528.55,829.5
528.687,829.0
528.823,831.0
528.96,829.7
529.096,830.2
529.233,829.2
529.37,829.1
529.506,829.8
529.643,829.3
529.779,828.1
529.916,827.9
530.052,829.3
530.189,829.8
530.325,827.8
530.462,829.3
530.598,830.4
530.735,828.6
530.871,829.5
531.008,829.1
531.144,828.1
531.28,829.3
531.417,829.9
531.553,829.8
531.69,828.9
531.826,830.1
531.962,836.4
532.099,885.1
532.235,907.9
532.372,850.3
532.508,830.3
532.644,829.1
532.781,830.1
532.917,829.5
533.053,830.1
533.19,828.9
533.326,828.3
533.462,829.4
533.599,828.6
533.735,834.4
533.871,856.5
534.007,890.0
534.144,901.7
534.28,901.1
534.416,896.8
534.552,891.2
534.689,886.8
534.825,885.7
534.961,885.6
535.097,883.9
535.234,879.6
535.37,874.3
535.506,870.9
535.642,866.4
535.778,864.4
535.914,861.7
536.051,861.6
536.187,857.8
536.323,857.1
536.459,859.0
536.595,857.9
536.731,853.4
536.867,856.2
537.003,854.8
537.14,853.8
537.276,853.9
537.412,856.1
537.548,853.1
537.684,856.2
537.82,853.7
537.956,854.2
538.092,853.8
538.228,852.0
538.364,851.0
538.5,849.1
538.636,848.4
538.772,848.4
538.908,847.2
539.044,845.1
539.18,845.0
539.316,844.6
539.452,846.7
539.588,844.3
539.724,844.1
539.86,844.9
539.996,845.1
540.132,842.9
540.268,841.0
540.403,841.6
540.539,841.9
540.675,842.7
540.811,843.1
540.947,842.2
541.083,842.3
541.219,842.8
541.355,841.8
541.49,842.1
541.626,841.2
541.762,841.2
541.898,841.0
542.034,841.2
542.17,841.7
542.305,842.1
542.441,840.7
542.577,844.0
542.713,840.4
542.848,840.2
542.984,842.9
543.12,842.5
543.256,840.2
543.391,838.1
543.527,840.4
543.663,839.6
543.799,839.1
543.934,839.7
544.07,838.2
544.206,841.1
544.341,841.5
544.477,839.9
544.613,839.8
544.748,838.4
544.884,841.0
545.02,838.8
545.155,840.0
545.291,839.7
545.427,838.8
545.562,839.2
545.698,840.3
545.833,841.3
545.969,839.6
546.105,839.9
546.24,840.3
546.376,839.0
546.511,839.6
546.647,838.3
546.782,837.4
546.918,838.0
547.053,839.2
547.189,839.9
547.325,839.8
547.46,838.5
547.596,840.6
547.731,839.2
547.867,839.4
548.002,839.0
548.137,838.7
548.273,837.2
548.408,839.8
548.544,838.7
548.679,838.0
548.815,838.6
548.95,840.4
549.086,838.2
549.221,837.5
549.356,839.5
549.492,838.7
549.627,838.7
549.763,839.7
549.898,838.7
550.033,839.3
550.169,837.2
550.304,840.1
550.439,837.8
550.575,838.8
550.71,839.3
550.845,839.0
550.981,838.3
551.116,840.5
551.251,840.5
551.387,839.2
551.522,839.0
551.657,838.8
551.793,839.3
551.928,839.0
552.063,839.2
552.198,841.1
552.334,839.0
552.469,838.3
552.604,838.8
552.739,839.9
552.874,840.1
553.01,841.1
553.145,839.6
553.28,843.3
553.415,843.4
553.55,843.3
553.686,840.9
553.821,841.6
553.956,844.4
554.091,844.8
554.226,843.4
554.361,843.3
554.497,843.3
554.632,843.7
554.767,843.7
554.902,843.6
555.037,842.2
555.172,843.7
555.307,844.8
555.442,841.4
555.577,845.3
555.712,844.6
555.848,845.6
555.983,842.6
556.118,846.8
556.253,846.9
556.388,846.0
556.523,846.7
556.658,845.6
556.793,847.0
556.928,847.0
557.063,846.5
557.198,849.7
557.333,850.4
557.468,848.6
557.603,848.7
557.738,850.3
557.873,850.9
558.008,853.5
558.142,850.6
558.277,852.8
558.412,852.1
558.547,854.5
558.682,853.3
558.817,852.3
558.952,852.4
559.087,850.7
559.222,849.6
559.357,849.8
559.492,852.8
559.626,849.7
559.761,851.0
559.896,850.7
560.031,849.7
560.166,848.7
560.301,848.0
560.435,848.6
560.57,849.3
560.705,849.2
560.84,850.4
560.975,848.0
561.109,848.3
561.244,849.1
561.379,850.9
561.514,848.2
561.649,851.5
561.783,848.8
561.918,852.1
562.053,852.3
562.188,854.1
562.322,854.1
562.457,853.6
562.592,852.9
562.726,856.5
562.861,856.3
562.996,854.7
563.131,855.7
563.265,860.7
563.4,857.5
563.535,862.5
563.669,869.0
563.804,885.7
563.939,955.5
564.073,1039.8
564.208,982.7
564.342,899.0
564.477,884.5
564.612,878.8
564.746,881.2
564.881,876.0
565.015,876.2
565.15,872.4
565.285,869.6
565.419,869.2
565.554,872.0
565.688,876.3
565.823,890.5
565.957,928.5
566.092,1061.5
566.227,1206.0
566.361,1060.4
566.496,913.3
566.63,875.6
566.765,866.7
566.899,864.8
567.034,859.7
567.168,860.7
567.303,860.9
567.437,866.3
567.572,868.3
567.706,857.4
567.84,854.1
567.975,855.1
568.109,853.0
568.244,852.6
568.378,856.5
568.513,853.5
568.647,855.1
568.781,854.1
568.916,856.4
569.05,856.9
569.185,856.1
569.319,855.4
569.453,856.3
569.588,856.9
569.722,854.9
569.857,856.5
569.991,855.9
570.125,856.4
570.26,860.6
570.394,859.6
570.528,864.2
570.663,863.1
570.797,866.4
570.931,867.1
571.065,869.2
571.2,872.3
571.334,898.1
571.468,1029.1
571.603,1172.0
571.737,1013.0
571.871,910.3
572.005,885.7
572.14,880.7
572.274,871.7
572.408,869.6
572.542,863.3
572.677,860.9
572.811,858.3
572.945,858.4
573.079,856.3
573.213,856.2
573.348,857.6
573.482,858.1
573.616,858.9
573.75,860.3
573.884,869.1
574.018,872.0
574.153,867.8
574.287,861.9
574.421,858.4
574.555,856.2
574.689,852.7
574.823,857.3
574.957,857.7
575.092,862.6
575.226,869.7
575.36,903.2
575.494,1019.6
575.628,1075.1
575.762,973.8
575.896,929.5
576.03,928.2
576.164,951.9
576.298,981.7
576.432,980.9
576.566,950.7
576.7,936.9
576.834,935.4
576.968,936.4
577.103,932.2
577.237,920.8
577.371,905.0
577.505,888.0
577.639,878.2
577.773,873.8
577.907,865.8
578.04,866.6
578.174,865.8
578.308,863.9
578.442,864.9
578.576,866.2
578.71,862.0
578.844,862.0
578.978,865.0
579.112,860.1
579.246,862.4
579.38,863.4
579.514,864.2
579.648,864.3
579.782,862.7
579.916,863.4
580.049,863.5
580.183,862.4
580.317,863.6
580.451,864.7
580.585,865.2
580.719,866.5
580.853,865.5
580.986,865.3
581.12,868.4
581.254,866.6
581.388,869.1
581.522,871.8
581.656,866.4
581.789,869.6
581.923,869.5
582.057,868.2
582.191,868.5
582.325,869.5
582.458,870.7
582.592,872.6
582.726,871.0
582.86,873.7
582.993,873.9
583.127,874.0
583.261,874.4
583.395,876.4
583.528,875.2
583.662,874.3
583.796,876.5
583.93,878.3
584.063,879.1
584.197,876.0
584.331,877.1
584.464,879.1
584.598,878.8
584.732,877.3
584.865,882.1
584.999,881.5
585.133,881.8
585.266,881.5
585.4,882.1
585.534,885.6
585.667,882.4
585.801,883.8
585.935,883.3
586.068,885.7
586.202,883.3
586.336,887.5
586.469,886.9
586.603,887.1
586.736,889.3
586.87,884.8
587.004,891.0
587.137,889.1
587.271,890.0
587.404,891.6
587.538,892.4
587.671,891.2
587.805,891.6
587.938,894.5
588.072,891.4
588.206,890.9
588.339,892.8
588.473,891.9
588.606,892.6
588.74,894.1
588.873,897.0
589.007,895.1
589.14,890.0
589.274,888.7
589.407,894.8
589.541,893.7
589.674,894.6
589.808,893.2
589.941,895.0
590.074,892.5
590.208,895.4
590.341,894.3
590.475,893.2
590.608,895.3
590.742,894.7
590.875,889.7
591.009,897.6
591.142,893.3
591.275,893.9
591.409,895.3
591.542,897.1
591.676,896.9
591.809,892.5
591.942,893.5
592.076,892.0
592.209,892.8
592.342,892.9
592.476,891.0
592.609,892.9
592.743,893.3
592.876,893.2
593.009,890.4
593.143,891.1
593.276,891.8
593.409,893.7
593.543,891.4
593.676,891.7
593.809,886.5
593.942,890.5
594.076,889.0
594.209,888.4
594.342,888.6
594.476,889.3
594.609,891.2
594.742,889.7
594.875,890.0
595.009,887.5
595.142,889.1
595.275,890.3
595.408,891.6
595.542,889.8
595.675,888.1
595.808,890.0
595.941,889.8
596.075,885.6
596.208,888.3
596.341,889.9
596.474,890.2
596.607,891.1
596.741,885.5
596.874,890.0
597.007,889.8
597.14,889.2
597.273,889.1
597.406,890.3
597.54,889.9
597.673,887.2
597.806,889.4
597.939,889.5
598.072,890.7
598.205,888.2
598.338,893.6
598.472,890.8
598.605,890.1
598.738,891.8
598.871,889.1
599.004,889.7
599.137,889.5
599.27,888.7
599.403,892.3
599.536,892.7
599.67,893.3
599.803,895.8
599.936,894.3
600.069,894.2
600.202,892.3
600.335,890.8
600.468,890.0
600.601,890.6
600.734,889.5
600.867,891.8
601.0,892.3
601.133,891.4
601.266,889.3
601.399,891.6
601.532,893.1
601.665,890.5
601.798,892.7
601.931,893.3
602.064,892.6
602.197,895.1
602.33,890.8
602.463,888.6
602.596,889.2
602.729,893.7
602.862,892.7
602.995,893.1
603.128,893.9
603.261,890.5
603.394,891.2
603.527,889.8
603.66,893.5
603.793,891.7
603.925,892.0
604.058,893.0
604.191,896.6
604.324,894.9
604.457,893.8
604.59,890.0
604.723,890.6
604.856,893.9
604.989,891.7
605.122,890.3
605.254,891.9
605.387,888.1
605.52,890.1
605.653,888.6
605.786,887.9
605.919,887.5
606.052,887.4
606.184,886.7
606.317,890.0
606.45,886.4
606.583,889.3
606.716,887.9
606.849,888.4
606.981,890.9
607.114,886.4
607.247,887.4
607.38,888.4
607.513,888.7
607.645,887.1
607.778,889.1
607.911,888.5
608.044,888.0
608.177,887.9
608.309,888.0
608.442,888.5
608.575,886.6
608.708,890.1
608.84,889.2
608.973,886.4
609.106,887.3
609.239,888.0
609.371,892.0
609.504,885.1
609.637,887.4
609.769,889.2
609.902,890.1
610.035,890.2
610.168,887.3
610.3,887.3
610.433,888.0
610.566,890.8
610.698,891.7
610.831,885.7
610.964,892.5
611.096,896.5
611.229,895.5
611.362,891.3
611.494,889.6
611.627,892.5
611.76,886.2
611.892,888.1
612.025,886.3
612.158,885.5
612.29,887.0
612.423,885.9
612.556,886.1
612.688,886.7
612.821,886.8
612.953,884.8
613.086,886.6
613.219,883.6
613.351,887.3
613.484,886.9
613.616,885.9
613.749,885.6
613.882,884.5
614.014,882.1
614.147,884.0
614.279,883.1
614.412,884.8
614.544,886.6
614.677,882.2
614.809,880.3
614.942,883.4
615.075,883.8
615.207,883.5
615.34,883.0
615.472,884.8
615.605,880.1
615.737,879.5
615.87,882.2
616.002,880.4
616.135,884.4
616.267,882.3
616.4,881.2
616.532,880.7
616.665,882.1
616.797,882.8
616.93,885.3
617.062,883.5
617.195,884.8
617.327,889.6
617.46,889.5
617.592,886.0
617.725,886.1
617.857,887.5
617.989,885.1
618.122,885.9
618.254,887.4
618.387,885.0
618.519,884.9
618.652,883.3
618.784,886.1
618.917,883.9
619.049,880.5
619.181,885.3
619.314,888.5
619.446,887.0
619.579,888.6
619.711,887.3
619.843,886.8
619.976,888.8
620.108,885.3
620.241,885.9
620.373,885.5
620.505,888.7
620.638,885.2
620.77,886.9
620.902,888.1
621.035,890.0
621.167,891.7
621.299,892.1
621.432,893.1
621.564,898.1
621.696,898.5
621.829,901.6
621.961,910.2
622.093,917.1
622.226,919.4
622.358,921.7
622.49,918.5
622.623,912.1
622.755,904.6
622.887,900.6
623.02,894.2
623.152,890.5
623.284,890.3
623.416,885.9
623.549,887.3
623.681,885.4
623.813,884.3
623.946,883.6
624.078,880.3
624.21,882.5
624.342,882.7
624.475,883.5
624.607,883.0
624.739,881.5
624.871,883.6
625.004,884.2
625.136,883.8
625.268,885.6
625.4,885.1
625.533,887.4
625.665,890.2
625.797,895.5
625.929,893.4
626.061,900.5
626.194,906.6
626.326,915.5
626.458,932.8
626.59,961.9
626.722,1018.8
626.855,1112.2
626.987,1250.0
627.119,1433.1
627.251,1553.6
627.383,1516.7
627.516,1434.6
627.648,1338.0
627.78,1291.2
627.912,1243.2
628.044,1221.2
628.176,1226.5
628.308,1261.2
628.441,1380.8
628.573,1561.2
628.705,1551.3
628.837,1390.1
628.969,1318.0
629.101,1284.0
629.233,1265.0
629.366,1241.9
629.498,1215.5
629.63,1181.1
629.762,1153.2
629.894,1124.8
630.026,1112.8
630.158,1108.8
630.29,1105.4
630.422,1107.9
630.554,1094.9
630.687,1076.6
630.819,1043.2
630.951,1007.8
631.083,972.9
631.215,943.4
631.347,924.8
631.479,918.2
631.611,907.3
631.743,899.9
631.875,899.0
632.007,891.4
632.139,890.5
632.271,888.6
632.403,885.0
632.535,883.3
632.667,881.8
632.799,881.5
632.931,881.1
633.063,879.9
633.195,879.9
633.328,875.9
633.46,881.3
633.592,877.7
633.724,877.0
633.856,875.2
633.988,874.4
634.12,872.8
634.252,873.3
634.384,872.6
634.516,871.8
634.647,870.8
634.779,869.9
634.911,872.1
635.043,872.4
635.175,871.5
635.307,871.1
635.439,871.1
635.571,867.3
635.703,870.2
635.835,873.3
635.967,869.9
636.099,869.5
636.231,869.4
636.363,869.4
636.495,870.0
636.627,869.7
636.759,867.6
636.891,870.6
637.023,869.0
637.155,867.9
637.286,867.9
637.418,867.2
637.55,866.0
637.682,866.0
637.814,865.5
637.946,864.9
638.078,866.8
638.21,867.1
638.342,865.1
638.474,865.1
638.605,866.2
638.737,867.5
638.869,863.8
639.001,865.2
639.133,863.6
639.265,863.9
639.397,863.3
639.529,862.6
639.66,863.9
639.792,865.8
639.924,863.4
640.056,865.2
640.188,863.0
640.32,865.2
640.452,861.7
640.583,861.5
640.715,864.8
640.847,862.6
640.979,865.7
641.111,866.6
641.243,864.4
641.374,863.7
641.506,860.8
641.638,864.2
641.77,864.3
641.902,861.4
642.033,863.2
642.165,862.6
642.297,862.0
642.429,861.2
642.561,862.1
642.692,861.2
642.824,863.0
642.956,863.1
643.088,863.3
643.22,862.4
643.351,862.7
643.483,862.8
643.615,861.7
643.747,863.8
643.878,861.1
644.01,861.0
644.142,860.8
644.274,861.1
644.405,863.5
644.537,860.1
644.669,861.1
644.801,860.4
644.932,859.6
645.064,861.4
645.196,862.1
645.328,861.3
645.459,861.0
645.591,859.2
645.723,858.5
645.854,860.2
645.986,860.3
646.118,859.3
646.25,861.3
646.381,858.5
646.513,858.8
646.645,862.5
646.776,858.0
646.908,857.6
647.04,861.1
647.172,862.0
647.303,858.7
647.435,859.3
647.567,860.0
647.698,860.8
647.83,859.3
647.962,858.5
648.093,857.7
648.225,857.3
648.357,857.0
648.488,859.1
648.62,859.0
648.752,858.3
648.883,860.7
649.015,856.5
649.147,858.3
649.278,858.2
649.41,856.6
649.542,859.1
649.673,859.5
649.805,858.2
649.937,858.3
650.068,858.9
650.2,857.8
650.331,857.5
650.463,856.0
650.595,855.8
650.726,856.7
650.858,855.9
650.99,857.9
651.121,854.5
651.253,856.5
651.384,856.0
651.516,859.0
651.648,856.6
651.779,856.4
651.911,854.7
652.042,857.0
652.174,856.8
652.306,857.2
652.437,856.7
652.569,856.1
652.7,856.8
652.832,857.6
652.963,855.4
653.095,858.3
653.227,856.4
653.358,856.8
653.49,855.5
653.621,855.1
653.753,858.3
653.884,858.5
654.016,856.8
654.148,856.4
654.279,857.2
654.411,856.3
654.542,856.5
654.674,854.8
654.805,857.9
654.937,858.0
655.068,857.3
655.2,857.1
655.331,855.1
655.463,855.7
655.595,857.2
655.726,857.9
655.858,855.9
655.989,854.6
656.121,853.9
656.252,858.1
656.384,857.4
656.515,854.9
656.647,856.5
656.778,856.3
656.91,855.5
657.041,855.6
657.173,855.7
657.304,855.2
657.436,852.2
657.567,857.7
657.699,854.5
657.83,856.9
657.962,857.6
658.093,853.9
658.225,856.3
658.356,855.4
658.488,855.2
658.619,855.1
658.751,854.3
658.882,854.8
659.013,853.1
659.145,857.9
659.276,857.3
659.408,853.0
659.539,856.8
659.671,854.1
659.802,857.5
659.934,856.8
660.065,856.2
660.197,857.0
660.328,854.8
660.459,854.7
660.591,855.6
660.722,856.6
660.854,853.7
660.985,856.4
661.117,853.1
661.248,854.9
661.38,856.5
661.511,855.4
661.642,853.8
661.774,853.2
661.905,855.1
662.037,854.7
662.168,852.1
662.299,853.3
662.431,854.1
662.562,855.9
662.694,856.1
662.825,854.0
662.957,853.1
663.088,852.2