File: spectra/VLFR_09-PET_bio_Raman_180125c7.csv
nm,Intensity
528.635,1851.3
528.803,1849.6
528.972,1850.4
529.14,1848.7
529.308,1849.2
529.477,1849.8
529.645,1852.0
529.814,1853.6
529.982,1851.3
530.151,1850.7
530.319,1850.1
530.487,1848.9
530.656,1850.6
530.824,1854.7
530.993,1853.5
531.161,1856.6
531.329,1856.1
531.498,1864.0
531.666,1889.8
531.835,2471.5
532.003,4940.2
532.171,4226.5
532.34,2032.0
532.508,1856.6
532.676,1857.8
532.845,1861.9
533.013,1861.6
533.181,1874.4
533.35,1902.4
533.518,2187.1
533.686,3927.9
533.854,7252.7
534.023,9284.6
534.191,9820.5
534.359,9181.6
534.528,8654.6
534.696,8392.1
534.864,8229.1
535.032,7848.4
535.201,7411.7
535.369,7208.9
535.537,7107.4
535.705,6834.4
535.874,6507.7
536.042,6359.3
536.21,6150.6
536.378,6074.7
536.546,5933.1
536.715,5942.7
536.883,5903.4
537.051,5820.9
537.219,5791.4
537.387,5854.2
537.556,5769.6
537.724,5791.6
537.892,5857.0
538.06,5831.9
538.228,5776.3
538.396,5872.2
538.565,5836.1
538.733,5895.1
538.901,5884.8
539.069,5967.3
539.237,5905.4
539.405,6061.3
539.573,6318.6
539.741,6261.7
539.909,6213.3
540.077,6517.2
540.246,6287.7
540.414,6225.7
540.582,6255.4
540.75,6298.7
540.918,6315.8
541.086,6154.8
541.254,6131.4
541.422,6144.2
541.59,6157.6
541.758,6199.8
541.926,6143.9
542.094,6293.4
542.262,6314.7
542.43,6255.1
542.598,6360.0
542.766,6445.2
542.934,6530.7
543.102,6340.6
543.27,6382.3
543.438,6401.1
543.606,6486.1
543.774,6542.7
543.942,6601.5
544.11,6532.1
544.278,6555.1
544.445,6625.5
544.613,6643.1
544.781,6641.6
544.949,6651.7
545.117,6741.5
545.285,6675.0
545.453,6705.3
545.621,6768.8
545.789,6758.8
545.957,6792.1
546.124,6873.4
546.292,6981.9
546.46,6857.8
546.628,6896.8
546.796,6866.1
546.964,6793.8
547.131,7042.3
547.299,7013.7
547.467,7094.6
547.635,7082.9
547.803,7037.4
547.97,7195.2
548.138,7087.9
548.306,7312.8
548.474,7283.8
548.642,7225.2
548.809,7264.4
548.977,7376.9
549.145,7154.2
549.313,7237.6
549.48,7393.4
549.648,7316.8
549.816,7203.7
549.983,7440.3
550.151,7294.9
550.319,7642.2
550.487,8435.6
550.654,9022.5
550.822,8245.7
550.99,7842.5
551.157,7600.0
551.325,7687.1
551.493,7767.3
551.66,7765.5
551.828,7569.2
551.996,7806.1
552.163,7722.7
552.331,7752.6
552.499,7950.6
552.666,8098.9
552.834,8139.2
553.001,8278.3
553.169,8040.0
553.337,7808.5
553.504,7940.5
553.672,7944.9
553.839,7853.9
554.007,8016.2
554.174,8081.7
554.342,8029.6
554.509,8096.5
554.677,8197.0
554.845,8184.6
555.012,8130.3
555.18,8499.1
555.347,8428.8
555.515,8715.2
555.682,8746.3
555.85,8852.4
556.017,8647.7
556.185,8738.3
556.352,8719.3
556.52,9004.2
556.687,8840.7
556.854,9011.4
557.022,9230.3
557.189,9752.6
557.357,10425.4
557.524,11583.5
557.692,11534.1
557.859,10269.5
558.026,9463.1
558.194,9337.9
558.361,9343.1
558.529,9276.3
558.696,9267.3
558.863,9285.8
559.031,9062.8
559.198,9032.5
559.365,9075.4
559.533,8858.4
559.7,9071.5
559.867,9136.0
560.035,9137.3
560.202,8959.4
560.369,9044.1
560.537,9023.4
560.704,9371.8
560.871,9198.0
561.039,9332.9
561.206,9535.4
561.373,9494.4
561.54,9498.8
561.708,9725.6
561.875,10028.7
562.042,10329.4
562.209,10109.4
562.377,9834.6
562.544,9623.5
562.711,9710.7
562.878,9799.2
563.046,9824.7
563.213,9784.0
563.38,9800.7
563.547,9710.3
563.714,9823.2
563.881,9747.2
564.049,9800.1
564.216,9985.5
564.383,9868.9
564.55,10452.3
564.717,10843.3
564.884,11205.7
565.052,11693.8
565.219,11840.6
565.386,11385.1
565.553,11544.7
565.72,11320.2
565.887,11516.1
566.054,11054.4
566.221,10841.0
566.388,10622.9
566.555,10359.8
566.722,10403.2
566.889,10192.6
567.056,10244.1
567.224,10269.0
567.391,10529.1
567.558,10792.0
567.725,11148.7
567.892,10961.3
568.059,11093.2
568.226,10675.0
568.393,10510.0
568.56,10605.8
568.727,10553.2
568.893,10381.6
569.06,10641.8
569.227,10749.3
569.394,10655.9
569.561,10814.9
569.728,10838.8
569.895,10900.2
570.062,10970.6
570.229,11345.0
570.396,11460.4
570.563,11867.1
570.73,12498.3
570.897,13514.6
571.063,14256.1
571.23,15097.8
571.397,15048.5
571.564,14457.8
571.731,13219.6
571.898,12870.7
572.064,12425.6
572.231,12053.4
572.398,11627.1
572.565,11579.7
572.732,11495.4
572.899,11259.6
573.065,11252.0
573.232,11410.5
573.399,11216.6
573.566,11381.6
573.732,11036.6
573.899,11373.2
574.066,11530.5
574.233,11368.4
574.399,11240.6
574.566,11436.3
574.733,11501.3
574.9,11482.1
575.066,11769.0
575.233,11965.5
575.4,12336.4
575.566,12238.9
575.733,11996.7
575.9,11711.9
576.066,11917.3
576.233,12032.8
576.4,11679.1
576.566,12236.0
576.733,12134.8
576.899,12092.7
577.066,12164.1
577.233,11855.0
577.399,11935.4
577.566,11771.9
577.732,11865.0
577.899,11714.1
578.066,11788.6
578.232,11511.1
578.399,11820.8
578.565,11767.7
578.732,11810.2
578.898,11526.6
579.065,11896.6
579.231,11972.3
579.398,12020.1
579.564,11842.7
579.731,11786.1
579.897,11870.5
580.064,12188.8
580.23,11997.0
580.397,12154.6
580.563,12182.5
580.73,12361.7
580.896,12499.6
581.063,12432.7
581.229,12753.4
581.396,13052.3
581.562,13596.5
581.728,16018.4
581.895,20704.0
582.061,26669.7
582.228,25670.4
582.394,19172.5
582.56,14514.5
582.727,13147.9
582.893,12769.3
583.059,12414.8
583.226,12362.5
583.392,12432.9
583.558,12379.1
583.725,12448.3
583.891,12573.6
584.057,12377.8
584.224,12462.9
584.39,12512.9
584.556,12491.3
584.722,12582.3
584.889,12690.2
585.055,13012.6
585.221,13023.6
585.387,13947.0
585.554,15476.7
585.72,17785.1
585.886,19957.1
586.052,20529.8
586.219,18513.1
586.385,16954.5
586.551,15710.5
586.717,13974.4
586.883,13246.5
587.049,13081.6
587.216,12685.9
587.382,13003.0
587.548,12822.6
587.714,12815.8
587.88,13022.3
588.046,12799.0
588.212,12589.9
588.379,12921.3
588.545,12663.3
588.711,12678.4
588.877,12817.4
589.043,12666.2
589.209,12629.7
589.375,12589.3
589.541,12773.5
589.707,12554.2
589.873,12604.2
590.039,12676.0
590.205,12854.7
590.371,12640.6
590.537,12684.3
590.703,12778.1
590.869,12700.3
591.035,12704.3
591.201,12904.4
591.367,12736.5
591.533,12852.0
591.699,12789.7
591.865,12858.2
592.031,12810.0
592.197,12757.9
592.363,12760.0
592.529,13042.1
592.695,12670.3
592.86,12807.7
593.026,13031.9
593.192,12994.0
593.358,12775.0
593.524,13016.4
593.69,12837.0
593.856,12825.8
594.022,12918.4
594.187,12803.2
594.353,12860.6
594.519,13049.3
594.685,12859.0
594.851,13087.5
595.016,13111.9
595.182,12905.5
595.348,13114.0
595.514,13182.2
595.679,13257.3
595.845,13095.2
596.011,12954.9
596.177,13377.6
596.342,13046.6
596.508,13173.1
596.674,13060.3
596.84,13180.1
597.005,13484.3
597.171,13136.1
597.337,13365.2
597.502,13240.2
597.668,13167.9
597.834,13271.4
597.999,13147.9
598.165,13320.2
598.331,13422.9
598.496,13216.6
598.662,13370.8
598.827,13196.5
598.993,13554.7
599.159,13450.6
599.324,13192.4
599.49,13424.2
599.655,13370.8
599.821,13400.2
599.987,13520.9
600.152,13678.5
600.318,13477.2
600.483,13376.8
600.649,13447.8
600.814,13225.9
600.98,13978.3
601.145,13611.2
601.311,13541.6
601.476,13525.0
601.642,13663.6
601.807,13653.2
601.973,13619.5
602.138,13585.0
602.303,13426.7
602.469,13735.9
602.634,13668.7
602.8,13817.9
602.965,13642.4
603.13,13931.8
603.296,13731.4
603.461,14063.7
603.627,13785.1
603.792,13719.6
603.957,13674.0
604.123,14006.9
604.288,13947.1
604.453,13820.8
604.619,13958.2
604.784,13992.5
604.949,13930.6
605.115,13799.8
605.28,13597.4
605.445,14188.0
605.61,13893.7
605.776,14200.2
605.941,14004.0
606.106,14130.1
606.272,13815.2
606.437,13808.6
606.602,14346.1
606.767,14498.6
606.932,14153.1
607.098,13952.6
607.263,14118.4
607.428,14442.7
607.593,14206.5
607.758,14365.3
607.923,14315.4
608.089,14362.2
608.254,14562.3
608.419,14386.7
608.584,14456.2
608.749,14279.4
608.914,14248.2
609.079,14510.0
609.244,14789.3
609.41,14217.9
609.575,14569.4
609.74,14592.6
609.905,14788.2
610.07,14584.2
610.235,14659.8
610.4,14774.3
610.565,15115.2
610.73,14706.9
610.895,14720.6
611.06,15127.7
611.225,14706.2
611.39,14791.1
611.555,15099.2
611.72,15071.2
611.885,14956.4
612.05,14935.2
612.215,14719.5
612.38,15595.5
612.545,15107.1
612.709,14977.5
612.874,15201.3
613.039,15234.9
613.204,15423.2
613.369,15104.6
613.534,15273.4
613.699,15536.6
613.864,15486.4
614.028,15388.3
614.193,15661.3
614.358,15647.5
614.523,15619.2
614.688,15681.5
614.853,15322.0
615.017,15655.2
615.182,15713.1
615.347,16076.2
615.512,15887.2
615.676,15774.3
615.841,15836.2
616.006,16167.0
616.171,16220.2
616.335,15821.4
616.5,16212.0
616.665,16083.1
616.829,16156.3
616.994,16386.3
617.159,16230.6
617.324,16154.4
617.488,16406.0
617.653,16485.0
617.818,16663.5
617.982,16594.0
618.147,16354.5
618.311,16405.5
618.476,17065.0
618.641,16681.9
618.805,17021.5
618.97,16644.2
619.134,16577.8
619.299,17132.7
619.463,17154.5
619.628,17107.8
619.793,16744.1
619.957,16975.9
620.122,17194.0
620.286,17217.6
620.451,17047.3
620.615,17240.4
620.78,17441.5
620.944,17236.6
621.109,17421.7
621.273,17051.5
621.438,17401.6
621.602,17648.0
621.766,17850.0
621.931,16997.7
622.095,17457.7
622.26,17589.8
622.424,17411.4
622.588,18029.1
622.753,18129.2
622.917,17450.2
623.082,18044.7
623.246,18043.6
623.41,17778.9
623.575,18067.2
623.739,17966.9
623.903,18375.3
624.068,17853.6
624.232,18423.7
624.396,18751.3
624.56,18308.8
624.725,18324.6
624.889,18402.4
625.053,18926.0
625.218,18937.1
625.382,18289.3
625.546,18674.3
625.71,18968.2
625.874,18652.5
626.039,18672.7
626.203,18869.0
626.367,18693.2
626.531,18529.2
626.695,18723.2
626.86,19012.7
627.024,19105.6
627.188,18919.2
627.352,18647.0
627.516,19284.0
627.68,19208.9
627.844,19021.1
628.008,19325.8
628.172,19434.6
628.337,19215.6
628.501,19455.0
628.665,19964.5
628.829,19634.4
628.993,19881.7
629.157,20065.4
629.321,20158.7
629.485,20060.2
629.649,20795.6
629.813,19980.9
629.977,19603.8
630.141,19677.5
630.305,20432.1
630.469,20226.6
630.633,19603.7
630.797,20398.4
630.961,20862.2
631.124,20657.1
631.288,20777.2
631.452,21034.8
631.616,20860.5
631.78,21250.3
631.944,21748.2
632.108,21801.4
632.272,21389.5
632.436,21293.8
632.599,21559.8
632.763,21245.4
632.927,21146.4
633.091,21916.3
633.255,21385.1
633.418,21313.5
633.582,21284.2
633.746,21634.7
633.91,21196.4
634.074,21190.6
634.237,21452.6
634.401,20745.0
634.565,21151.6
634.728,21565.7
634.892,21014.3
635.056,21219.3
635.22,21133.6
635.383,21314.2
635.547,21084.8
635.711,20949.9
635.874,21984.5
636.038,22746.0
636.202,22357.4
636.365,23459.3
636.529,23432.4
636.692,23157.6
636.856,22408.5
637.02,22249.3
637.183,21598.3
637.347,21614.1
637.51,21725.8
637.674,21884.7
637.837,21123.3
638.001,21413.8
638.164,21367.7
638.328,21409.1
638.491,21412.1
638.655,21082.9
638.818,21867.8
638.982,21415.0
639.145,21152.0
639.309,21519.0
639.472,21668.4
639.636,21468.2
639.799,21468.2
639.963,21723.1
640.126,21262.9
640.289,21395.0
640.453,21302.6
640.616,21825.9
640.78,21179.0
640.943,20941.8
641.106,21138.3
641.27,21932.4
641.433,21644.9
641.596,21149.8
641.76,21241.5
641.923,21772.5
642.086,21656.6
642.249,21312.9
642.413,21689.7
642.576,22168.1
642.739,21305.4
642.903,21436.0
643.066,21633.9
643.229,20971.3
643.392,21302.5
643.555,21950.1
643.719,20517.4
643.882,21702.8
644.045,21636.2
644.208,21813.9
644.371,21691.8
644.534,20933.8
644.698,21251.6
644.861,21910.2
645.024,21476.0
645.187,21232.9
645.35,21681.4
645.513,21892.1
645.676,21113.5
645.839,21274.2
646.002,21585.1
646.165,21433.3
646.329,21457.3
646.492,21592.9
646.655,21487.4
646.818,21444.5
646.981,21126.6
647.144,20725.4
647.307,21948.8
647.47,21941.8
647.633,20495.4
647.796,21183.5
647.958,21830.8
648.121,21232.4
648.284,20706.0
648.447,20570.5
648.61,21364.4
648.773,20792.3
648.936,20646.4
649.099,20903.0
649.262,20619.9
649.425,20509.4
649.587,21119.2
649.75,20875.9
649.913,20089.0
650.076,20442.1
650.239,20606.9
650.402,20627.1
650.564,20920.4
650.727,20885.5
650.89,20475.0
651.053,19764.5
651.215,20255.7
651.378,20461.4
651.541,20143.7
651.704,19877.6
651.866,20255.9
652.029,21092.0
652.192,20440.6
652.354,20588.8
652.517,19817.6
652.68,20576.2
652.842,19904.0
653.005,20045.3
653.168,20061.0
653.33,20122.0
653.493,19263.6
653.656,20073.5
653.818,20026.6
653.981,19485.4
654.143,19341.1
654.306,19644.2
654.468,19393.8
654.631,19941.2
654.794,19405.8
654.956,19550.9
655.119,18910.6
655.281,19920.0
655.444,19745.3
655.606,18901.5
655.769,19629.9
655.931,19653.8
656.093,19305.1
656.256,18613.6
656.418,18735.8
656.581,19165.3
656.743,19173.6
656.906,19157.2
657.068,19224.1
657.23,18864.2
657.393,18262.3
657.555,18543.6
657.718,18691.8
657.88,18233.6
658.042,18132.5
658.205,18352.8
658.367,18156.3
658.529,18008.0
658.691,17700.6
658.854,18241.1
659.016,18164.0
659.178,17470.1
659.341,17924.2
659.503,17770.5
659.665,17841.4
659.827,17492.3
659.989,17618.8
660.152,17864.9
660.314,17330.4
660.476,17503.7
660.638,17657.5
660.8,16933.2
660.963,17463.1
661.044,17554.8