File: spectra/VLFR_01-LDPE_bio_Raman_944624b0.csv
nm,Intensity
528.626,1866.0
528.795,1863.8
528.963,1864.9
529.132,1866.9
529.3,1864.9
529.469,1866.8
529.637,1865.1
529.806,1864.5
529.974,1866.6
530.143,1865.0
530.311,1865.6
530.48,1865.2
530.648,1866.8
530.816,1865.2
530.985,1865.6
531.153,1870.2
531.322,1868.8
531.49,1874.6
531.658,1910.2
531.827,2507.2
531.995,3998.1
532.164,4315.4
532.332,2188.1
532.5,1872.3
532.669,1867.0
532.837,1867.9
533.006,1867.7
533.174,1866.8
533.342,1869.8
533.511,1889.8
533.679,1990.7
533.847,2218.6
534.016,2362.2
534.184,2404.2
534.352,2394.2
534.521,2373.7
534.689,2387.5
534.857,2398.0
535.025,2374.6
535.194,2389.0
535.362,2378.5
535.53,2328.1
535.699,2356.0
535.867,2312.3
536.035,2290.6
536.203,2295.5
536.372,2278.6
536.54,2265.5
536.708,2270.3
536.876,2255.8
537.044,2249.9
537.213,2288.9
537.381,2283.6
537.549,2292.0
537.717,2300.0
537.885,2297.8
538.054,2273.1
538.222,2256.3
538.39,2264.9
538.558,2269.9
538.726,2266.9
538.894,2256.5
539.063,2254.5
539.231,2238.7
539.399,2239.6
539.567,2240.5
539.735,2216.0
539.903,2246.4
540.071,2249.3
540.239,2230.9
540.408,2221.5
540.576,2232.8
540.744,2236.7
540.912,2223.8
541.08,2241.6
541.248,2228.7
541.416,2244.5
541.584,2244.0
541.752,2244.5
541.92,2236.8
542.088,2245.9
542.256,2249.7
542.424,2245.3
542.592,2256.0
542.76,2256.4
542.928,2235.5
543.096,2257.2
543.264,2240.2
543.432,2223.7
543.6,2247.2
543.768,2247.4
543.936,2264.8
544.104,2271.8
544.272,2245.2
544.44,2234.2
544.608,2220.6
544.776,2260.4
544.944,2269.6
545.112,2254.3
545.28,2258.0
545.448,2226.8
545.616,2239.6
545.784,2253.0
545.951,2261.0
546.119,2245.2
546.287,2239.7
546.455,2255.1
546.623,2265.4
546.791,2257.0
546.959,2260.1
547.127,2251.7
547.294,2245.9
547.462,2249.1
547.63,2238.9
547.798,2252.6
547.966,2262.2
548.134,2254.1
548.301,2285.1
548.469,2270.9
548.637,2260.1
548.805,2243.2
548.972,2265.6
549.14,2257.7
549.308,2268.6
549.476,2268.4
549.644,2263.5
549.811,2253.4
549.979,2259.3
550.147,2258.4
550.315,2245.2
550.482,2257.5
550.65,2246.8
550.818,2253.8
550.985,2272.7
551.153,2253.1
551.321,2260.4
551.488,2274.1
551.656,2280.1
551.824,2286.7
551.991,2275.5
552.159,2275.7
552.327,2272.5
552.494,2262.8
552.662,2259.2
552.83,2243.3
552.997,2265.9
553.165,2286.8
553.333,2292.1
553.5,2301.0
553.668,2313.1
553.835,2302.8
554.003,2318.8
554.171,2318.6
554.338,2318.7
554.506,2309.6
554.673,2323.0
554.841,2323.7
555.008,2318.9
555.176,2333.7
555.343,2318.4
555.511,2319.0
555.679,2326.8
555.846,2329.9
556.014,2336.6
556.181,2332.7
556.349,2348.4
556.516,2342.1
556.684,2338.0
556.851,2333.4
557.018,2367.3
557.186,2368.1
557.353,2358.9
557.521,2389.4
557.688,2394.7
557.856,2388.7
558.023,2389.4
558.191,2397.7
558.358,2406.0
558.525,2391.0
558.693,2379.3
558.86,2394.6
559.028,2373.9
559.195,2380.7
559.362,2374.5
559.53,2390.1
559.697,2385.3
559.864,2377.1
560.032,2353.9
560.199,2357.7
560.366,2370.8
560.534,2397.7
560.701,2404.5
560.868,2419.3
561.036,2408.1
561.203,2418.6
561.37,2385.6
561.538,2383.4
561.705,2421.4
561.872,2407.0
562.039,2440.1
562.207,2421.5
562.374,2428.4
562.541,2446.9
562.708,2457.0
562.876,2477.0
563.043,2471.1
563.21,2489.5
563.377,2508.6
563.545,2533.5
563.712,2617.7
563.879,2847.7
564.046,2995.1
564.213,2824.9
564.38,2666.0
564.548,2656.4
564.715,2647.0
564.882,2603.7
565.049,2589.9
565.216,2592.3
565.383,2584.0
565.551,2584.0
565.718,2617.6
565.885,2767.6
566.052,2997.6
566.219,3027.3
566.386,2806.3
566.553,2671.1
566.72,2591.1
566.887,2590.1
567.054,2617.8
567.221,2620.7
567.388,2634.5
567.555,2625.1
567.722,2647.8
567.889,2611.9
568.057,2635.9
568.224,2625.7
568.391,2615.8
568.558,2632.4
568.725,2650.1
568.892,2653.2
569.058,2693.8
569.225,2705.0
569.392,2718.5
569.559,2689.5
569.726,2717.4
569.893,2748.1
570.06,2745.7
570.227,2771.6
570.394,2800.5
570.561,2841.6
570.728,2823.2
570.895,2870.9
571.062,2922.8
571.229,3103.6
571.395,3509.7
571.562,3817.0
571.729,3484.7
571.896,3258.5
572.063,3182.3
572.23,3148.4
572.397,3130.1
572.563,3128.6
572.73,3122.6
572.897,3118.6
573.064,3133.9
573.231,3161.7
573.397,3212.0
573.564,3256.8
573.731,3259.7
573.898,3352.9
574.064,3365.2
574.231,3386.9
574.398,3383.7
574.565,3411.1
574.731,3485.0
574.898,3507.0
575.065,3562.1
575.232,3667.8
575.398,3858.0
575.565,4081.2
575.732,4109.2
575.898,4215.8
576.065,4510.3
576.232,4789.1
576.398,4812.1
576.565,4709.0
576.732,4697.7
576.898,4760.8
577.065,4770.3
577.232,4729.4
577.398,4733.8
577.565,4640.5
577.731,4630.1
577.898,4745.6
578.065,4775.5
578.231,4876.2
578.398,4939.2
578.564,5041.0
578.731,5079.8
578.897,5250.1
579.064,5354.4
579.23,5407.2
579.397,5553.4
579.563,5623.8
579.73,5646.9
579.896,5844.9
580.063,5930.0
580.229,6003.2
580.396,5975.8
580.562,6208.7
580.729,6258.1
580.895,6329.2
581.062,6407.4
581.228,6620.3
581.395,6521.1
581.561,6690.1
581.728,6789.4
581.894,6673.2
582.06,6941.4
582.227,7014.4
582.393,6867.1
582.56,7073.2
582.726,6967.3
582.892,7188.6
583.059,7225.8
583.225,7374.0
583.391,7298.2
583.558,7285.5
583.724,7376.5
583.89,7451.6
584.057,7488.2
584.223,7546.1
584.389,7602.6
584.556,7603.3
584.722,7623.9
584.888,7426.0
585.054,7624.1
585.221,7764.6
585.387,7667.3
585.553,7683.8
585.719,7750.3
585.886,7864.1
586.052,7739.9
586.218,7738.9
586.384,7762.2
586.55,8101.1
586.717,8019.7
586.883,8051.6
587.049,8215.3
587.215,8397.1
587.381,8245.9
587.548,8246.9
587.714,8492.5
587.88,8467.6
588.046,8740.7
588.212,8629.0
588.378,8599.5
588.544,8664.1
588.71,8862.0
588.876,8749.4
589.043,8854.0
589.209,8986.5
589.375,8751.4
589.541,9145.2
589.707,8989.2
589.873,9255.2
590.039,9204.7
590.205,9465.0
590.371,9382.7
590.537,9396.6
590.703,9781.2
590.869,9804.1
591.035,9478.5
591.201,9816.2
591.367,9944.8
591.533,9977.9
591.699,9805.7
591.865,10217.2
592.031,10128.1
592.197,10265.4
592.363,10109.0
592.529,9999.0
592.694,10263.9
592.86,10432.6
593.026,10343.9
593.192,10241.9
593.358,10302.3
593.524,10432.4
593.69,10551.5
593.856,10318.0
594.021,10539.7
594.187,10354.0
594.353,10620.1
594.519,10753.6
594.685,10818.6
594.851,10715.8
595.016,10756.3
595.182,11041.1
595.348,11071.4
595.514,10969.6
595.68,11179.9
595.845,11443.5
596.011,11292.7
596.177,11293.4
596.342,11523.5
596.508,11436.7
596.674,11718.1
596.84,11793.8
597.005,11693.8
597.171,11884.6
597.337,12072.0
597.502,11975.0
597.668,12150.7
597.834,12099.6
597.999,12139.6
598.165,12361.4
598.331,12362.1
598.496,12506.9
598.662,12571.7
598.828,12878.2
598.993,12774.3
599.159,12738.6
599.324,13111.0
599.49,12941.4
599.656,13198.8
599.821,13148.3
599.987,13154.4
600.152,13064.8
600.318,13406.9
600.483,13199.5
600.649,13212.1
600.814,13288.0
600.98,13529.1
601.145,12970.9
601.311,13123.5
601.476,13266.2
601.642,13336.3
601.807,13121.4
601.973,13152.0
602.138,13310.7
602.304,12904.4
602.469,12982.9
602.635,13102.4
602.8,12786.7
602.965,12679.7
603.131,12649.5
603.296,12374.0
603.462,12637.0
603.627,12375.7
603.792,12143.2
603.958,12521.4
604.123,11894.1
604.288,11736.8
604.454,11930.9
604.619,11618.1
604.784,11461.5
604.95,11385.6
605.115,11181.7
605.28,11122.4
605.446,11044.1
605.611,10976.9
605.776,10793.3
605.941,10675.9
606.107,10582.1
606.272,10391.7
606.437,10313.4
606.602,10419.3
606.767,10146.0
606.933,10012.9
607.098,10036.4
607.263,9747.0
607.428,9505.3
607.593,9628.0
607.759,9618.6
607.924,9364.3
608.089,9333.3
608.254,9250.0
608.419,9082.4
608.584,8972.7
608.749,8926.8
608.915,9026.4
609.08,8836.0
609.245,8600.8
609.41,8650.7
609.575,8718.6
609.74,8521.2
609.905,8398.8
610.07,8383.2
610.235,8382.8
610.4,8429.2
610.565,8326.3
610.73,8057.7
610.895,8177.0
611.06,8105.1
611.225,8058.1
611.39,8066.2
611.555,8009.5
611.72,7853.9
611.885,7798.3
612.05,7739.8
612.215,7843.9
612.38,7738.0
612.545,7701.5
612.71,7507.8
612.875,7542.4
613.04,7589.2
613.204,7367.1
613.369,7451.9
613.534,7385.1
613.699,7310.8
613.864,7368.2
614.029,7245.1
614.194,7157.2
614.358,7251.2
614.523,7136.2
614.688,7002.8
614.853,7138.9
615.018,7186.0
615.182,7022.8
615.347,6887.4
615.512,7004.4
615.677,6925.7
615.841,6831.2
616.006,6738.5
616.171,6713.9
616.336,6646.6
616.5,6594.3
616.665,6703.9
616.83,6682.7
616.994,6619.9
617.159,6500.2
617.324,6515.4
617.489,6552.6
617.653,6318.9
617.818,6552.1
617.982,6430.7
618.147,6501.8
618.312,6431.6
618.476,6403.4
618.641,6401.4
618.805,6278.8
618.97,6297.7
619.135,6313.4
619.299,6314.4
619.464,6282.2
619.628,6314.8
619.793,6235.2
619.957,6278.4
620.122,6251.6
620.286,6206.4
620.451,6243.5
620.615,6240.8
620.78,6208.3
620.944,6195.8
621.109,6101.8
621.273,6140.8
621.438,6133.0
621.602,6250.6
621.767,6352.7
621.931,6250.0
622.095,6323.3
622.26,6328.1
622.424,6248.3
622.589,6199.7
622.753,6145.9
622.917,6155.1
623.082,6046.8
623.246,6008.4
623.41,6022.2
623.575,6070.4
623.739,6025.9
623.903,5983.7
624.068,5955.5
624.232,6007.2
624.396,5892.5
624.561,6022.9
624.725,5980.7
624.889,6075.6
625.053,5972.1
625.218,6035.6
625.382,5996.9
625.546,5990.2
625.71,5997.3
625.875,6045.7
626.039,6055.6
626.203,6191.8
626.367,6299.6
626.531,6554.8
626.695,7082.8
626.86,7957.6
627.024,9087.2
627.188,9730.2
627.352,9762.6
627.516,9184.0
627.68,8648.9
627.844,8482.2
628.008,8389.2
628.172,8763.3
628.337,9456.8
628.501,10415.8
628.665,10151.2
628.829,9300.5
628.993,8879.4
629.157,8639.6
629.321,8479.0
629.485,8242.0
629.649,7983.4
629.813,7700.5
629.977,7857.4
630.141,7569.2
630.305,7535.9
630.469,7632.1
630.633,7527.5
630.797,7114.4
630.96,6718.7
631.124,6726.3
631.288,6485.8
631.452,6457.6
631.616,6413.5
631.78,6231.7
631.944,6278.0
632.108,6280.0
632.272,6266.1
632.435,6276.1
632.599,6104.0
632.763,6362.7
632.927,6298.9
633.091,6226.6
633.254,6264.1
633.418,6323.5
633.582,6318.3
633.746,6218.8
633.91,6157.8
634.073,6186.9
634.237,6323.3
634.401,6262.9
634.564,6203.2
634.728,6100.1
634.892,6283.4
635.056,6343.7
635.219,6152.2
635.383,6216.7
635.547,6155.6
635.71,6083.9
635.874,5987.7
636.038,6157.9
636.201,6076.6
636.365,6373.8
636.528,6144.7
636.692,6210.9
636.856,6173.6
637.019,6101.7
637.183,6200.1
637.346,6196.4
637.51,6179.1
637.673,6077.1
637.837,6177.9
638.0,6090.3
638.164,6317.3
638.327,6151.8
638.491,6172.7
638.654,6156.5
638.818,6095.6
638.981,6216.9
639.145,6134.0
639.308,6097.8
639.472,6157.6
639.635,6010.4
639.799,6307.2
639.962,6197.8
640.125,6192.8
640.289,6295.4
640.452,6080.4
640.616,6157.1
640.779,6158.4
640.942,6078.0
641.106,6253.1
641.269,6338.9
641.432,6171.6
641.596,6258.4
641.759,6116.3
641.922,6220.4
642.085,6228.9
642.249,6215.4
642.412,6259.0
642.575,6320.0
642.738,6261.9
642.902,6224.6
643.065,6270.9
643.228,6261.7
643.391,6336.5
643.555,6358.4
643.718,6314.8
643.881,6254.0
644.044,6279.2
644.207,6471.7
644.37,6297.6
644.534,6394.9
644.697,6248.8
644.86,6374.5
645.023,6404.5
645.186,6246.3
645.349,6345.0
645.512,6393.4
645.675,6323.8
645.838,6254.5
646.001,6350.4
646.164,6283.1
646.327,6238.8
646.49,6367.5
646.653,6373.3
646.816,6330.1
646.979,6248.6
647.142,6257.7
647.305,6437.2
647.468,6278.8
647.631,6344.9
647.794,6263.4
647.957,6174.1
648.12,6312.1
648.283,6283.3
648.446,6120.0
648.609,6161.1
648.772,6369.0
648.935,6222.9
649.098,6165.5
649.26,6117.9
649.423,6178.0
649.586,6183.4
649.749,6253.8
649.912,6215.4
650.075,6170.7
650.237,6093.9
650.4,6152.2
650.563,6178.5
650.726,6048.2
650.888,6124.8
651.051,6275.8
651.214,6125.8
651.377,6040.1
651.539,6148.3
651.702,6011.1
651.865,6124.4
652.027,6212.4
652.19,6132.0
652.353,6105.0
652.515,6116.4
652.678,6259.9
652.841,5966.3
653.003,6032.0
653.166,5990.1
653.329,6128.1
653.491,6012.8
653.654,6002.1
653.816,5999.0
653.979,6003.7
654.142,6077.4
654.304,6066.6
654.467,5945.0
654.629,5878.4
654.792,5815.1
654.954,5869.0
655.117,5880.2
655.279,5870.7
655.442,5900.6
655.604,5927.6
655.767,5797.7
655.929,5755.6
656.091,5879.5
656.254,5787.1
656.416,5719.7
656.579,5759.0
656.741,5592.1
656.904,5515.1
657.066,5546.9
657.228,5693.2
657.391,5626.0
657.553,5540.7
657.715,5529.6
657.878,5359.9
658.04,5371.8
658.202,5266.9
658.365,5431.0
658.527,5272.3
658.689,5275.8
658.851,5132.0
659.014,5166.2
659.176,5079.8
659.338,4938.8
659.5,4853.7
659.663,5056.9
659.825,4977.5
659.987,4909.4
660.149,4808.8
660.311,4925.8
660.474,4825.7
660.636,4817.5
660.798,4733.7
660.96,4678.1
661.041,4688.1