File: spectra/VLFR_09-PET_bio_Raman_247b3a10.csv
nm,Intensity
528.635,1854.4
528.803,1850.4
528.972,1854.3
529.14,1851.4
529.308,1854.5
529.477,1853.5
529.645,1851.8
529.814,1852.7
529.982,1851.0
530.151,1850.7
530.319,1854.6
530.487,1854.9
530.656,1856.7
530.824,1856.4
530.993,1856.7
531.161,1858.4
531.329,1860.5
531.498,1873.8
531.666,1915.1
531.835,2663.8
532.003,5799.5
532.171,4929.3
532.34,2049.1
532.508,1863.0
532.676,1857.4
532.845,1862.4
533.013,1863.8
533.181,1869.5
533.35,1889.5
533.518,2076.6
533.686,3321.5
533.854,5666.5
534.023,7338.9
534.191,7894.6
534.359,7573.3
534.528,7401.2
534.696,7353.2
534.864,7278.6
535.032,7163.3
535.201,7088.4
535.369,6998.4
535.537,7040.5
535.705,6875.5
535.874,6693.8
536.042,6662.5
536.21,6650.5
536.378,6598.1
536.546,6491.4
536.715,6562.2
536.883,6624.7
537.051,6685.5
537.219,6642.7
537.387,6665.1
537.556,6644.2
537.724,6759.5
537.892,6733.9
538.06,6831.8
538.228,6720.1
538.396,6960.5
538.565,6856.6
538.733,6918.2
538.901,6908.5
539.069,7049.0
539.237,7018.3
539.405,7105.8
539.573,7369.6
539.741,7261.5
539.909,7211.6
540.077,7471.6
540.246,7386.4
540.414,7339.8
540.582,7394.6
540.75,7444.0
540.918,7443.4
541.086,7495.9
541.254,7438.4
541.422,7560.9
541.59,7424.8
541.758,7565.1
541.926,7606.9
542.094,7681.5
542.262,7607.1
542.43,7701.0
542.598,7832.2
542.766,7809.8
542.934,7958.7
543.102,7713.0
543.27,7830.8
543.438,7854.3
543.606,8043.2
543.774,7977.8
543.942,8011.0
544.11,8015.0
544.278,7976.9
544.445,8289.4
544.613,8146.8
544.781,8214.6
544.949,8214.1
545.117,8308.9
545.285,8283.1
545.453,8306.7
545.621,8408.9
545.789,8332.6
545.957,8564.9
546.124,8456.1
546.292,8507.9
546.46,8507.5
546.628,8486.7
546.796,8620.3
546.964,8363.4
547.131,8626.2
547.299,8620.2
547.467,8869.6
547.635,8695.2
547.803,8662.1
547.97,8955.2
548.138,8766.1
548.306,9068.0
548.474,9046.6
548.642,9074.3
548.809,9057.5
548.977,9168.7
549.145,8889.8
549.313,9029.0
549.48,9203.5
549.648,9218.0
549.816,9094.3
549.983,9172.0
550.151,9207.8
550.319,9338.7
550.487,9758.1
550.654,10062.0
550.822,9699.8
550.99,9790.5
551.157,9527.7
551.325,9553.6
551.493,9592.9
551.66,9663.0
551.828,9572.8
551.996,9814.0
552.163,9758.2
552.331,9702.5
552.499,9741.3
552.666,9937.2
552.834,9980.0
553.001,10152.2
553.169,9864.3
553.337,9959.0
553.504,9957.2
553.672,10107.5
553.839,9848.2
554.007,10008.8
554.174,10272.0
554.342,10169.1
554.509,10211.8
554.677,10079.3
554.845,10294.0
555.012,10251.9
555.18,10603.4
555.347,10438.9
555.515,10519.6
555.682,10815.5
555.85,10897.8
556.017,10704.8
556.185,10629.4
556.352,10580.4
556.52,10917.0
556.687,10907.5
556.854,11092.0
557.022,11136.3
557.189,11434.9
557.357,11697.0
557.524,12319.9
557.692,12516.3
557.859,11889.2
558.026,11213.3
558.194,11233.6
558.361,11514.5
558.529,11361.2
558.696,11350.1
558.863,11478.5
559.031,11324.5
559.198,11270.2
559.365,11300.4
559.533,11299.8
559.7,11253.1
559.867,11272.5
560.035,11674.3
560.202,11368.9
560.369,11565.9
560.537,11492.1
560.704,11704.1
560.871,11620.7
561.039,11742.3
561.206,11950.1
561.373,11953.7
561.54,11865.0
561.708,12004.6
561.875,12334.2
562.042,12629.7
562.209,12388.6
562.377,12185.7
562.544,12032.6
562.711,12121.4
562.878,12039.0
563.046,12319.0
563.213,12368.4
563.38,12296.9
563.547,12321.0
563.714,12457.1
563.881,12308.4
564.049,12292.6
564.216,12342.5
564.383,12606.9
564.55,12830.9
564.717,13025.3
564.884,13364.3
565.052,13727.0
565.219,13767.9
565.386,13401.5
565.553,13477.5
565.72,13326.0
565.887,13691.4
566.054,13304.1
566.221,13408.7
566.388,13210.6
566.555,12961.7
566.722,13004.7
566.889,12963.8
567.056,13033.0
567.224,12954.8
567.391,13322.3
567.558,13549.5
567.725,13535.3
567.892,13425.6
568.059,13587.6
568.226,13379.7
568.393,13249.2
568.56,13611.6
568.727,13496.0
568.893,13323.0
569.06,13516.6
569.227,13588.7
569.394,13616.7
569.561,13751.6
569.728,13635.8
569.895,13846.6
570.062,13710.8
570.229,14093.4
570.396,14092.3
570.563,14372.4
570.73,14797.2
570.897,15300.5
571.063,15673.9
571.23,15830.9
571.397,16490.5
571.564,15874.7
571.731,15416.8
571.898,15292.1
572.064,14984.5
572.231,14614.9
572.398,14408.1
572.565,14578.7
572.732,14466.8
572.899,14309.0
573.065,14326.8
573.232,14611.0
573.399,14411.7
573.566,14395.9
573.732,14074.6
573.899,14557.1
574.066,14532.8
574.233,14592.8
574.399,14433.6
574.566,14501.2
574.733,14676.8
574.9,14684.0
575.066,14680.7
575.233,14973.0
575.4,15082.2
575.566,15128.8
575.733,15220.2
575.9,14903.1
576.066,15183.7
576.233,14898.6
576.4,14829.5
576.566,15610.9
576.733,15365.2
576.899,15345.2
577.066,15388.9
577.233,14845.4
577.399,15253.7
577.566,15190.4
577.732,15241.7
577.899,15000.4
578.066,15108.3
578.232,14844.6
578.399,15237.0
578.565,15110.4
578.732,15165.3
578.898,14908.0
579.065,15725.2
579.231,15538.9
579.398,15288.3
579.564,15155.0
579.731,15284.9
579.897,15456.7
580.064,15764.7
580.23,15541.5
580.397,15781.4
580.563,15546.3
580.73,15884.3
580.896,16178.5
581.063,15826.8
581.229,16204.4
581.396,16213.0
581.562,16794.7
581.728,18011.7
581.895,21024.2
582.061,24366.3
582.228,23864.0
582.394,20016.4
582.56,17088.3
582.727,16290.3
582.893,16174.2
583.059,15973.9
583.226,15874.1
583.392,16011.3
583.558,15951.4
583.725,16334.1
583.891,16154.9
584.057,16239.3
584.224,16017.0
584.39,16103.3
584.556,16473.2
584.722,16051.3
584.889,16074.3
585.055,16388.0
585.221,16427.0
585.387,17342.8
585.554,17976.2
585.72,19487.6
585.886,20738.4
586.052,21103.4
586.219,19987.3
586.385,18857.2
586.551,18307.9
586.717,17214.8
586.883,16532.2
587.049,16716.4
587.216,16207.8
587.382,16932.2
587.548,16245.3
587.714,16672.1
587.88,16644.1
588.046,16522.3
588.212,16814.6
588.379,16400.0
588.545,16429.0
588.711,16369.9
588.877,16856.6
589.043,16856.2
589.209,16575.0
589.375,16327.7
589.541,16521.8
589.707,16210.1
589.873,16333.5
590.039,16345.9
590.205,16804.4
590.371,16417.9
590.537,16449.1
590.703,16431.2
590.869,16561.8
591.035,16566.7
591.201,16679.4
591.367,16693.3
591.533,16773.1
591.699,16884.1
591.865,16979.5
592.031,16552.4
592.197,16675.9
592.363,16961.4
592.529,17132.2
592.695,16784.2
592.86,16667.6
593.026,16996.0
593.192,16775.5
593.358,16624.6
593.524,16899.8
593.69,16663.0
593.856,16817.9
594.022,16906.5
594.187,16811.3
594.353,16563.1
594.519,17345.7
594.685,16857.8
594.851,17060.6
595.016,17037.4
595.182,16760.6
595.348,17134.6
595.514,17046.2
595.679,17297.9
595.845,17118.6
596.011,16926.3
596.177,17640.0
596.342,17327.7
596.508,16891.3
596.674,17244.6
596.84,17411.3
597.005,17327.4
597.171,17089.1
597.337,17412.8
597.502,17369.0
597.668,17140.3
597.834,17437.8
597.999,17030.3
598.165,17564.3
598.331,17493.8
598.496,17262.8
598.662,17461.1
598.827,17243.7
598.993,17534.3
599.159,17290.3
599.324,17404.3
599.49,17612.8
599.655,17591.8
599.821,17529.0
599.987,18101.9
600.152,17695.1
600.318,17433.9
600.483,17647.2
600.649,17591.0
600.814,17211.5
600.98,17877.2
601.145,18014.1
601.311,17522.6
601.476,17758.1
601.642,17873.0
601.807,17636.6
601.973,17988.3
602.138,18083.4
602.303,17484.8
602.469,17813.8
602.634,17997.3
602.8,18220.9
602.965,18103.4
603.13,18122.3
603.296,18096.1
603.461,17940.3
603.627,17956.2
603.792,18101.7
603.957,17898.6
604.123,18266.2
604.288,18257.7
604.453,18334.8
604.619,18308.5
604.784,18294.5
604.949,18296.7
605.115,18318.9
605.28,17739.1
605.445,18390.4
605.61,18251.0
605.776,18561.5
605.941,18567.2
606.106,18354.1
606.272,18212.2
606.437,17965.2
606.602,18972.1
606.767,18970.4
606.932,18617.3
607.098,18127.3
607.263,18870.7
607.428,19510.7
607.593,18964.8
607.758,18683.2
607.923,18184.9
608.089,18923.5
608.254,19139.9
608.419,19004.8
608.584,19190.5
608.749,18813.0
608.914,18564.0
609.079,19181.3
609.244,19756.7
609.41,18873.4
609.575,19304.6
609.74,19159.5
609.905,19174.0
610.07,19269.2
610.235,19278.0
610.4,19542.2
610.565,19819.8
610.73,19363.1
610.895,19572.4
611.06,19597.5
611.225,19680.8
611.39,19479.0
611.555,19687.2
611.72,19882.9
611.885,19876.6
612.05,19952.0
612.215,19666.1
612.38,20287.5
612.545,19820.7
612.709,19982.2
612.874,19849.3
613.039,20087.3
613.204,20357.8
613.369,19828.2
613.534,20153.4
613.699,20432.7
613.864,20565.2
614.028,20040.0
614.193,20618.3
614.358,20989.7
614.523,20704.8
614.688,20879.9
614.853,20510.1
615.017,20940.7
615.182,20488.5
615.347,21466.7
615.512,21028.2
615.676,20775.1
615.841,20972.8
616.006,21362.0
616.171,21094.8
616.335,20701.9
616.5,21380.4
616.665,21437.3
616.829,21475.0
616.994,21477.4
617.159,21242.8
617.324,21636.9
617.488,21614.9
617.653,21802.1
617.818,22071.0
617.982,22046.1
618.147,21530.7
618.311,21479.2
618.476,22486.8
618.641,22111.2
618.805,22282.0
618.97,22165.0
619.134,22071.8
619.299,22702.9
619.463,22398.4
619.628,22998.4
619.793,22324.5
619.957,22506.8
620.122,22990.8
620.286,22415.6
620.451,22474.5
620.615,22698.6
620.78,23316.5
620.944,22806.7
621.109,23115.5
621.273,23103.4
621.438,22845.9
621.602,23130.4
621.766,23797.8
621.931,22881.6
622.095,22952.8
622.26,23340.6
622.424,23334.8
622.588,24049.9
622.753,23938.2
622.917,23418.4
623.082,23944.1
623.246,24167.2
623.41,23245.8
623.575,24035.4
623.739,24313.9
623.903,24447.0
624.068,23859.0
624.232,24165.7
624.396,24511.9
624.56,24777.3
624.725,23991.4
624.889,24022.3
625.053,25160.9
625.218,25441.8
625.382,24561.8
625.546,24262.9
625.71,24735.9
625.874,24682.8
626.039,25137.4
626.203,25346.6
626.367,24513.0
626.531,24534.5
626.695,24763.7
626.86,25302.0
627.024,25673.9
627.188,25422.2
627.352,24620.8
627.516,25592.2
627.68,25892.3
627.844,25239.8
628.008,25460.0
628.172,25845.3
628.337,25582.0
628.501,25793.6
628.665,25838.2
628.829,26249.9
628.993,26454.7
629.157,26534.8
629.321,26043.5
629.485,26768.2
629.649,27205.2
629.813,26326.0
629.977,26738.4
630.141,25884.9
630.305,26809.4
630.469,27039.6
630.633,26095.8
630.797,26907.1
630.961,27205.2
631.124,26760.9
631.288,27890.5
631.452,27514.2
631.616,27235.5
631.78,27850.7
631.944,27980.2
632.108,28395.9
632.272,27586.6
632.436,28133.6
632.599,27902.3
632.763,27761.9
632.927,27634.0
633.091,28988.2
633.255,28226.6
633.418,27987.9
633.582,27986.9
633.746,28387.7
633.91,27427.4
634.074,27980.9
634.237,28490.6
634.401,27796.2
634.565,27732.6
634.728,28487.4
634.892,27857.4
635.056,28162.6
635.22,28533.8
635.383,28377.8
635.547,27585.5
635.711,27326.1
635.874,28447.0
636.038,29598.4
636.202,29325.0
636.365,29624.1
636.529,29705.7
636.692,30152.9
636.856,28869.2
637.02,28993.4
637.183,28094.3
637.347,28221.3
637.51,28782.0
637.674,28895.0
637.837,28539.1
638.001,28057.6
638.164,28385.9
638.328,28520.4
638.491,28208.0
638.655,28220.8
638.818,28522.5
638.982,28019.7
639.145,27928.0
639.309,28673.6
639.472,28202.0
639.636,27697.3
639.799,28303.6
639.963,29186.9
640.126,28884.0
640.289,28213.9
640.453,28443.5
640.616,28301.4
640.78,27995.9
640.943,27609.6
641.106,27782.2
641.27,28947.0
641.433,28661.9
641.596,28161.9
641.76,28431.7
641.923,28623.1
642.086,29074.0
642.249,28395.7
642.413,28692.6
642.576,28766.0
642.739,28075.2
642.903,28496.8
643.066,28422.3
643.229,27673.4
643.392,27853.7
643.555,28992.9
643.719,27527.5
643.882,28142.8
644.045,28366.1
644.208,28749.0
644.371,28860.6
644.534,27932.0
644.698,28377.7
644.861,28631.9
645.024,28313.8
645.187,27948.4
645.35,28138.5
645.513,28758.4
645.676,28225.3
645.839,27888.4
646.002,28326.0
646.165,27868.4
646.329,28057.6
646.492,28241.3
646.655,28491.3
646.818,28339.7
646.981,27992.4
647.144,26658.4
647.307,28799.6
647.47,29083.7
647.633,27754.7
647.796,27905.3
647.958,28571.6
648.121,27424.8
648.284,27294.5
648.447,27588.4
648.61,28293.6
648.773,27625.5
648.936,27226.1
649.099,27123.3
649.262,26840.1
649.425,27588.9
649.587,27316.0
649.75,27527.4
649.913,26672.7
650.076,27136.6
650.239,27508.3
650.402,27038.6
650.564,27522.2
650.727,27599.9
650.89,26790.3
651.053,26044.3
651.215,27072.1
651.378,26780.2
651.541,26549.7
651.704,26293.5
651.866,26433.9
652.029,27564.5
652.192,27253.0
652.354,27213.7
652.517,26486.1
652.68,26100.2
652.842,26387.3
653.005,26317.0
653.168,26887.4
653.33,26317.1
653.493,25105.8
653.656,26170.8
653.818,26123.7
653.981,26050.2
654.143,25973.8
654.306,25767.6
654.468,25392.5
654.631,25721.9
654.794,25884.6
654.956,25580.1
655.119,25354.8
655.281,26013.4
655.444,25655.0
655.606,25207.4
655.769,25278.1
655.931,25760.2
656.093,25163.6
656.256,24814.5
656.418,25181.9
656.581,24786.8
656.743,25032.1
656.906,25187.1
657.068,24815.5
657.23,24791.4
657.393,24765.6
657.555,24381.2
657.718,24864.1
657.88,24205.1
658.042,23912.9
658.205,23139.5
658.367,24204.6
658.529,24862.1
658.691,23240.2
658.854,23463.0
659.016,23889.6
659.178,23158.9
659.341,23749.5
659.503,24036.0
659.665,23265.4
659.827,23172.2
659.989,22909.7
660.152,23279.4
660.314,23022.2
660.476,22787.4
660.638,23278.7
660.8,22167.3
660.963,23406.4
661.044,23583.9