File: spectra/VLFR_06-PET_nobio_Raman_187be051.csv
cm-1,Intensity
-123.878,1858.2
-117.855,1856.5
-111.836,1857.35
-105.821,1858.3
-99.8104,1858.55
-93.8036,1856.8
-87.8007,1858.4
-81.8019,1858.0
-75.807,1857.6
-69.8161,1856.95
-63.8293,1858.1
-57.8464,1859.25
-51.8675,1857.6
-45.8926,1857.7
-39.9216,1858.05
-33.9547,1859.15
-27.9917,1859.3
-22.0326,1862.3
-16.0776,1876.7
-10.1265,2121.3
-4.17932,2813.0
1.76388,2729.45
7.70313,1937.95
13.6384,1861.95
19.5698,1860.2
25.4972,1860.6
31.4207,1860.55
37.3403,1864.85
43.256,1875.15
49.1677,1977.7
55.0755,2599.95
60.9794,3751.65
66.8794,4358.6
72.7754,4381.65
78.6676,4194.65
84.5559,4031.05
90.4402,3938.0
96.3207,3842.4
102.197,3637.25
108.07,3585.3
113.939,3502.2
119.804,3388.45
125.665,3277.85
131.522,3198.05
137.375,3170.35
143.225,3132.7
149.07,3114.65
154.912,3091.9
160.75,3054.05
166.584,3034.85
172.414,3047.3
178.241,3019.9
184.063,3058.3
189.882,3081.1
195.697,3114.3
201.508,3119.05
207.315,3126.65
213.119,3109.65
218.918,3069.6
224.714,3118.5
230.506,3130.9
236.294,3124.75
242.078,3148.0
247.859,3155.2
253.636,3193.95
259.409,3200.15
265.178,3227.65
270.943,3228.5
276.705,3228.35
282.463,3170.1
288.217,3215.25
293.967,3175.95
299.713,3172.9
305.456,3161.5
311.195,3183.75
316.93,3146.4
322.662,3188.5
328.389,3199.8
334.113,3173.35
339.834,3206.65
345.55,3221.05
351.263,3218.7
356.972,3222.6
362.677,3249.7
368.379,3240.5
374.077,3269.3
379.771,3264.3
385.461,3262.45
391.148,3283.95
396.831,3269.5
402.51,3283.75
408.186,3291.5
413.858,3304.85
419.526,3263.35
425.19,3307.65
430.851,3332.95
436.508,3317.45
442.162,3284.8
447.811,3312.8
453.458,3303.15
459.1,3335.8
464.739,3344.75
470.374,3377.85
476.005,3313.55
481.633,3358.8
487.257,3364.2
492.878,3395.95
498.494,3393.15
504.107,3360.4
509.717,3402.95
515.323,3397.4
520.925,3370.55
526.524,3395.15
532.119,3447.95
537.71,3411.45
543.298,3413.15
548.882,3446.85
554.462,3459.05
560.039,3432.65
565.613,3432.2
571.182,3463.8
576.748,3483.0
582.311,3472.8
587.87,3440.85
593.425,3473.4
598.977,3491.7
604.525,3476.8
610.069,3482.15
615.61,3500.35
621.148,3544.5
626.682,3667.85
632.212,3740.45
637.739,3633.55
643.262,3565.2
648.781,3566.35
654.297,3598.25
659.81,3586.75
665.319,3575.35
670.824,3600.0
676.326,3622.9
681.824,3587.95
687.319,3592.25
692.81,3660.95
698.298,3683.85
703.782,3702.4
709.262,3668.05
714.739,3670.0
720.213,3623.25
725.683,3656.45
731.15,3686.25
736.613,3669.3
742.072,3702.35
747.528,3689.35
752.981,3726.9
758.43,3748.2
763.875,3780.15
769.317,3719.25
774.756,3773.35
780.191,3828.2
785.623,3870.35
791.051,3853.7
796.475,3900.15
801.897,3903.75
807.314,3917.3
812.729,3932.1
818.139,3960.3
823.547,3974.7
828.951,3950.45
834.351,3980.65
839.748,4027.8
845.142,4132.0
850.532,4226.1
855.918,4299.35
861.302,4215.05
866.681,4117.25
872.058,4134.65
877.431,4070.5
882.8,4049.8
888.166,4082.65
893.529,4092.7
898.888,4003.6
904.244,4028.2
909.596,4014.45
914.945,3951.3
920.291,3958.05
925.633,3956.85
930.972,4050.55
936.308,4014.35
941.64,4055.75
946.968,3989.0
952.294,4021.2
957.615,4074.85
962.934,4091.8
968.249,4080.1
973.561,4092.7
978.869,4109.7
984.174,4111.35
989.476,4172.35
994.774,4141.15
1000.07,4171.25
1005.36,4183.8
1010.65,4176.3
1015.93,4173.6
1021.22,4241.25
1026.49,4228.05
1031.77,4179.75
1037.04,4185.55
1042.31,4219.55
1047.57,4213.75
1052.83,4197.25
1058.09,4231.6
1063.35,4212.0
1068.6,4225.9
1073.85,4309.3
1079.09,4267.85
1084.33,4279.85
1089.57,4388.45
1094.81,4487.95
1100.04,4452.15
1105.27,4474.05
1110.49,4489.25
1115.71,4595.8
1120.93,4554.0
1126.15,4490.3
1131.36,4424.85
1136.57,4371.9
1141.77,4377.4
1146.98,4322.25
1152.18,4336.25
1157.37,4338.8
1162.56,4351.85
1167.75,4400.5
1172.94,4492.55
1178.12,4501.8
1183.3,4455.0
1188.48,4439.55
1193.65,4455.7
1198.82,4390.2
1203.99,4429.35
1209.15,4394.95
1214.31,4407.3
1219.46,4464.9
1224.62,4540.25
1229.77,4434.65
1234.92,4522.35
1240.06,4514.6
1245.2,4529.35
1250.34,4520.3
1255.47,4627.65
1260.6,4673.95
1265.73,4817.55
1270.85,4795.35
1275.97,4889.65
1281.09,5027.95
1286.21,5040.4
1291.32,5032.15
1296.43,4961.25
1301.53,4820.15
1306.63,4844.95
1311.73,4722.95
1316.83,4737.65
1321.92,4701.1
1327.01,4672.85
1332.1,4653.35
1337.18,4552.8
1342.26,4685.25
1347.34,4644.15
1352.41,4605.25
1357.48,4663.65
1362.55,4669.0
1367.61,4664.55
1372.67,4589.85
1377.73,4669.15
1382.78,4644.35
1387.84,4609.85
1392.88,4611.75
1397.93,4659.75
1402.97,4774.5
1408.01,4719.95
1413.05,4772.25
1418.08,4723.15
1423.11,4697.25
1428.14,4736.35
1433.16,4814.25
1438.18,4836.1
1443.2,4836.3
1448.21,4790.0
1453.22,4735.55
1458.23,4816.35
1463.23,4799.55
1468.23,4840.95
1473.23,4803.85
1478.23,4717.1
1483.22,4767.15
1488.21,4757.05
1493.2,4742.25
1498.18,4738.3
1503.16,4782.2
1508.14,4785.55
1513.11,4778.65
1518.08,4737.6
1523.05,4847.9
1528.01,4803.8
1532.97,4850.45
1537.93,4866.45
1542.89,4874.4
1547.84,4882.55
1552.79,4901.4
1557.73,4961.6
1562.68,4921.3
1567.62,4936.4
1572.56,4923.55
1577.49,5033.55
1582.42,5016.55
1587.35,4988.15
1592.27,5051.9
1597.19,5164.05
1602.11,5565.75
1607.03,6167.6
1611.94,6823.8
1616.85,6598.3
1621.76,5771.2
1626.66,5175.4
1631.56,5074.35
1636.46,4980.6
1641.36,5009.3
1646.25,5013.4
1651.14,5034.15
1656.02,4953.25
1660.9,5000.45
1665.78,5034.5
1670.66,5000.35
1675.54,5035.5
1680.41,5029.3
1685.27,4983.0
1690.14,5132.3
1695.0,5085.3
1699.86,5132.0
1704.71,5113.25
1709.57,5305.55
1714.42,5576.55
1719.26,5936.55
1724.11,6161.05
1728.95,6245.65
1733.79,6057.8
1738.62,5793.05
1743.46,5547.85
1748.28,5348.75
1753.11,5219.3
1757.93,5127.95
1762.75,5192.4
1767.57,5152.35
1772.39,5130.0
1777.2,5134.15
1782.01,5116.15
1786.81,5175.05
1791.62,5264.25
1796.41,5160.15
1801.21,5066.9
1806.01,5189.3
1810.8,5206.55
1815.59,5182.15
1820.37,5152.85
1825.15,5161.3
1829.93,5080.2
1834.71,5202.25
1839.48,5181.15
1844.25,5162.25
1849.02,5153.6
1853.79,5139.4
1858.55,5212.7
1863.31,5139.45
1868.06,5186.85
1872.82,5182.65
1877.57,5217.3
1882.31,5226.75
1887.06,5225.15
1891.8,5268.9
1896.54,5255.4
1901.28,5242.0
1906.01,5254.7
1910.74,5317.1
1915.47,5276.2
1920.19,5234.8
1924.91,5254.75
1929.63,5281.3
1934.35,5216.45
1939.06,5238.9
1943.77,5188.9
1948.48,5362.85
1953.19,5395.35
1957.89,5315.4
1962.59,5303.15
1967.28,5238.7
1971.98,5223.65
1976.67,5318.2
1981.35,5294.2
1986.04,5366.55
1990.72,5383.3
1995.4,5328.65
2000.08,5378.6
2004.75,5392.35
2009.42,5344.4
2014.09,5308.95
2018.75,5340.6
2023.42,5402.25
2028.08,5325.9
2032.73,5455.65
2037.39,5465.8
2042.04,5424.15
2046.69,5366.65
2051.33,5410.35
2055.97,5392.7
2060.61,5366.3
2065.25,5434.05
2069.88,5459.6
2074.52,5425.2
2079.15,5410.75
2083.77,5401.85
2088.39,5428.35
2093.01,5433.25
2097.63,5427.35
2102.25,5503.1
2106.86,5465.3
2111.47,5416.25
2116.08,5501.65
2120.68,5418.0
2125.28,5510.5
2129.88,5507.65
2134.47,5452.15
2139.07,5519.25
2143.66,5551.4
2148.24,5404.8
2152.83,5483.5
2157.41,5515.6
2161.99,5451.5
2166.57,5464.35
2171.14,5498.9
2175.71,5499.5
2180.28,5509.9
2184.84,5486.95
2189.41,5505.25
2193.97,5528.6
2198.52,5499.1
2203.08,5553.25
2207.63,5549.65
2212.18,5407.05
2216.73,5497.45
2221.27,5583.7
2225.81,5575.15
2230.35,5519.0
2234.89,5529.95
2239.42,5539.95
2243.95,5495.85
2248.48,5541.2
2253.0,5581.25
2257.52,5535.55
2262.04,5553.05
2266.56,5561.0
2271.07,5449.9
2275.58,5509.45
2280.09,5488.45
2284.6,5505.3
2289.1,5637.6
2293.6,5574.4
2298.1,5447.0
2302.6,5561.75
2307.09,5580.7
2311.58,5549.5
2316.07,5607.1
2320.55,5641.3
2325.03,5472.55
2329.51,5546.0
2333.99,5581.1
2338.46,5469.85
2342.93,5551.75
2347.4,5616.25
2351.87,5596.5
2356.33,5604.5
2360.79,5562.45
2365.25,5577.9
2369.71,5606.8
2374.16,5486.7
2378.61,5548.2
2383.06,5604.85
2387.5,5514.85
2391.94,5561.8
2396.38,5503.7
2400.82,5588.75
2405.26,5659.2
2409.69,5688.25
2414.12,5538.2
2418.54,5623.8
2422.97,5664.35
2427.39,5514.7
2431.81,5569.65
2436.22,5626.6
2440.64,5642.2
2445.05,5621.65
2449.46,5579.7
2453.86,5577.55
2458.27,5589.6
2462.67,5588.4
2467.06,5575.1
2471.46,5578.85
2475.85,5571.15
2480.24,5588.75
2484.63,5599.75
2489.02,5592.4
2493.4,5656.3
2497.78,5590.1
2502.16,5670.9
2506.53,5551.15
2510.9,5579.25
2515.27,5729.35
2519.64,5612.6
2524.0,5661.4
2528.37,5609.85
2532.73,5646.85
2537.08,5592.65
2541.44,5585.85
2545.79,5632.75
2550.14,5685.0
2554.48,5601.0
2558.83,5609.7
2563.17,5676.1
2567.51,5687.45
2571.85,5670.45
2576.18,5606.5
2580.51,5601.75
2584.84,5585.7
2589.17,5704.5
2593.49,5598.6
2597.81,5654.05
2602.13,5679.4
2606.45,5688.1
2610.76,5621.65
2615.07,5654.3
2619.38,5618.85
2623.69,5638.45
2627.99,5680.45
2632.29,5736.5
2636.59,5698.2
2640.89,5706.55
2645.18,5605.1
2649.47,5750.35
2653.76,5683.0
2658.05,5711.3
2662.33,5733.85
2666.61,5733.7
2670.89,5667.7
2675.17,5759.1
2679.44,5633.7
2683.71,5708.9
2687.98,5627.5
2692.25,5689.6
2696.51,5748.15
2700.77,5731.9
2705.03,5753.5
2709.29,5697.8
2713.54,5697.3
2717.79,5726.4
2722.04,5678.9
2726.29,5698.85
2730.53,5616.5
2734.77,5728.0
2739.01,5781.4
2743.25,5727.5
2747.48,5714.35
2751.71,5732.25
2755.94,5790.6
2760.17,5622.4
2764.39,5806.95
2768.61,5828.4
2772.83,5709.3
2777.05,5762.05
2781.27,5816.8
2785.48,5804.5
2789.69,5753.0
2793.89,5797.8
2798.1,5803.65
2802.3,5731.65
2806.5,5660.85
2810.7,5837.25
2814.89,5741.6
2819.09,5804.95
2823.28,5825.55
2827.46,5795.45
2831.65,5777.8
2835.83,5730.4
2840.01,5706.5
2844.19,5776.3
2848.37,5724.7
2852.54,5790.3
2856.71,5794.5
2860.88,5894.05
2865.05,5780.0
2869.21,5858.25
2873.37,5833.65
2877.53,5865.25
2881.69,5802.8
2885.84,5964.05
2889.99,5899.65
2894.14,5951.1
2898.29,5911.75
2902.43,5871.4
2906.58,5910.35
2910.72,5981.2
2914.85,5852.1
2918.99,5961.95
2923.12,5937.2
2927.25,5818.6
2931.38,5830.55
2935.5,5890.55
2939.63,5976.6
2943.75,6079.4
2947.87,5997.7
2951.98,6144.0
2956.1,6283.7
2960.21,6157.2
2964.32,6289.35
2968.42,6280.3
2972.53,6225.8
2976.63,6126.95
2980.73,6044.2
2984.83,6085.5
2988.92,6154.7
2993.01,6107.5
2997.1,6001.5
3001.19,6069.55
3005.28,6158.75
3009.36,6124.85
3013.44,6091.4
3017.52,6026.0
3021.6,6082.6
3025.67,6123.6
3029.74,6031.5
3033.81,6009.05
3037.88,6022.9
3041.94,5963.65
3046.01,5959.95
3050.07,6069.0
3054.12,6063.1
3058.18,6107.0
3062.23,6117.1
3066.28,6068.8
3070.33,6415.7
3074.38,6251.55
3078.42,6344.2
3082.46,6488.8
3086.5,6352.2
3090.54,6284.4
3094.57,6146.05
3098.6,6091.35
3102.63,6179.45
3106.66,5988.8
3110.69,6049.75
3114.71,6139.45
3118.73,6132.5
3122.75,6148.6
3126.77,6007.75
3130.78,6057.9
3134.79,6102.65
3138.8,6059.6
3142.81,6085.25
3146.81,6027.6
3150.82,6006.9
3154.82,6056.7
3158.81,6007.75
3162.81,5995.55
3166.8,6073.1
3170.79,6087.75
3174.78,5984.55
3178.77,6019.3
3182.75,5969.3
3186.74,5991.8
3190.72,5905.35
3194.69,6049.4
3198.67,6044.0
3202.64,6098.5
3206.61,5901.75
3210.58,5908.6
3214.55,5975.3
3218.51,6074.2
3222.47,5992.55
3226.43,6167.3
3230.39,5996.0
3234.35,6066.1
3238.3,6046.85
3242.25,5980.55
3246.2,5903.4
3250.15,5907.95
3254.09,6091.35
3258.03,6038.2
3261.97,6083.25
3265.91,5990.7
3269.84,6064.65
3273.78,5962.6
3277.71,6016.8
3281.64,5938.3
3285.56,5968.35
3289.49,6009.9
3293.41,6033.95
3297.33,5977.6
3301.25,6046.5
3305.16,5955.2
3309.07,6067.95
3312.99,5923.85
3316.89,5889.1
3320.8,5978.6
3324.7,6023.95
3328.61,5938.4
3332.51,5809.75
3336.4,6020.65
3340.3,5880.1
3344.19,6043.6
3348.08,5892.35
3351.97,5943.2
3355.86,5852.4
3359.74,5925.7
3363.63,5828.3
3367.51,5924.4
3371.39,5795.9
3375.26,5847.6
3379.13,5952.0
3383.01,5841.7
3386.88,5838.55
3390.74,5802.65
3394.61,5865.65
3398.47,5819.8
3402.33,6012.8
3406.19,5804.55
3410.05,5719.2
3413.9,5930.4
3417.75,5929.7
3421.6,5806.5
3425.45,5845.8
3429.3,5866.3
3433.14,5728.9
3436.98,5777.95
3440.82,5692.4
3444.66,5845.65
3448.49,5818.85
3452.32,5819.05
3456.15,5792.2
3459.98,5784.25
3463.81,5763.1
3467.63,5679.95
3471.46,5739.45
3475.28,5762.85
3479.09,5714.95
3482.91,5772.8
3486.72,5597.95
3490.53,5769.15
3494.34,5656.55
3498.15,5552.55
3501.96,5651.1
3505.76,5670.8
3509.56,5638.8
3513.36,5612.65
3517.15,5489.55
3520.95,5521.0
3524.74,5533.95
3528.53,5446.7
3532.32,5611.05
3536.11,5627.6
3539.89,5544.7
3543.67,5608.7
3547.45,5530.05
3551.23,5595.8
3555.0,5567.75
3558.78,5555.15
3562.55,5504.8
3566.32,5424.6
3570.09,5475.5
3573.85,5435.25
3577.61,5485.45
3581.37,5451.8
3585.13,5445.7
3588.89,5348.05
3592.64,5423.4
3596.4,5532.6
3600.15,5348.75
3603.9,5416.65
3607.64,5259.6
3611.39,5398.55
3615.13,5474.25
3618.87,5185.05
3622.61,5181.6
3626.34,5170.95
3630.08,5182.05
3633.81,5247.3
3637.54,5194.5
3641.27,5230.0
3644.99,5300.1
3648.72,5229.45
3652.44,5104.1
3656.16,5289.1
3659.87,5265.3
3663.59,5123.9
3665.45,5209.25