File: spectra/VLFR_01-LDPE_bio_Raman_8513bad0.csv
nm,Intensity
528.626,1868.2
528.795,1867.3
528.963,1866.9
529.132,1867.6
529.3,1868.0
529.469,1868.8
529.637,1867.7
529.806,1867.1
529.974,1867.5
530.143,1867.9
530.311,1868.7
530.48,1868.9
530.648,1868.4
530.816,1868.6
530.985,1869.9
531.153,1869.9
531.322,1869.0
531.49,1872.1
531.658,1886.3
531.827,2109.6
531.995,3065.7
532.164,3021.0
532.332,2111.2
532.5,1872.2
532.669,1869.4
532.837,1870.2
533.006,1869.5
533.174,1870.9
533.342,1870.1
533.511,1886.7
533.679,1972.7
533.847,2176.1
534.016,2322.1
534.184,2352.6
534.352,2321.9
534.521,2304.5
534.689,2293.8
534.857,2306.9
535.025,2259.4
535.194,2234.9
535.362,2211.6
535.53,2189.0
535.699,2175.5
535.867,2160.4
536.035,2137.9
536.203,2130.7
536.372,2122.6
536.54,2122.6
536.708,2105.7
536.876,2112.3
537.044,2107.6
537.213,2112.7
537.381,2119.4
537.549,2110.2
537.717,2112.0
537.885,2095.9
538.054,2098.2
538.222,2090.1
538.39,2100.7
538.558,2078.6
538.726,2077.4
538.894,2083.6
539.063,2073.5
539.231,2070.5
539.399,2073.3
539.567,2069.7
539.735,2065.2
539.903,2053.9
540.071,2050.0
540.239,2052.3
540.408,2049.4
540.576,2047.7
540.744,2054.3
540.912,2048.6
541.08,2053.3
541.248,2038.4
541.416,2038.6
541.584,2052.0
541.752,2047.7
541.92,2051.6
542.088,2056.2
542.256,2056.2
542.424,2042.1
542.592,2051.0
542.76,2048.8
542.928,2035.8
543.096,2050.5
543.264,2048.9
543.432,2044.2
543.6,2059.4
543.768,2060.2
543.936,2061.2
544.104,2041.8
544.272,2050.2
544.44,2046.2
544.608,2039.6
544.776,2046.3
544.944,2033.3
545.112,2035.9
545.28,2041.6
545.448,2032.6
545.616,2036.6
545.784,2042.9
545.951,2036.3
546.119,2029.3
546.287,2038.5
546.455,2034.7
546.623,2033.5
546.791,2037.4
546.959,2036.1
547.127,2042.5
547.294,2045.7
547.462,2040.1
547.63,2036.6
547.798,2033.4
547.966,2046.9
548.134,2043.0
548.301,2034.5
548.469,2039.1
548.637,2041.7
548.805,2035.7
548.972,2029.7
549.14,2042.9
549.308,2040.5
549.476,2031.7
549.644,2038.2
549.811,2033.4
549.979,2037.4
550.147,2032.9
550.315,2032.8
550.482,2041.9
550.65,2030.0
550.818,2032.6
550.985,2044.6
551.153,2032.2
551.321,2031.6
551.488,2036.5
551.656,2039.1
551.824,2050.2
551.991,2038.7
552.159,2041.2
552.327,2045.2
552.494,2037.7
552.662,2049.7
552.83,2036.6
552.997,2054.8
553.165,2066.6
553.333,2065.1
553.5,2073.9
553.668,2065.3
553.835,2072.7
554.003,2065.7
554.171,2072.6
554.338,2069.2
554.506,2085.8
554.673,2090.1
554.841,2081.9
555.008,2090.9
555.176,2086.1
555.343,2103.5
555.511,2100.7
555.679,2105.5
555.846,2105.3
556.014,2094.4
556.181,2113.8
556.349,2104.8
556.516,2118.0
556.684,2127.6
556.851,2123.0
557.018,2123.1
557.186,2141.3
557.353,2149.8
557.521,2149.8
557.688,2146.3
557.856,2181.1
558.023,2181.7
558.191,2174.5
558.358,2186.3
558.525,2189.8
558.693,2174.6
558.86,2171.2
559.028,2159.3
559.195,2164.1
559.362,2159.1
559.53,2148.6
559.697,2152.0
559.864,2150.7
560.032,2140.7
560.199,2145.9
560.366,2144.3
560.534,2153.3
560.701,2149.2
560.868,2161.1
561.036,2165.2
561.203,2162.6
561.37,2166.9
561.538,2157.5
561.705,2160.7
561.872,2183.1
562.039,2182.6
562.207,2192.9
562.374,2204.6
562.541,2214.7
562.708,2210.8
562.876,2228.5
563.043,2237.9
563.21,2251.8
563.377,2278.7
563.545,2289.7
563.712,2414.4
563.879,2658.1
564.046,2866.8
564.213,2698.1
564.38,2462.5
564.548,2409.0
564.715,2420.0
564.882,2395.3
565.049,2347.9
565.216,2348.4
565.383,2330.8
565.551,2358.0
565.718,2412.1
565.885,2555.0
566.052,2799.1
566.219,2843.0
566.386,2582.9
566.553,2415.6
566.72,2365.1
566.887,2324.7
567.054,2314.2
567.221,2363.9
567.388,2382.3
567.555,2382.6
567.722,2345.9
567.889,2338.1
568.057,2309.6
568.224,2329.4
568.391,2326.0
568.558,2339.3
568.725,2344.9
568.892,2338.5
569.058,2350.7
569.225,2369.6
569.392,2363.3
569.559,2373.1
569.726,2379.7
569.893,2408.6
570.06,2420.5
570.227,2429.0
570.394,2468.9
570.561,2470.3
570.728,2497.1
570.895,2534.4
571.062,2580.0
571.229,2769.0
571.395,3178.7
571.562,3595.1
571.729,3218.2
571.896,2866.5
572.063,2787.9
572.23,2743.3
572.397,2665.8
572.563,2676.0
572.73,2656.8
572.897,2658.7
573.064,2623.3
573.231,2626.7
573.397,2663.2
573.564,2701.0
573.731,2748.4
573.898,2796.4
574.064,2761.9
574.231,2751.8
574.398,2752.3
574.565,2763.7
574.731,2781.3
574.898,2829.5
575.065,2869.8
575.232,2903.9
575.398,2989.0
575.565,3230.6
575.732,3292.4
575.898,3394.3
576.065,3679.9
576.232,3973.6
576.398,3933.0
576.565,3757.1
576.732,3741.1
576.898,3748.5
577.065,3715.3
577.232,3585.4
577.398,3403.0
577.565,3367.7
577.731,3299.0
577.898,3296.4
578.065,3262.4
578.231,3327.6
578.398,3340.0
578.564,3335.9
578.731,3438.4
578.897,3383.4
579.064,3417.0
579.23,3472.1
579.397,3471.3
579.563,3508.0
579.73,3574.9
579.896,3645.4
580.063,3655.7
580.229,3633.2
580.396,3696.2
580.562,3718.1
580.729,3766.5
580.895,3766.0
581.062,3839.0
581.228,3915.6
581.395,3878.7
581.561,3919.3
581.728,4025.7
581.894,3906.0
582.06,3910.3
582.227,4070.7
582.393,4068.1
582.56,4125.0
582.726,4111.1
582.892,4108.5
583.059,4169.2
583.225,4235.5
583.391,4269.4
583.558,4310.6
583.724,4305.8
583.89,4355.5
584.057,4356.1
584.223,4402.7
584.389,4471.0
584.556,4523.8
584.722,4510.3
584.888,4468.2
585.054,4586.8
585.221,4563.6
585.387,4616.9
585.553,4677.5
585.719,4675.3
585.886,4658.4
586.052,4701.0
586.218,4770.1
586.384,4794.1
586.55,4845.0
586.717,4824.8
586.883,4772.4
587.049,4941.8
587.215,4903.6
587.381,5040.1
587.548,4982.3
587.714,5102.9
587.88,5162.4
588.046,5083.4
588.212,5205.0
588.378,5297.4
588.544,5191.8
588.71,5259.3
588.876,5287.3
589.043,5281.3
589.209,5428.4
589.375,5363.2
589.541,5444.4
589.707,5366.1
589.873,5389.8
590.039,5491.1
590.205,5573.3
590.371,5494.4
590.537,5572.3
590.703,5701.1
590.869,5627.0
591.035,5714.5
591.201,5777.8
591.367,5696.0
591.533,5734.3
591.699,5787.1
591.865,5858.4
592.031,5912.2
592.197,5863.5
592.363,5969.3
592.529,5850.2
592.694,5964.6
592.86,6003.3
593.026,5913.8
593.192,5971.4
593.358,5914.1
593.524,5944.7
593.69,5898.9
593.856,5996.8
594.021,6186.6
594.187,6083.7
594.353,6044.1
594.519,6062.8
594.685,6141.7
594.851,6093.0
595.016,6241.7
595.182,6290.2
595.348,6190.1
595.514,6212.4
595.68,6316.0
595.845,6454.5
596.011,6419.2
596.177,6364.9
596.342,6463.3
596.508,6547.3
596.674,6667.4
596.84,6657.8
597.005,6594.7
597.171,6601.7
597.337,6783.0
597.502,6840.6
597.668,6710.1
597.834,6743.3
597.999,6875.0
598.165,6892.8
598.331,6967.1
598.496,6925.0
598.662,6995.5
598.828,7089.1
598.993,7013.8
599.159,7106.4
599.324,7228.2
599.49,7232.0
599.656,7276.1
599.821,7241.9
599.987,7220.5
600.152,7349.1
600.318,7190.7
600.483,7261.8
600.649,7384.0
600.814,7241.3
600.98,7301.4
601.145,7263.5
601.311,7281.2
601.476,7166.4
601.642,7270.7
601.807,7286.6
601.973,7200.2
602.138,7190.5
602.304,7214.4
602.469,7030.8
602.635,6968.4
602.8,7126.6
602.965,7059.3
603.131,6772.1
603.296,6936.1
603.462,6794.2
603.627,6772.9
603.792,6770.4
603.958,6676.5
604.123,6702.1
604.288,6590.7
604.454,6459.3
604.619,6425.1
604.784,6326.2
604.95,6342.6
605.115,6253.6
605.28,6144.3
605.446,6154.3
605.611,6063.3
605.776,5975.8
605.941,5964.1
606.107,5847.8
606.272,5916.2
606.437,5686.5
606.602,5837.3
606.767,5712.8
606.933,5651.1
607.098,5499.1
607.263,5529.9
607.428,5521.2
607.593,5514.1
607.759,5364.5
607.924,5264.7
608.089,5363.4
608.254,5254.4
608.419,5261.9
608.584,5250.2
608.749,5170.4
608.915,5138.7
609.08,5059.1
609.245,4984.4
609.41,5055.0
609.575,5043.1
609.74,4982.1
609.905,4911.2
610.07,4901.4
610.235,4881.2
610.4,4838.2
610.565,4830.4
610.73,4759.6
610.895,4786.9
611.06,4657.5
611.225,4728.8
611.39,4765.1
611.555,4707.4
611.72,4572.4
611.885,4626.6
612.05,4598.8
612.215,4544.7
612.38,4545.6
612.545,4519.9
612.71,4419.0
612.875,4518.0
613.04,4476.2
613.204,4424.3
613.369,4421.3
613.534,4359.4
613.699,4331.8
613.864,4358.9
614.029,4349.9
614.194,4300.9
614.358,4237.9
614.523,4303.2
614.688,4262.4
614.853,4227.8
615.018,4215.0
615.182,4173.3
615.347,4161.4
615.512,4209.0
615.677,4169.5
615.841,4183.9
616.006,4168.0
616.171,4041.7
616.336,4034.3
616.5,4167.5
616.665,4018.0
616.83,4062.4
616.994,3988.0
617.159,4041.9
617.324,4013.0
617.489,4047.8
617.653,3981.2
617.818,4022.5
617.982,4023.6
618.147,3959.2
618.312,3928.6
618.476,3935.1
618.641,3967.0
618.805,3874.8
618.97,3958.0
619.135,3921.6
619.299,3928.0
619.464,3902.1
619.628,3896.9
619.793,3891.9
619.957,3872.3
620.122,3950.4
620.286,3891.0
620.451,3803.1
620.615,3862.1
620.78,3886.3
620.944,3909.7
621.109,3759.5
621.273,3872.4
621.438,3898.5
621.602,3918.8
621.767,3999.5
621.931,3956.1
622.095,4046.4
622.26,4061.4
622.424,4115.0
622.589,3945.1
622.753,3925.6
622.917,3875.8
623.082,3812.8
623.246,3845.9
623.41,3769.0
623.575,3716.3
623.739,3720.8
623.903,3725.1
624.068,3756.8
624.232,3726.5
624.396,3691.8
624.561,3702.1
624.725,3703.4
624.889,3697.8
625.053,3763.7
625.218,3692.5
625.382,3707.6
625.546,3734.2
625.71,3771.6
625.875,3747.1
626.039,3874.7
626.203,3899.0
626.367,4050.1
626.531,4357.6
626.695,5035.7
626.86,6135.3
627.024,7403.3
627.188,8297.6
627.352,8326.7
627.516,7585.1
627.68,7037.8
627.844,6574.3
628.008,6606.2
628.172,6969.1
628.337,7725.8
628.501,8850.9
628.665,8394.5
628.829,7295.9
628.993,6872.9
629.157,6713.6
629.321,6391.3
629.485,6150.2
629.649,5966.4
629.813,5612.0
629.977,5570.8
630.141,5491.9
630.305,5539.8
630.469,5469.1
630.633,5186.8
630.797,4870.8
630.96,4482.8
631.124,4303.7
631.288,4127.7
631.452,4023.6
631.616,3958.8
631.78,3886.7
631.944,3756.7
632.108,3768.0
632.272,3700.6
632.435,3696.2
632.599,3709.9
632.763,3673.6
632.927,3663.0
633.091,3714.3
633.254,3698.6
633.418,3618.4
633.582,3652.2
633.746,3674.0
633.91,3672.9
634.073,3663.1
634.237,3612.8
634.401,3651.4
634.564,3626.8
634.728,3589.9
634.892,3658.7
635.056,3645.5
635.219,3636.5
635.383,3638.6
635.547,3599.1
635.71,3632.2
635.874,3647.1
636.038,3621.1
636.201,3618.9
636.365,3639.8
636.528,3571.6
636.692,3660.7
636.856,3629.3
637.019,3667.9
637.183,3651.8
637.346,3587.4
637.51,3669.6
637.673,3698.8
637.837,3588.2
638.0,3608.5
638.164,3654.5
638.327,3588.8
638.491,3681.4
638.654,3576.8
638.818,3591.5
638.981,3633.5
639.145,3697.0
639.308,3648.4
639.472,3627.9
639.635,3626.0
639.799,3598.0
639.962,3637.9
640.125,3671.3
640.289,3590.3
640.452,3639.5
640.616,3655.3
640.779,3612.0
640.942,3643.5
641.106,3670.4
641.269,3674.5
641.432,3584.2
641.596,3655.3
641.759,3598.6
641.922,3695.5
642.085,3700.9
642.249,3711.7
642.412,3705.4
642.575,3719.4
642.738,3731.3
642.902,3704.1
643.065,3728.8
643.228,3710.4
643.391,3694.3
643.555,3687.2
643.718,3633.7
643.881,3718.7
644.044,3760.4
644.207,3675.5
644.37,3691.8
644.534,3698.4
644.697,3671.8
644.86,3663.7
645.023,3672.2
645.186,3732.7
645.349,3738.4
645.512,3645.3
645.675,3658.3
645.838,3646.2
646.001,3674.6
646.164,3686.7
646.327,3700.6
646.49,3694.5
646.653,3650.9
646.816,3649.8
646.979,3670.4
647.142,3642.7
647.305,3677.7
647.468,3711.7
647.631,3667.6
647.794,3612.8
647.957,3651.5
648.12,3620.6
648.283,3646.1
648.446,3626.7
648.609,3659.7
648.772,3656.2
648.935,3609.8
649.098,3619.6
649.26,3614.6
649.423,3586.9
649.586,3624.0
649.749,3631.1
649.912,3597.6
650.075,3641.4
650.237,3556.0
650.4,3527.2
650.563,3650.6
650.726,3582.2
650.888,3607.9
651.051,3626.5
651.214,3583.4
651.377,3540.0
651.539,3583.4
651.702,3613.2
651.865,3625.0
652.027,3561.0
652.19,3521.3
652.353,3558.7
652.515,3598.7
652.678,3545.4
652.841,3486.3
653.003,3522.7
653.166,3456.2
653.329,3456.6
653.491,3491.8
653.654,3508.1
653.816,3513.0
653.979,3500.0
654.142,3456.7
654.304,3562.6
654.467,3476.8
654.629,3466.9
654.792,3464.3
654.954,3442.2
655.117,3469.6
655.279,3515.1
655.442,3500.5
655.604,3433.0
655.767,3445.5
655.929,3469.6
656.091,3386.4
656.254,3346.1
656.416,3405.3
656.579,3387.6
656.741,3383.0
656.904,3382.3
657.066,3335.3
657.228,3305.8
657.391,3292.6
657.553,3255.9
657.715,3272.0
657.878,3221.5
658.04,3245.9
658.202,3280.6
658.365,3206.3
658.527,3171.0
658.689,3199.7
658.851,3157.1
659.014,3090.5
659.176,3125.4
659.338,3112.7
659.5,3044.1
659.663,3099.2
659.825,3113.3
659.987,3015.9
660.149,3053.7
660.311,3072.7
660.474,3037.2
660.636,2980.7
660.798,2986.0
660.96,2963.3
661.041,2942.2