File: spectra/VLFR_08-PLA_bio_Raman_06f5d493.csv
nm,Intensity
528.65,1831.85
528.819,1832.1
528.987,1832.35
529.155,1832.05
529.324,1831.4
529.492,1831.95
529.66,1832.05
529.829,1832.45
529.997,1831.8
530.165,1832.35
530.334,1831.7
530.502,1832.65
530.67,1831.9
530.839,1832.7
531.007,1833.25
531.175,1835.0
531.344,1835.6
531.512,1838.05
531.68,1870.0
531.848,2218.0
532.017,3401.05
532.185,3377.55
532.353,2066.6
532.521,1836.85
532.69,1833.95
532.858,1834.35
533.026,1834.15
533.194,1835.8
533.363,1838.8
533.531,1878.65
533.699,2103.45
533.867,2527.9
534.036,2771.4
534.204,2823.0
534.372,2739.35
534.54,2713.0
534.708,2733.5
534.877,2685.4
535.045,2647.55
535.213,2636.55
535.381,2625.85
535.549,2593.3
535.717,2561.05
535.886,2552.35
536.054,2561.0
536.222,2557.0
536.39,2580.1
536.558,2581.8
536.726,2576.0
536.894,2553.85
537.062,2524.75
537.231,2533.5
537.399,2565.25
537.567,2569.35
537.735,2549.65
537.903,2544.25
538.071,2541.85
538.239,2541.15
538.407,2526.05
538.575,2500.3
538.743,2536.55
538.911,2527.75
539.079,2551.8
539.247,2550.85
539.415,2532.75
539.583,2528.1
539.751,2545.8
539.919,2508.4
540.087,2523.8
540.255,2551.35
540.423,2575.35
540.591,2593.8
540.759,2600.05
540.927,2603.25
541.095,2603.65
541.263,2606.85
541.431,2595.9
541.599,2603.6
541.767,2599.65
541.935,2588.3
542.103,2584.05
542.271,2603.6
542.439,2594.7
542.607,2594.1
542.775,2594.45
542.943,2623.4
543.111,2649.4
543.279,2692.2
543.446,2692.4
543.614,2744.1
543.782,2706.55
543.95,2721.45
544.118,2715.2
544.286,2702.1
544.454,2635.05
544.622,2630.55
544.789,2627.05
544.957,2613.7
545.125,2622.45
545.293,2608.55
545.461,2603.65
545.629,2607.35
545.796,2612.55
545.964,2599.7
546.132,2616.55
546.3,2621.95
546.468,2622.5
546.635,2630.5
546.803,2617.55
546.971,2619.15
547.139,2644.85
547.306,2643.2
547.474,2651.05
547.642,2623.5
547.81,2629.75
547.977,2639.35
548.145,2634.8
548.313,2648.1
548.481,2654.2
548.648,2671.75
548.816,2684.75
548.984,2668.0
549.151,2678.25
549.319,2688.05
549.487,2691.35
549.655,2677.9
549.822,2681.2
549.99,2687.8
550.158,2678.55
550.325,2698.15
550.493,2707.9
550.66,2722.6
550.828,2705.0
550.996,2756.8
551.163,2721.95
551.331,2740.8
551.499,2751.95
551.666,2798.35
551.834,2762.3
552.001,2787.05
552.169,2767.9
552.337,2798.8
552.504,2784.15
552.672,2770.05
552.839,2794.7
553.007,2766.55
553.174,2790.25
553.342,2761.65
553.509,2757.85
553.677,2805.7
553.844,2825.65
554.012,2831.65
554.179,2835.75
554.347,2834.75
554.514,2804.25
554.682,2787.0
554.849,2818.15
555.017,2782.95
555.184,2782.7
555.352,2782.35
555.519,2793.35
555.687,2790.55
555.854,2772.55
556.022,2782.25
556.189,2803.0
556.357,2815.1
556.524,2809.1
556.691,2802.7
556.859,2810.75
557.026,2829.7
557.194,2852.5
557.361,2906.95
557.528,2943.8
557.696,3095.85
557.863,3337.1
558.031,3476.05
558.198,3448.15
558.365,3172.3
558.533,2973.5
558.7,2941.25
558.867,2921.5
559.035,2916.15
559.202,2919.85
559.369,2910.5
559.537,2911.75
559.704,2893.1
559.871,2894.15
560.038,2884.55
560.206,2912.85
560.373,2873.75
560.54,2907.55
560.708,2865.3
560.875,2861.1
561.042,2862.9
561.209,2893.65
561.377,2887.35
561.544,2898.8
561.711,2921.8
561.878,2903.15
562.045,2885.3
562.213,2900.15
562.38,2914.75
562.547,2910.35
562.714,2925.95
562.881,2981.85
563.049,2997.5
563.216,3042.2
563.383,3096.1
563.55,3077.9
563.717,3031.8
563.884,2995.15
564.052,2949.0
564.219,2945.25
564.386,2950.6
564.553,2994.0
564.72,3007.35
564.887,3060.1
565.054,3060.2
565.221,3075.65
565.388,3046.5
565.556,3060.6
565.723,3091.95
565.89,3151.3
566.057,3195.2
566.224,3154.6
566.391,3103.95
566.558,3061.9
566.725,3000.25
566.892,2939.85
567.059,2921.7
567.226,2941.35
567.393,2972.4
567.56,2986.7
567.727,3040.05
567.894,3006.85
568.061,3013.6
568.228,3033.3
568.395,2972.85
568.562,2986.9
568.729,3014.4
568.896,3001.4
569.063,2996.0
569.23,2995.95
569.396,2999.8
569.563,2996.75
569.73,2983.8
569.897,3023.7
570.064,2991.35
570.231,2987.85
570.398,3006.55
570.565,3010.6
570.732,3019.7
570.898,3015.05
571.065,3059.5
571.232,3041.8
571.399,3099.9
571.566,3142.65
571.733,3152.1
571.9,3152.45
572.066,3102.3
572.233,3129.35
572.4,3112.75
572.567,3122.05
572.734,3077.8
572.9,3079.95
573.067,3100.15
573.234,3127.75
573.401,3113.75
573.567,3058.3
573.734,3079.35
573.901,3082.5
574.068,3077.9
574.234,3103.95
574.401,3112.65
574.568,3129.9
574.734,3100.4
574.901,3053.8
575.068,3034.15
575.235,3034.8
575.401,3031.4
575.568,3028.45
575.735,3050.9
575.901,3088.55
576.068,3095.15
576.235,3127.1
576.401,3217.3
576.568,3313.5
576.734,3361.1
576.901,3352.3
577.068,3274.2
577.234,3186.9
577.401,3117.05
577.567,3055.45
577.734,3054.8
577.901,3035.0
578.067,3020.9
578.234,3034.55
578.4,3018.55
578.567,3047.1
578.733,3061.65
578.9,3028.75
579.066,3023.2
579.233,3045.45
579.399,3052.35
579.566,3049.75
579.732,3026.2
579.899,3074.2
580.065,3047.85
580.232,3027.1
580.398,3053.7
580.565,3062.95
580.731,3064.15
580.898,3048.6
581.064,3050.45
581.231,3097.0
581.397,3066.1
581.563,3068.0
581.73,3083.65
581.896,3033.7
582.063,3058.6
582.229,3060.9
582.395,3041.55
582.562,3069.35
582.728,3055.1
582.895,3041.95
583.061,3077.4
583.227,3086.6
583.394,3034.8
583.56,3066.0
583.726,3055.45
583.893,3039.1
584.059,3087.35
584.225,3057.0
584.391,3053.6
584.558,3072.8
584.724,3049.9
584.89,3056.25
585.057,3066.35
585.223,3046.4
585.389,3034.55
585.555,3061.65
585.722,3057.1
585.888,3056.95
586.054,3051.4
586.22,3041.2
586.386,3122.65
586.553,3141.85
586.719,3201.15
586.885,3256.55
587.051,3286.35
587.217,3372.5
587.384,3344.0
587.55,3413.85
587.716,3278.75
587.882,3205.2
588.048,3184.65
588.214,3141.35
588.38,3049.15
588.546,3084.35
588.713,3066.6
588.879,3030.65
589.045,3053.55
589.211,3068.3
589.377,3038.7
589.543,3017.0
589.709,3046.95
589.875,3049.0
590.041,3049.55
590.207,3026.5
590.373,3056.9
590.539,3040.7
590.705,3030.15
590.871,3057.85
591.037,3055.55
591.203,3058.55
591.369,3052.05
591.535,3013.55
591.701,3039.35
591.867,3050.55
592.033,3052.0
592.199,3073.15
592.365,3070.3
592.531,3064.5
592.697,3071.65
592.863,3062.7
593.029,3040.0
593.195,3030.65
593.361,3025.45
593.526,3036.35
593.692,3057.1
593.858,3026.25
594.024,3039.7
594.19,3011.1
594.356,3036.8
594.522,3042.55
594.687,3036.6
594.853,3011.25
595.019,3055.7
595.185,3067.4
595.351,3046.95
595.516,3037.1
595.682,3027.05
595.848,3036.4
596.014,3053.95
596.18,3044.3
596.345,3042.3
596.511,3048.1
596.677,3066.05
596.843,3059.8
597.008,3044.25
597.174,3007.1
597.34,3060.1
597.505,3064.45
597.671,3049.5
597.837,3037.75
598.002,3057.05
598.168,3049.25
598.334,3036.95
598.499,3053.55
598.665,3046.1
598.831,3017.6
598.996,3057.25
599.162,3043.9
599.328,3025.05
599.493,3011.4
599.659,3036.25
599.824,3068.75
599.99,3039.7
600.156,3013.65
600.321,3073.25
600.487,3063.1
600.652,3033.0
600.818,3005.65
600.983,3034.55
601.149,3048.3
601.314,3060.9
601.48,3020.85
601.645,3047.15
601.811,3021.55
601.976,3043.05
602.142,3037.15
602.307,3012.65
602.473,3037.8
602.638,3046.7
602.804,3018.55
602.969,3034.25
603.135,3048.8
603.3,3046.1
603.466,3002.15
603.631,3026.85
603.796,3043.85
603.962,3004.15
604.127,3035.15
604.293,3033.05
604.458,3028.65
604.623,2985.4
604.789,3006.45
604.954,3043.7
605.119,3002.3
605.285,3022.45
605.45,2989.15
605.615,3030.05
605.781,3013.2
605.946,3028.75
606.111,2973.85
606.277,3025.0
606.442,3001.35
606.607,3010.05
606.772,3014.0
606.938,3018.2
607.103,3024.65
607.268,3001.55
607.433,3019.2
607.599,2991.85
607.764,2999.35
607.929,2997.6
608.094,3019.5
608.259,2995.95
608.425,2992.45
608.59,2990.15
608.755,3016.25
608.92,3003.15
609.085,2991.6
609.25,3003.0
609.415,2987.2
609.581,3002.75
609.746,2980.05
609.911,2974.6
610.076,2971.65
610.241,3008.75
610.406,2994.3
610.571,2987.35
610.736,2983.6
610.901,2984.6
611.066,3019.65
611.231,2974.9
611.396,2977.8
611.561,2967.6
611.727,2986.1
611.892,3000.35
612.057,2967.85
612.222,2957.3
612.386,2965.4
612.551,2942.1
612.716,2969.1
612.881,2984.45
613.046,2964.0
613.211,2957.5
613.376,2955.15
613.541,2957.4
613.706,2972.5
613.871,2961.4
614.036,2974.75
614.201,2944.5
614.366,2945.25
614.531,2971.45
614.695,2957.1
614.86,2963.05
615.025,2955.7
615.19,2969.4
615.355,2929.0
615.52,2960.15
615.684,2966.5
615.849,2968.85
616.014,2961.5
616.179,2948.7
616.344,2910.0
616.508,2932.95
616.673,2990.55
616.838,2978.15
617.003,2934.15
617.168,2917.85
617.332,2939.85
617.497,2939.0
617.662,2949.15
617.826,2930.65
617.991,2935.45
618.156,2921.5
618.32,2947.95
618.485,2929.7
618.65,2927.2
618.814,2936.95
618.979,2914.9
619.144,2939.45
619.308,2917.7
619.473,2937.9
619.638,2930.35
619.802,2932.9
619.967,2928.85
620.131,2922.85
620.296,2936.4
620.461,2932.8
620.625,2910.3
620.79,2945.1
620.954,2922.45
621.119,2933.5
621.283,2909.75
621.448,2884.95
621.612,2904.05
621.777,2911.85
621.941,2917.6
622.106,2928.4
622.27,2936.65
622.435,2958.25
622.599,2930.45
622.764,2981.05
622.928,2984.9
623.093,2983.25
623.257,2981.55
623.422,2939.45
623.586,2961.65
623.75,2936.7
623.915,2953.65
624.079,2908.45
624.244,2930.15
624.408,2878.9
624.572,2901.4
624.737,2907.4
624.901,2918.55
625.065,2887.05
625.23,2927.65
625.394,2901.45
625.558,2885.0
625.723,2867.85
625.887,2897.45
626.051,2888.2
626.215,2901.05
626.38,2892.2
626.544,2903.05
626.708,2876.45
626.872,2873.15
627.037,2878.5
627.201,2896.15
627.365,2875.05
627.529,2901.5
627.693,2936.85
627.858,2957.75
628.022,3011.1
628.186,3058.35
628.35,3223.8
628.514,3276.75
628.678,3251.0
628.843,3162.8
629.007,3134.05
629.171,3159.25
629.335,3135.95
629.499,3171.95
629.663,3144.95
629.827,3189.55
629.991,3169.3
630.155,3207.5
630.319,3294.15
630.483,3490.4
630.647,3712.35
630.812,4359.85
630.976,4919.6
631.14,5111.05
631.304,4668.5
631.468,4191.0
631.632,3814.35
631.796,3625.55
631.959,3468.7
632.123,3359.95
632.287,3351.0
632.451,3298.75
632.615,3338.15
632.779,3451.15
632.943,3535.2
633.107,3670.9
633.271,3692.7
633.435,3673.8
633.599,3592.9
633.763,3464.0
633.926,3347.05
634.09,3238.3
634.254,3097.25
634.418,2982.25
634.582,2944.45
634.746,2949.95
634.909,2913.6
635.073,2873.55
635.237,2845.15
635.401,2823.35
635.564,2822.75
635.728,2845.8
635.892,2802.0
636.056,2818.05
636.219,2798.1
636.383,2773.95
636.547,2856.3
636.711,2811.75
636.874,2786.55
637.038,2806.6
637.202,2803.9
637.365,2789.7
637.529,2787.3
637.693,2772.55
637.856,2811.4
638.02,2776.6
638.184,2783.3
638.347,2792.9
638.511,2777.75
638.674,2804.55
638.838,2768.75
639.002,2755.25
639.165,2811.35
639.329,2780.6
639.492,2757.25
639.656,2787.15
639.819,2783.65
639.983,2752.1
640.146,2760.3
640.31,2799.85
640.473,2751.0
640.637,2746.95
640.8,2747.25
640.964,2794.7
641.127,2765.45
641.291,2770.9
641.454,2791.2
641.618,2750.7
641.781,2778.1
641.944,2753.9
642.108,2764.8
642.271,2794.1
642.435,2772.3
642.598,2769.85
642.761,2753.35
642.925,2768.5
643.088,2739.8
643.251,2742.15
643.415,2758.1
643.578,2747.2
643.741,2754.45
643.905,2769.45
644.068,2769.8
644.231,2735.8
644.394,2695.5
644.558,2738.2
644.721,2739.5
644.884,2747.5
645.047,2702.1
645.211,2725.1
645.374,2759.85
645.537,2716.15
645.7,2718.15
645.863,2724.65
646.027,2732.1
646.19,2744.05
646.353,2748.3
646.516,2692.3
646.679,2724.3
646.842,2743.9
647.005,2724.2
647.169,2718.35
647.332,2702.8
647.495,2702.25
647.658,2728.65
647.821,2753.8
647.984,2704.8
648.147,2666.05
648.31,2717.2
648.473,2698.95
648.636,2700.45
648.799,2719.8
648.962,2689.95
649.125,2708.95
649.288,2695.6
649.451,2719.25
649.614,2723.55
649.777,2696.05
649.94,2695.7
650.103,2669.35
650.266,2697.0
650.429,2691.6
650.592,2681.45
650.755,2665.5
650.918,2694.9
651.08,2683.35
651.243,2685.15
651.406,2678.7
651.569,2659.0
651.732,2654.1
651.895,2672.85
652.058,2676.35
652.22,2680.2
652.383,2662.8
652.546,2642.4
652.709,2633.45
652.872,2664.0
653.034,2618.35
653.197,2618.25
653.36,2624.0
653.523,2595.45
653.685,2604.3
653.848,2637.2
654.011,2590.2
654.173,2564.3
654.336,2598.55
654.499,2598.1
654.662,2576.7
654.824,2553.6
654.987,2563.6
655.149,2563.6
655.312,2560.75
655.475,2559.15
655.637,2583.6
655.8,2568.6
655.963,2548.6
656.125,2538.45
656.288,2561.95
656.45,2549.4
656.613,2536.55
656.775,2528.95
656.938,2536.85
657.1,2535.25
657.263,2509.3
657.425,2515.95
657.588,2529.65
657.75,2494.1
657.913,2488.15
658.075,2502.5
658.238,2498.05
658.4,2484.5
658.563,2466.15
658.725,2461.35
658.888,2483.9
659.05,2482.2
659.212,2472.65
659.375,2456.75
659.537,2434.65
659.7,2439.75
659.862,2459.95
660.024,2441.8
660.187,2439.05
660.349,2416.85
660.511,2462.65
660.674,2429.3
660.836,2439.55
660.998,2410.15
661.079,2415.45