File: spectra/VLFR_06-PET_bio_Raman_93c6b4bd.csv
nm,Intensity
526.508,830.0
526.645,830.2
526.782,829.8
526.919,831.3
527.055,829.6
527.192,830.2
527.329,829.6
527.465,830.4
527.602,830.7
527.739,831.7
527.875,829.1
528.012,829.5
528.149,829.1
528.285,828.2
528.422,829.6
528.558,829.2
528.695,828.4
528.832,830.2
528.968,831.1
529.105,830.7
529.241,828.4
529.378,829.6
529.514,830.5
529.651,828.7
529.787,829.0
529.924,830.3
530.061,830.3
530.197,830.6
530.334,829.2
530.47,828.6
530.606,830.4
530.743,830.6
530.879,829.9
531.016,830.4
531.152,830.7
531.289,829.8
531.425,830.0
531.562,831.2
531.698,831.4
531.834,831.3
531.971,830.2
532.107,849.5
532.244,856.6
532.38,836.9
532.516,830.6
532.653,829.3
532.789,830.8
532.925,829.9
533.062,829.1
533.198,828.8
533.334,830.1
533.471,830.3
533.607,832.5
533.743,866.4
533.879,1032.1
534.016,1297.8
534.152,1412.6
534.288,1392.1
534.424,1341.5
534.561,1290.2
534.697,1255.3
534.833,1218.2
534.969,1174.5
535.106,1131.1
535.242,1101.4
535.378,1080.4
535.514,1054.1
535.65,1025.7
535.786,1009.2
535.923,992.6
536.059,977.7
536.195,962.0
536.331,954.6
536.467,945.4
536.603,940.4
536.739,939.2
536.876,932.0
537.012,927.9
537.148,929.6
537.284,922.3
537.42,926.6
537.556,923.7
537.692,920.9
537.828,920.1
537.964,921.5
538.1,924.1
538.236,921.9
538.372,922.9
538.508,927.6
538.644,923.3
538.78,926.5
538.916,922.1
539.052,923.0
539.188,926.3
539.324,927.6
539.46,930.7
539.596,933.0
539.732,933.8
539.868,939.3
540.004,935.7
540.14,936.9
540.275,936.0
540.411,924.9
540.547,921.2
540.683,919.9
540.819,917.5
540.955,914.7
541.091,913.9
541.227,916.8
541.362,915.0
541.498,913.0
541.634,911.1
541.77,912.5
541.906,914.3
542.041,914.1
542.177,914.0
542.313,913.3
542.449,915.4
542.585,914.1
542.72,915.8
542.856,918.1
542.992,916.9
543.128,913.6
543.263,916.1
543.399,915.8
543.535,917.2
543.67,919.3
543.806,924.5
543.942,923.3
544.078,925.7
544.213,920.4
544.349,924.3
544.485,920.7
544.62,918.8
544.756,922.9
544.892,923.4
545.027,926.5
545.163,921.0
545.298,921.2
545.434,922.2
545.57,924.0
545.705,924.6
545.841,925.5
545.976,923.7
546.112,926.1
546.248,924.6
546.383,926.7
546.519,928.0
546.654,927.1
546.79,930.0
546.925,928.6
547.061,929.6
547.196,929.5
547.332,926.4
547.467,929.0
547.603,927.5
547.738,928.8
547.874,928.7
548.009,930.3
548.145,932.4
548.28,937.0
548.416,933.1
548.551,934.8
548.686,932.6
548.822,934.1
548.957,935.1
549.093,936.5
549.228,934.8
549.363,936.1
549.499,937.2
549.634,937.0
549.77,936.7
549.905,937.9
550.04,937.6
550.176,942.1
550.311,941.7
550.446,944.7
550.582,976.7
550.717,1028.8
550.852,993.2
550.988,952.6
551.123,946.4
551.258,945.4
551.394,941.5
551.529,942.5
551.664,943.0
551.799,945.8
551.935,949.5
552.07,950.6
552.205,947.8
552.34,945.8
552.476,948.8
552.611,951.0
552.746,961.6
552.881,979.2
553.016,975.3
553.152,957.7
553.287,953.3
553.422,953.3
553.557,953.0
553.692,952.5
553.827,953.0
553.963,953.5
554.098,955.0
554.233,953.7
554.368,956.7
554.503,953.0
554.638,959.0
554.773,960.3
554.908,957.1
555.043,962.5
555.179,964.0
555.314,963.5
555.449,971.2
555.584,981.7
555.719,990.1
555.854,985.1
555.989,982.8
556.124,985.6
556.259,992.3
556.394,980.1
556.529,991.1
556.664,995.8
556.799,993.2
556.934,996.0
557.069,1006.4
557.204,1010.7
557.339,1029.9
557.474,1063.6
557.609,1083.2
557.744,1067.8
557.879,1033.9
558.014,1016.6
558.149,1011.4
558.284,1005.8
558.419,1006.8
558.553,1010.2
558.688,1007.5
558.823,996.0
558.958,997.2
559.093,986.5
559.228,979.9
559.363,981.0
559.498,977.6
559.632,973.3
559.767,974.0
559.902,976.0
560.037,980.6
560.172,980.5
560.307,981.6
560.441,981.7
560.576,985.8
560.711,981.3
560.846,982.8
560.981,984.4
561.115,986.5
561.25,990.3
561.385,991.5
561.52,987.1
561.654,988.0
561.789,985.5
561.924,992.1
562.059,994.2
562.193,996.8
562.328,1001.7
562.463,996.7
562.598,998.7
562.732,1008.0
562.867,1005.0
563.002,1011.3
563.136,1015.2
563.271,1009.7
563.406,1012.8
563.54,1005.3
563.675,1005.5
563.81,1008.8
563.944,1009.1
564.079,1005.9
564.213,1007.7
564.348,1008.3
564.483,1014.8
564.617,1017.6
564.752,1024.5
564.887,1023.1
565.021,1035.5
565.156,1044.3
565.29,1054.4
565.425,1056.6
565.559,1062.6
565.694,1072.0
565.828,1078.7
565.963,1081.0
566.098,1073.7
566.232,1057.1
566.367,1038.7
566.501,1034.4
566.636,1028.0
566.77,1027.9
566.905,1020.3
567.039,1016.2
567.174,1021.7
567.308,1025.0
567.443,1031.2
567.577,1049.4
567.711,1057.0
567.846,1061.9
567.98,1040.7
568.115,1029.2
568.249,1030.0
568.384,1025.0
568.518,1028.8
568.652,1024.7
568.787,1030.3
568.921,1031.7
569.056,1036.9
569.19,1035.5
569.324,1033.0
569.459,1036.1
569.593,1041.3
569.727,1041.3
569.862,1052.9
569.996,1055.0
570.131,1056.3
570.265,1061.0
570.399,1067.1
570.534,1091.8
570.668,1101.4
570.802,1116.7
570.936,1130.4
571.071,1154.4
571.205,1169.6
571.339,1185.9
571.474,1187.1
571.608,1168.5
571.742,1137.1
571.876,1119.4
572.011,1113.6
572.145,1107.5
572.279,1086.4
572.413,1073.1
572.548,1067.3
572.682,1060.1
572.816,1060.6
572.95,1062.8
573.084,1058.3
573.219,1059.6
573.353,1066.4
573.487,1062.9
573.621,1064.9
573.755,1063.7
573.889,1072.5
574.024,1072.5
574.158,1077.8
574.292,1074.4
574.426,1073.0
574.56,1070.4
574.694,1073.0
574.828,1072.7
574.963,1074.9
575.097,1076.5
575.231,1089.7
575.365,1089.7
575.499,1096.9
575.633,1081.9
575.767,1068.6
575.901,1074.9
576.035,1082.1
576.169,1083.6
576.303,1089.6
576.437,1096.4
576.571,1092.2
576.706,1095.8
576.84,1108.9
576.974,1098.4
577.108,1088.2
577.242,1086.5
577.376,1083.7
577.51,1092.6
577.644,1086.4
577.778,1079.5
577.912,1083.9
578.046,1083.5
578.179,1082.2
578.313,1085.8
578.447,1091.3
578.581,1088.0
578.715,1094.6
578.849,1088.6
578.983,1093.3
579.117,1090.8
579.251,1093.1
579.385,1088.8
579.519,1089.3
579.653,1089.4
579.787,1095.0
579.921,1093.8
580.054,1096.6
580.188,1096.0
580.322,1092.7
580.456,1096.8
580.59,1098.8
580.724,1104.9
580.858,1101.3
580.991,1114.1
581.125,1109.5
581.259,1108.4
581.393,1121.7
581.527,1129.0
581.661,1148.8
581.794,1201.5
581.928,1298.6
582.062,1499.9
582.196,1700.2
582.33,1599.0
582.463,1316.7
582.597,1170.8
582.731,1140.2
582.865,1134.0
582.998,1128.0
583.132,1119.8
583.266,1123.9
583.4,1117.4
583.533,1120.9
583.667,1118.0
583.801,1114.2
583.935,1122.9
584.068,1126.0
584.202,1122.4
584.336,1126.2
584.469,1124.1
584.603,1130.6
584.737,1133.3
584.87,1138.4
585.004,1140.0
585.138,1142.2
585.271,1156.6
585.405,1187.6
585.539,1235.9
585.672,1312.9
585.806,1389.0
585.94,1436.4
586.073,1432.4
586.207,1403.1
586.34,1371.6
586.474,1312.5
586.608,1252.3
586.741,1206.9
586.875,1181.0
587.008,1157.7
587.142,1152.6
587.276,1157.4
587.409,1144.9
587.543,1149.0
587.676,1144.3
587.81,1142.1
587.943,1140.3
588.077,1143.5
588.21,1131.8
588.344,1141.4
588.478,1133.9
588.611,1137.6
588.745,1141.1
588.878,1142.2
589.012,1143.4
589.145,1142.9
589.279,1136.5
589.412,1138.3
589.546,1139.2
589.679,1146.2
589.812,1142.6
589.946,1139.3
590.079,1137.1
590.213,1147.1
590.346,1146.6
590.48,1140.1
590.613,1149.5
590.747,1148.8
590.88,1147.2
591.013,1144.7
591.147,1140.1
591.28,1150.3
591.414,1148.3
591.547,1146.0
591.68,1146.8
591.814,1155.2
591.947,1142.7
592.081,1146.7
592.214,1145.9
592.347,1152.0
592.481,1154.6
592.614,1149.2
592.747,1146.5
592.881,1145.9
593.014,1152.8
593.147,1146.6
593.281,1146.7
593.414,1158.7
593.547,1160.2
593.681,1146.5
593.814,1155.2
593.947,1154.3
594.081,1149.1
594.214,1155.6
594.347,1156.3
594.48,1152.8
594.614,1164.0
594.747,1155.2
594.88,1160.6
595.014,1158.4
595.147,1163.5
595.28,1162.6
595.413,1155.2
595.547,1161.2
595.68,1160.2
595.813,1162.2
595.946,1165.4
596.079,1160.2
596.213,1161.7
596.346,1160.2
596.479,1166.6
596.612,1166.6
596.745,1168.4
596.879,1170.7
597.012,1164.8
597.145,1167.0
597.278,1169.4
597.411,1173.8
597.545,1159.3
597.678,1171.4
597.811,1173.5
597.944,1164.8
598.077,1172.4
598.21,1169.3
598.343,1165.4
598.476,1171.1
598.61,1177.2
598.743,1174.4
598.876,1170.9
599.009,1173.6
599.142,1173.6
599.275,1177.6
599.408,1171.2
599.541,1177.9
599.674,1174.5
599.807,1174.0
599.941,1173.4
600.074,1176.7
600.207,1173.1
600.34,1170.3
600.473,1178.4
600.606,1175.3
600.739,1170.6
600.872,1174.6
601.005,1175.2
601.138,1173.0
601.271,1172.9
601.404,1173.3
601.537,1174.6
601.67,1169.6
601.803,1184.3
601.936,1178.0
602.069,1172.3
602.202,1175.3
602.335,1177.8
602.468,1179.9
602.601,1178.0
602.734,1184.1
602.867,1174.6
603.0,1181.5
603.133,1177.1
603.266,1183.4
603.399,1177.5
603.532,1183.3
603.664,1176.6
603.797,1184.5
603.93,1179.7
604.063,1182.6
604.196,1177.2
604.329,1179.1
604.462,1180.6
604.595,1176.6
604.728,1187.7
604.861,1181.3
604.994,1179.0
605.126,1178.4
605.259,1178.4
605.392,1177.8
605.525,1175.6
605.658,1175.7
605.791,1179.8
605.924,1168.2
606.056,1170.6
606.189,1167.0
606.322,1177.0
606.455,1168.6
606.588,1172.3
606.721,1175.5
606.853,1174.8
606.986,1173.7
607.119,1172.7
607.252,1174.8
607.385,1181.9
607.517,1175.8
607.65,1176.2
607.783,1171.6
607.916,1179.7
608.049,1180.5
608.181,1172.9
608.314,1185.0
608.447,1192.0
608.58,1184.7
608.712,1179.1
608.845,1186.0
608.978,1185.0
609.111,1186.9
609.243,1181.7
609.376,1182.6
609.509,1182.7
609.641,1180.3
609.774,1183.7
609.907,1179.9
610.04,1185.1
610.172,1180.6
610.305,1188.7
610.438,1180.8
610.57,1182.8
610.703,1186.9
610.836,1185.8
610.968,1186.4
611.101,1182.2
611.234,1181.2
611.366,1191.2
611.499,1182.9
611.632,1185.9
611.764,1185.5
611.897,1186.8
612.03,1188.4
612.162,1194.6
612.295,1197.8
612.428,1192.2
612.56,1188.3
612.693,1198.3
612.825,1196.9
612.958,1194.2
613.091,1197.9
613.223,1195.3
613.356,1200.5
613.488,1203.2
613.621,1197.5
613.754,1192.5
613.886,1198.2
614.019,1201.2
614.151,1196.6
614.284,1201.9
614.416,1204.2
614.549,1206.8
614.681,1207.7
614.814,1206.8
614.947,1203.9
615.079,1209.9
615.212,1199.8
615.344,1203.6
615.477,1205.5
615.609,1194.9
615.742,1201.7
615.874,1202.4
616.007,1204.8
616.139,1207.3
616.272,1206.1
616.404,1203.3
616.537,1203.6
616.669,1208.9
616.802,1200.7
616.934,1204.8
617.067,1210.2
617.199,1221.7
617.332,1208.3
617.464,1217.9
617.596,1212.6
617.729,1224.6
617.861,1217.8
617.994,1216.6
618.126,1218.6
618.259,1219.5
618.391,1217.6
618.524,1223.3
618.656,1220.9
618.788,1214.5
618.921,1220.1
619.053,1218.9
619.186,1225.2
619.318,1222.8
619.45,1210.7
619.583,1212.6
619.715,1209.7
619.848,1211.3
619.98,1217.2
620.112,1209.4
620.245,1223.7
620.377,1213.5
620.509,1216.1
620.642,1217.6
620.774,1211.4
620.907,1218.5
621.039,1221.7
621.171,1219.9
621.304,1220.7
621.436,1222.6
621.568,1224.3
621.701,1220.4
621.833,1218.1
621.965,1218.5
622.097,1225.2
622.23,1219.7
622.362,1232.7
622.494,1219.6
622.627,1221.1
622.759,1221.7
622.891,1232.2
623.024,1239.8
623.156,1225.3
623.288,1227.6
623.42,1230.9
623.553,1238.2
623.685,1228.4
623.817,1242.2
623.949,1232.1
624.082,1237.1
624.214,1238.0
624.346,1237.8
624.479,1245.0
624.611,1245.6
624.743,1245.0
624.875,1253.7
625.007,1247.8
625.14,1245.1
625.272,1244.4
625.404,1245.2
625.536,1246.2
625.669,1253.1
625.801,1251.9
625.933,1252.4
626.065,1248.4
626.197,1243.9
626.33,1251.1
626.462,1253.3
626.594,1256.3
626.726,1252.6
626.858,1252.0
626.99,1251.6
627.123,1255.2
627.255,1249.2
627.387,1249.7
627.519,1245.5
627.651,1258.5
627.783,1254.4
627.916,1266.3
628.048,1267.4
628.18,1263.2
628.312,1264.2
628.444,1270.3
628.576,1271.7
628.708,1284.5
628.84,1284.6
628.973,1288.9
629.105,1286.8
629.237,1284.7
629.369,1285.6
629.501,1292.3
629.633,1291.2
629.765,1292.5
629.897,1299.5
630.029,1293.3
630.161,1298.7
630.294,1287.1
630.426,1297.3
630.558,1299.0
630.69,1302.3
630.822,1296.5
630.954,1309.7
631.086,1326.5
631.218,1350.3
631.35,1356.1
631.482,1378.9
631.614,1400.9
631.746,1415.5
631.878,1407.5
632.01,1412.7
632.142,1404.0
632.274,1383.6
632.406,1367.6
632.538,1361.2
632.67,1346.5
632.802,1352.1
632.934,1345.9
633.066,1347.4
633.198,1354.4
633.33,1347.7
633.462,1343.1
633.594,1343.7
633.726,1346.7
633.858,1333.1
633.99,1339.4
634.122,1343.6
634.254,1321.3
634.386,1334.7
634.518,1330.9
634.65,1314.9
634.782,1319.6
634.914,1326.0
635.046,1323.1
635.178,1320.4
635.31,1327.2
635.442,1338.6
635.574,1337.9
635.706,1350.8
635.838,1367.5
635.97,1389.1
636.102,1392.6
636.234,1411.9
636.365,1435.2
636.497,1458.8
636.629,1469.3
636.761,1466.9
636.893,1438.6
637.025,1412.2
637.157,1396.8
637.289,1377.6
637.421,1368.9
637.553,1364.5
637.685,1357.6
637.816,1355.0
637.948,1356.9
638.08,1353.1
638.212,1356.3
638.344,1356.9
638.476,1356.5
638.608,1347.7
638.74,1351.9
638.871,1352.1
639.003,1352.1
639.135,1362.4
639.267,1354.8
639.399,1358.0
639.531,1357.4
639.662,1360.9
639.794,1361.6
639.926,1366.4
640.058,1361.3
640.19,1363.1
640.322,1364.5
640.453,1371.4
640.585,1368.3
640.717,1371.3
640.849,1369.6
640.981,1364.7
641.113,1369.1
641.244,1367.8
641.376,1369.8
641.508,1384.0
641.64,1366.6
641.772,1387.2
641.903,1377.9
642.035,1378.2
642.167,1383.9
642.299,1382.3
642.43,1388.3
642.562,1390.7
642.694,1381.1
642.826,1385.1
642.958,1388.0
643.089,1381.5
643.221,1379.2
643.353,1378.3
643.485,1382.4
643.616,1386.1
643.748,1381.0
643.88,1369.4
644.012,1379.8
644.143,1376.6
644.275,1382.5
644.407,1374.2
644.538,1385.6
644.67,1375.4
644.802,1379.1
644.934,1370.8
645.065,1379.4
645.197,1389.6
645.329,1379.0
645.461,1386.4
645.592,1391.4
645.724,1381.6
645.856,1383.7
645.987,1394.5
646.119,1382.1
646.251,1384.6
646.382,1380.1
646.514,1385.9
646.646,1392.4
646.777,1397.3
646.909,1393.6
647.041,1396.1
647.172,1399.5
647.304,1393.4
647.436,1403.0
647.567,1402.1
647.699,1396.0
647.831,1399.1
647.962,1403.8
648.094,1406.1
648.226,1396.3
648.357,1407.3
648.489,1395.6
648.621,1397.9
648.752,1397.0
648.884,1396.5
649.016,1395.6
649.147,1406.3
649.279,1398.0
649.411,1397.2
649.542,1394.4
649.674,1396.4
649.805,1393.6
649.937,1405.4
650.069,1395.4
650.2,1403.3
650.332,1399.3
650.463,1402.1
650.595,1404.3
650.727,1400.6
650.858,1401.0
650.99,1406.3
651.121,1410.4
651.253,1409.4
651.385,1394.1
651.516,1400.5
651.648,1404.8
651.779,1414.4
651.911,1409.9
652.043,1404.5
652.174,1406.9
652.306,1419.6
652.437,1407.5
652.569,1414.0
652.7,1397.7
652.832,1418.1
652.963,1415.6
653.095,1411.5
653.227,1411.0
653.358,1409.2
653.49,1409.9
653.621,1409.1
653.753,1411.2
653.884,1414.2
654.016,1414.5
654.147,1415.8
654.279,1405.9
654.41,1422.6
654.542,1415.3
654.674,1410.2
654.805,1417.1
654.937,1412.0
655.068,1415.3
655.2,1405.0
655.331,1409.4
655.463,1403.2
655.594,1424.2
655.726,1413.3
655.857,1422.9
655.989,1410.7
656.12,1412.7
656.252,1410.3
656.383,1426.7
656.515,1424.9
656.646,1415.8
656.778,1411.5
656.909,1420.6
657.041,1417.4
657.172,1403.5
657.304,1415.6
657.435,1418.5
657.567,1414.2
657.698,1417.7
657.829,1407.9
657.961,1415.0
658.092,1419.7
658.224,1414.8
658.355,1412.1
658.487,1418.1
658.618,1420.0
658.75,1422.9
658.881,1414.7
659.013,1417.1
659.144,1403.8
659.275,1416.2
659.407,1418.8
659.538,1421.3
659.67,1416.8
659.801,1417.7
659.933,1419.5
660.064,1426.9
660.196,1420.0
660.327,1411.7
660.458,1419.5
660.59,1417.5
660.721,1410.1
660.853,1414.3
660.984,1408.8
661.116,1410.0
661.247,1416.2
661.378,1413.2
661.51,1405.2
661.641,1405.6
661.773,1406.0
661.904,1404.1
662.035,1406.1
662.167,1405.2
662.298,1403.9
662.43,1405.7
662.561,1409.5
662.692,1397.0
662.824,1398.4
662.955,1404.9
663.087,1397.8