File: spectra/VLFR_08-PLA_bio_Raman_93bc8ec3.csv
nm,Intensity
528.626,1863.6
528.795,1863.7
528.963,1863.1
529.132,1864.0
529.3,1862.9
529.469,1861.9
529.637,1863.6
529.806,1861.5
529.974,1862.6
530.143,1862.5
530.311,1863.4
530.48,1864.5
530.648,1862.9
530.816,1863.4
530.985,1864.9
531.153,1865.6
531.322,1867.3
531.49,1873.7
531.658,1915.5
531.827,2478.3
531.995,4778.9
532.164,4670.2
532.332,2208.5
532.5,1869.6
532.669,1864.8
532.837,1866.3
533.006,1865.0
533.174,1864.6
533.342,1868.3
533.511,1895.5
533.679,2053.4
533.847,2384.2
534.016,2584.5
534.184,2632.5
534.352,2525.2
534.521,2532.8
534.689,2518.3
534.857,2474.0
535.025,2449.2
535.194,2437.0
535.362,2419.1
535.53,2401.2
535.699,2358.1
535.867,2349.1
536.035,2354.2
536.203,2346.6
536.372,2352.4
536.54,2369.4
536.708,2386.5
536.876,2340.3
537.044,2326.2
537.213,2341.1
537.381,2345.4
537.549,2362.2
537.717,2347.7
537.885,2336.4
538.054,2327.1
538.222,2315.9
538.39,2295.1
538.558,2304.5
538.726,2303.3
538.894,2318.6
539.063,2286.0
539.231,2323.7
539.399,2310.7
539.567,2271.8
539.735,2271.2
539.903,2275.2
540.071,2297.8
540.239,2294.4
540.408,2315.2
540.576,2327.3
540.744,2336.2
540.912,2356.8
541.08,2353.7
541.248,2354.7
541.416,2333.4
541.584,2320.6
541.752,2317.7
541.92,2300.2
542.088,2311.9
542.256,2301.5
542.424,2314.1
542.592,2319.1
542.76,2337.1
542.928,2315.2
543.096,2363.7
543.264,2395.3
543.432,2425.1
543.6,2440.0
543.768,2441.4
543.936,2436.6
544.104,2413.9
544.272,2390.1
544.44,2362.8
544.608,2323.2
544.776,2351.0
544.944,2335.1
545.112,2328.9
545.28,2314.0
545.448,2322.6
545.616,2313.5
545.784,2305.4
545.951,2315.8
546.119,2302.8
546.287,2303.6
546.455,2314.7
546.623,2332.2
546.791,2321.8
546.959,2320.0
547.127,2320.1
547.294,2338.4
547.462,2314.4
547.63,2320.6
547.798,2323.6
547.966,2328.4
548.134,2334.4
548.301,2344.2
548.469,2357.6
548.637,2365.9
548.805,2338.7
548.972,2347.2
549.14,2334.6
549.308,2350.1
549.476,2347.0
549.644,2344.7
549.811,2353.4
549.979,2350.8
550.147,2356.7
550.315,2347.4
550.482,2360.4
550.65,2372.2
550.818,2378.9
550.985,2390.5
551.153,2375.4
551.321,2386.3
551.488,2403.8
551.656,2410.2
551.824,2412.9
551.991,2421.4
552.159,2402.2
552.327,2430.6
552.494,2405.8
552.662,2414.3
552.83,2406.2
552.997,2414.3
553.165,2418.6
553.333,2408.4
553.5,2392.1
553.668,2399.5
553.835,2447.4
554.003,2438.3
554.171,2458.6
554.338,2429.3
554.506,2422.4
554.673,2434.5
554.841,2423.3
555.008,2410.4
555.176,2411.7
555.343,2410.8
555.511,2398.9
555.679,2385.6
555.846,2411.6
556.014,2406.7
556.181,2391.2
556.349,2386.5
556.516,2406.0
556.684,2404.3
556.851,2395.8
557.018,2423.6
557.186,2455.9
557.353,2461.1
557.521,2535.1
557.688,2689.5
557.856,2856.7
558.023,2987.3
558.191,2929.7
558.358,2708.8
558.525,2558.0
558.693,2494.9
558.86,2476.7
559.028,2496.2
559.195,2495.6
559.362,2471.1
559.53,2453.8
559.697,2470.4
559.864,2455.8
560.032,2441.4
560.199,2430.3
560.366,2449.3
560.534,2449.5
560.701,2451.7
560.868,2457.6
561.036,2446.0
561.203,2432.1
561.37,2433.2
561.538,2446.5
561.705,2439.8
561.872,2457.2
562.039,2446.2
562.207,2449.5
562.374,2457.6
562.541,2466.5
562.708,2490.1
562.876,2525.6
563.043,2550.8
563.21,2572.5
563.377,2621.6
563.545,2646.6
563.712,2599.1
563.879,2546.8
564.046,2497.7
564.213,2486.5
564.38,2489.3
564.548,2531.4
564.715,2541.7
564.882,2561.9
565.049,2594.8
565.216,2617.7
565.383,2573.4
565.551,2587.2
565.718,2649.8
565.885,2682.0
566.052,2699.5
566.219,2708.7
566.386,2647.9
566.553,2588.9
566.72,2541.7
566.887,2515.6
567.054,2478.5
567.221,2490.0
567.388,2502.9
567.555,2502.8
567.722,2508.5
567.889,2528.1
568.057,2530.7
568.224,2522.7
568.391,2503.6
568.558,2525.2
568.725,2501.5
568.892,2521.1
569.058,2517.6
569.225,2531.5
569.392,2534.0
569.559,2526.7
569.726,2499.5
569.893,2517.9
570.06,2502.0
570.227,2514.8
570.394,2526.8
570.561,2499.1
570.728,2508.9
570.895,2547.8
571.062,2522.9
571.229,2560.5
571.395,2608.9
571.562,2642.4
571.729,2641.5
571.896,2629.0
572.063,2591.1
572.23,2601.2
572.397,2603.3
572.563,2589.7
572.73,2575.4
572.897,2581.0
573.064,2581.3
573.231,2583.5
573.397,2603.4
573.564,2584.4
573.731,2578.8
573.898,2575.9
574.064,2596.6
574.231,2589.4
574.398,2617.3
574.565,2609.4
574.731,2618.6
574.898,2562.2
575.065,2552.3
575.232,2511.6
575.398,2525.6
575.565,2565.6
575.732,2553.5
575.898,2559.2
576.065,2580.3
576.232,2648.1
576.398,2708.7
576.565,2832.6
576.732,2848.5
576.898,2873.6
577.065,2777.5
577.232,2664.5
577.398,2611.4
577.565,2576.8
577.731,2552.5
577.898,2536.3
578.065,2537.5
578.231,2518.6
578.398,2533.4
578.564,2508.7
578.731,2527.3
578.897,2531.0
579.064,2538.2
579.23,2514.0
579.397,2541.9
579.563,2528.9
579.73,2544.0
579.896,2533.8
580.063,2530.1
580.229,2544.8
580.396,2549.9
580.562,2526.2
580.729,2540.0
580.895,2545.3
581.062,2539.1
581.228,2514.0
581.395,2530.9
581.561,2530.9
581.728,2528.7
581.894,2539.5
582.06,2538.2
582.227,2546.8
582.393,2556.4
582.56,2546.4
582.726,2524.1
582.892,2555.7
583.059,2554.1
583.225,2548.3
583.391,2526.2
583.558,2563.4
583.724,2535.7
583.89,2541.0
584.057,2552.6
584.223,2553.6
584.389,2537.7
584.556,2546.6
584.722,2546.5
584.888,2546.6
585.054,2524.1
585.221,2538.8
585.387,2565.2
585.553,2541.1
585.719,2518.1
585.886,2545.2
586.052,2548.9
586.218,2579.6
586.384,2607.2
586.55,2633.7
586.717,2671.6
586.883,2731.8
587.049,2750.8
587.215,2774.4
587.381,2815.7
587.548,2817.4
587.714,2774.7
587.88,2700.9
588.046,2637.1
588.212,2600.2
588.378,2560.2
588.544,2554.3
588.71,2545.5
588.876,2526.7
589.043,2527.5
589.209,2513.3
589.375,2498.8
589.541,2515.1
589.707,2527.2
589.873,2528.9
590.039,2530.7
590.205,2523.7
590.371,2529.0
590.537,2526.3
590.703,2520.2
590.869,2544.7
591.035,2531.6
591.201,2525.8
591.367,2537.6
591.533,2509.0
591.699,2523.3
591.865,2531.3
592.031,2542.9
592.197,2527.4
592.363,2528.5
592.529,2527.2
592.694,2523.9
592.86,2539.1
593.026,2514.6
593.192,2510.7
593.358,2538.0
593.524,2515.2
593.69,2508.6
593.856,2496.9
594.021,2523.5
594.187,2531.3
594.353,2496.8
594.519,2496.4
594.685,2532.0
594.851,2525.5
595.016,2514.1
595.182,2520.1
595.348,2528.1
595.514,2516.5
595.68,2518.8
595.845,2540.7
596.011,2526.3
596.177,2544.1
596.342,2513.2
596.508,2529.0
596.674,2552.2
596.84,2516.0
597.005,2504.3
597.171,2522.0
597.337,2531.6
597.502,2521.8
597.668,2533.4
597.834,2513.8
597.999,2529.5
598.165,2518.7
598.331,2498.4
598.496,2522.4
598.662,2508.8
598.828,2515.1
598.993,2514.8
599.159,2512.0
599.324,2527.2
599.49,2540.9
599.656,2540.1
599.821,2525.6
599.987,2534.2
600.152,2515.7
600.318,2513.3
600.483,2505.7
600.649,2506.7
600.814,2513.2
600.98,2536.7
601.145,2514.8
601.311,2514.7
601.476,2504.0
601.642,2513.0
601.807,2514.6
601.973,2510.3
602.138,2516.4
602.304,2515.9
602.469,2518.9
602.635,2494.3
602.8,2517.3
602.965,2526.4
603.131,2500.5
603.296,2513.8
603.462,2513.7
603.627,2500.2
603.792,2518.4
603.958,2519.4
604.123,2505.8
604.288,2489.9
604.454,2499.8
604.619,2529.3
604.784,2487.7
604.95,2510.9
605.115,2507.5
605.28,2502.3
605.446,2509.7
605.611,2503.3
605.776,2496.1
605.941,2490.0
606.107,2493.6
606.272,2527.5
606.437,2508.5
606.602,2502.6
606.767,2487.6
606.933,2498.0
607.098,2505.8
607.263,2510.4
607.428,2501.3
607.593,2497.9
607.759,2478.4
607.924,2492.7
608.089,2498.9
608.254,2481.5
608.419,2505.6
608.584,2515.9
608.749,2486.1
608.915,2481.1
609.08,2485.5
609.245,2490.3
609.41,2491.4
609.575,2477.3
609.74,2487.9
609.905,2491.9
610.07,2486.2
610.235,2473.0
610.4,2502.6
610.565,2490.6
610.73,2465.8
610.895,2501.5
611.06,2480.8
611.225,2481.9
611.39,2494.7
611.555,2465.0
611.72,2464.7
611.885,2483.3
612.05,2484.0
612.215,2472.1
612.38,2461.3
612.545,2465.2
612.71,2480.8
612.875,2471.4
613.04,2470.4
613.204,2471.8
613.369,2476.9
613.534,2475.7
613.699,2453.3
613.864,2468.6
614.029,2478.4
614.194,2457.5
614.358,2470.2
614.523,2471.6
614.688,2468.3
614.853,2485.0
615.018,2458.2
615.182,2464.1
615.347,2469.4
615.512,2474.0
615.677,2458.3
615.841,2473.2
616.006,2478.9
616.171,2451.1
616.336,2451.9
616.5,2469.8
616.665,2492.8
616.83,2429.9
616.994,2477.9
617.159,2455.5
617.324,2454.0
617.489,2474.2
617.653,2454.1
617.818,2463.7
617.982,2471.6
618.147,2445.5
618.312,2460.2
618.476,2441.0
618.641,2466.6
618.805,2447.9
618.97,2434.3
619.135,2440.3
619.299,2455.1
619.464,2466.4
619.628,2456.9
619.793,2469.5
619.957,2457.1
620.122,2438.5
620.286,2465.9
620.451,2438.9
620.615,2447.6
620.78,2466.1
620.944,2432.2
621.109,2449.1
621.273,2441.5
621.438,2441.5
621.602,2444.0
621.767,2456.4
621.931,2433.9
622.095,2457.1
622.26,2484.0
622.424,2466.9
622.589,2482.1
622.753,2483.9
622.917,2467.4
623.082,2490.8
623.246,2483.3
623.41,2480.8
623.575,2483.3
623.739,2455.6
623.903,2481.6
624.068,2439.2
624.232,2463.0
624.396,2432.3
624.561,2423.0
624.725,2432.2
624.889,2440.9
625.053,2437.5
625.218,2439.4
625.382,2408.0
625.546,2414.3
625.71,2420.6
625.875,2417.1
626.039,2441.6
626.203,2413.6
626.367,2427.9
626.531,2431.5
626.695,2410.6
626.86,2430.7
627.024,2429.3
627.188,2426.9
627.352,2422.6
627.516,2436.9
627.68,2443.8
627.844,2447.1
628.008,2553.3
628.172,2609.2
628.337,2685.0
628.501,2730.0
628.665,2689.1
628.829,2656.7
628.993,2634.0
629.157,2635.8
629.321,2630.1
629.485,2658.5
629.649,2651.8
629.813,2671.0
629.977,2663.6
630.141,2681.1
630.305,2762.3
630.469,2907.9
630.633,3178.2
630.797,3623.9
630.96,4002.1
631.124,4169.2
631.288,3855.2
631.452,3570.8
631.616,3209.2
631.78,3004.0
631.944,2944.3
632.108,2864.9
632.272,2842.4
632.435,2795.7
632.599,2864.5
632.763,2928.1
632.927,3053.6
633.091,3182.2
633.254,3221.2
633.418,3140.9
633.582,3100.0
633.746,2987.9
633.91,2851.4
634.073,2737.1
634.237,2619.9
634.401,2579.3
634.564,2488.8
634.728,2456.7
634.892,2444.8
635.056,2435.5
635.219,2439.0
635.383,2393.6
635.547,2393.0
635.71,2392.7
635.874,2385.4
636.038,2360.9
636.201,2347.6
636.365,2379.1
636.528,2364.5
636.692,2372.1
636.856,2350.0
637.019,2347.3
637.183,2359.1
637.346,2359.3
637.51,2356.7
637.673,2351.4
637.837,2359.4
638.0,2343.7
638.164,2353.0
638.327,2342.7
638.491,2348.3
638.654,2353.3
638.818,2330.9
638.981,2341.8
639.145,2333.8
639.308,2334.6
639.472,2346.9
639.635,2354.8
639.799,2333.2
639.962,2327.1
640.125,2334.1
640.289,2359.4
640.452,2325.1
640.616,2328.6
640.779,2318.2
640.942,2326.0
641.106,2324.6
641.269,2321.3
641.432,2315.3
641.596,2325.0
641.759,2320.1
641.922,2318.3
642.085,2308.8
642.249,2316.7
642.412,2330.6
642.575,2313.5
642.738,2334.5
642.902,2320.9
643.065,2304.2
643.228,2298.7
643.391,2303.9
643.555,2296.7
643.718,2309.6
643.881,2289.8
644.044,2295.2
644.207,2326.6
644.37,2295.9
644.534,2293.8
644.697,2298.1
644.86,2286.7
645.023,2294.0
645.186,2271.0
645.349,2286.7
645.512,2287.5
645.675,2292.9
645.838,2284.7
646.001,2279.0
646.164,2270.9
646.327,2244.6
646.49,2287.3
646.653,2273.1
646.816,2264.1
646.979,2262.7
647.142,2258.3
647.305,2248.6
647.468,2255.5
647.631,2246.6
647.794,2260.4
647.957,2260.6
648.12,2252.5
648.283,2261.8
648.446,2242.7
648.609,2242.7
648.772,2257.3
648.935,2243.0
649.098,2233.4
649.26,2245.9
649.423,2244.1
649.586,2244.0
649.749,2234.8
649.912,2236.8
650.075,2215.0
650.237,2234.0
650.4,2234.5
650.563,2229.0
650.726,2238.5
650.888,2225.5
651.051,2239.1
651.214,2225.8
651.377,2225.0
651.539,2228.8
651.702,2216.9
651.865,2237.7
652.027,2213.0
652.19,2223.7
652.353,2225.6
652.515,2204.7
652.678,2218.3
652.841,2211.7
653.003,2213.4
653.166,2206.0
653.329,2199.6
653.491,2203.2
653.654,2192.5
653.816,2199.7
653.979,2197.0
654.142,2199.8
654.304,2188.9
654.467,2191.1
654.629,2190.4
654.792,2182.8
654.954,2206.3
655.117,2193.2
655.279,2184.4
655.442,2187.9
655.604,2185.6
655.767,2178.8
655.929,2184.9
656.091,2163.1
656.254,2169.9
656.416,2178.0
656.579,2164.3
656.741,2171.3
656.904,2182.2
657.066,2182.5
657.228,2180.8
657.391,2160.9
657.553,2164.6
657.715,2173.7
657.878,2174.6
658.04,2170.7
658.202,2154.1
658.365,2161.3
658.527,2155.3
658.689,2161.6
658.851,2151.4
659.014,2160.9
659.176,2149.1
659.338,2145.2
659.5,2149.1
659.663,2140.1
659.825,2149.2
659.987,2141.8
660.149,2137.9
660.311,2152.2
660.474,2141.0
660.636,2154.5
660.798,2139.5
660.96,2144.2
661.041,2134.3