File: spectra/VLFR_01-LDPE_bio_Raman_5580dad3.csv
nm,Intensity
526.508,831.0
526.645,829.6
526.782,830.6
526.919,830.9
527.055,829.0
527.192,831.1
527.329,831.0
527.465,830.2
527.602,829.6
527.739,830.7
527.875,830.3
528.012,830.9
528.149,831.4
528.285,829.5
528.422,829.9
528.558,830.3
528.695,831.0
528.832,830.0
528.968,831.4
529.105,830.0
529.241,830.0
529.378,830.8
529.514,830.4
529.651,829.7
529.787,829.2
529.924,830.2
530.061,830.9
530.197,829.2
530.334,830.0
530.47,829.6
530.606,830.9
530.743,829.6
530.879,830.7
531.016,830.1
531.152,830.2
531.289,829.5
531.425,830.6
531.562,830.7
531.698,829.2
531.834,829.3
531.971,835.4
532.107,868.8
532.244,886.1
532.38,842.5
532.516,831.3
532.653,830.1
532.789,830.3
532.925,831.4
533.062,830.5
533.198,831.3
533.334,829.7
533.471,829.7
533.607,830.2
533.743,836.3
533.879,871.9
534.016,923.2
534.152,950.5
534.288,948.8
534.424,936.8
534.561,937.2
534.697,929.5
534.833,925.6
534.969,922.1
535.106,918.9
535.242,914.4
535.378,903.1
535.514,898.8
535.65,893.8
535.786,890.4
535.923,891.3
536.059,885.6
536.195,886.6
536.331,881.7
536.467,879.9
536.603,878.6
536.739,878.3
536.876,877.3
537.012,877.9
537.148,875.1
537.284,876.0
537.42,875.8
537.556,877.3
537.692,876.9
537.828,875.5
537.964,873.8
538.1,878.5
538.236,871.3
538.372,871.1
538.508,871.8
538.644,869.4
538.78,869.4
538.916,867.8
539.052,866.8
539.188,866.8
539.324,866.0
539.46,864.6
539.596,863.7
539.732,865.0
539.868,864.1
540.004,861.0
540.14,862.4
540.275,860.2
540.411,861.6
540.547,859.4
540.683,860.0
540.819,859.0
540.955,858.2
541.091,859.6
541.227,857.9
541.362,858.8
541.498,858.5
541.634,858.0
541.77,856.1
541.906,856.5
542.041,857.3
542.177,858.6
542.313,856.7
542.449,856.7
542.585,857.7
542.72,856.2
542.856,855.6
542.992,856.9
543.128,853.9
543.263,856.1
543.399,854.4
543.535,853.9
543.67,854.8
543.806,856.7
543.942,855.9
544.078,855.9
544.213,855.7
544.349,854.2
544.485,854.8
544.62,854.0
544.756,853.9
544.892,852.8
545.027,856.4
545.163,852.5
545.298,853.0
545.434,853.9
545.57,851.5
545.705,854.7
545.841,852.8
545.976,853.1
546.112,854.3
546.248,853.1
546.383,853.7
546.519,852.1
546.654,852.5
546.79,850.6
546.925,850.2
547.061,851.2
547.196,854.5
547.332,853.1
547.467,850.8
547.603,851.7
547.738,854.5
547.874,852.7
548.009,851.5
548.145,850.5
548.28,851.1
548.416,850.6
548.551,853.3
548.686,851.2
548.822,849.1
548.957,852.7
549.093,851.2
549.228,849.6
549.363,851.5
549.499,850.1
549.634,849.6
549.77,853.6
549.905,851.8
550.04,850.9
550.176,849.5
550.311,851.1
550.446,849.5
550.582,850.7
550.717,851.0
550.852,850.0
550.988,849.3
551.123,851.3
551.258,850.8
551.394,850.9
551.529,852.6
551.664,852.4
551.799,852.7
551.935,848.5
552.07,851.8
552.205,851.7
552.34,850.1
552.476,850.9
552.611,852.7
552.746,850.1
552.881,851.9
553.016,856.1
553.152,853.0
553.287,854.3
553.422,856.2
553.557,858.5
553.692,857.8
553.827,858.3
553.963,858.3
554.098,857.1
554.233,859.6
554.368,857.6
554.503,857.8
554.638,859.2
554.773,859.6
554.908,860.4
555.043,858.2
555.179,856.1
555.314,857.2
555.449,859.6
555.584,859.2
555.719,861.5
555.854,859.5
555.989,863.7
556.124,862.4
556.259,866.9
556.394,863.0
556.529,864.2
556.664,866.5
556.799,865.7
556.934,867.3
557.069,867.3
557.204,869.1
557.339,869.8
557.474,870.9
557.609,870.5
557.744,871.8
557.879,872.0
558.014,872.5
558.149,872.4
558.284,875.2
558.419,875.5
558.553,875.4
558.688,873.8
558.823,875.4
558.958,874.9
559.093,870.5
559.228,872.8
559.363,870.9
559.498,870.5
559.632,870.2
559.767,871.6
559.902,872.8
560.037,871.6
560.172,872.9
560.307,867.9
560.441,876.3
560.576,872.0
560.711,872.3
560.846,872.2
560.981,872.7
561.115,870.8
561.25,876.3
561.385,872.8
561.52,875.3
561.654,876.6
561.789,877.3
561.924,874.9
562.059,876.9
562.193,877.0
562.328,881.1
562.463,880.2
562.598,883.2
562.732,880.1
562.867,884.8
563.002,885.8
563.136,889.5
563.271,889.9
563.406,890.9
563.54,895.4
563.675,900.2
563.81,912.3
563.944,962.2
564.079,1011.0
564.213,981.8
564.348,929.2
564.483,919.9
564.617,918.7
564.752,917.6
564.887,913.8
565.021,909.5
565.156,907.7
565.29,905.0
565.425,902.6
565.559,906.2
565.694,906.5
565.828,919.6
565.963,934.0
566.098,982.1
566.232,1000.4
566.367,963.2
566.501,930.0
566.636,909.7
566.77,907.1
566.905,906.9
567.039,905.2
567.174,906.3
567.308,906.0
567.443,917.3
567.577,920.7
567.711,912.9
567.846,905.1
567.98,904.1
568.115,902.7
568.249,905.4
568.384,902.2
568.518,904.9
568.652,905.7
568.787,906.2
568.921,909.3
569.056,912.3
569.19,915.6
569.324,910.4
569.459,914.0
569.593,914.9
569.727,918.5
569.862,921.0
569.996,919.2
570.131,923.0
570.265,926.6
570.399,928.6
570.534,931.9
570.668,932.1
570.802,934.3
570.936,937.8
571.071,944.4
571.205,952.2
571.339,972.0
571.474,1064.7
571.608,1155.9
571.742,1065.1
571.876,1007.9
572.011,988.4
572.145,982.7
572.279,974.0
572.413,966.6
572.548,965.7
572.682,961.1
572.816,963.6
572.95,959.5
573.084,965.7
573.219,966.5
573.353,963.7
573.487,970.1
573.621,974.7
573.755,981.4
573.889,987.9
574.024,991.5
574.158,994.3
574.292,991.3
574.426,991.8
574.56,991.6
574.694,995.1
574.828,999.1
574.963,1000.4
575.097,1006.6
575.231,1015.2
575.365,1020.3
575.499,1060.7
575.633,1090.6
575.767,1082.8
575.901,1090.3
576.035,1119.7
576.169,1175.2
576.303,1241.4
576.437,1245.0
576.571,1199.1
576.706,1193.5
576.84,1188.9
576.974,1197.3
577.108,1203.5
577.242,1197.8
577.376,1177.2
577.51,1156.6
577.644,1149.4
577.778,1152.6
577.912,1156.5
578.046,1162.8
578.179,1160.1
578.313,1172.2
578.447,1186.3
578.581,1198.0
578.715,1207.4
578.849,1212.3
578.983,1217.2
579.117,1228.7
579.251,1243.9
579.385,1252.5
579.519,1269.0
579.653,1272.9
579.787,1286.3
579.921,1298.1
580.054,1303.8
580.188,1311.3
580.322,1324.1
580.456,1335.8
580.59,1343.5
580.724,1356.2
580.858,1360.1
580.991,1371.8
581.125,1389.3
581.259,1385.3
581.393,1403.8
581.527,1408.9
581.661,1418.3
581.794,1423.8
581.928,1429.4
582.062,1442.4
582.196,1450.6
582.33,1454.6
582.463,1458.2
582.597,1469.1
582.731,1476.2
582.865,1484.2
582.998,1488.3
583.132,1494.2
583.266,1499.1
583.4,1499.4
583.533,1499.9
583.667,1502.6
583.801,1513.3
583.935,1501.1
584.068,1513.7
584.202,1503.6
584.336,1513.5
584.469,1516.3
584.603,1513.4
584.737,1521.8
584.87,1530.4
585.004,1524.1
585.138,1521.2
585.271,1525.5
585.405,1523.6
585.539,1531.6
585.672,1541.9
585.806,1535.3
585.94,1525.3
586.073,1542.4
586.207,1542.4
586.34,1548.6
586.474,1542.1
586.608,1545.4
586.741,1557.3
586.875,1551.5
587.008,1561.1
587.142,1576.0
587.276,1565.0
587.409,1578.6
587.543,1580.6
587.676,1581.4
587.81,1581.5
587.943,1584.0
588.077,1595.7
588.21,1581.6
588.344,1590.8
588.478,1600.1
588.611,1598.6
588.745,1603.3
588.878,1619.5
589.012,1615.1
589.145,1632.0
589.279,1636.5
589.412,1636.3
589.546,1636.3
589.679,1645.1
589.812,1632.3
589.946,1657.7
590.079,1665.8
590.213,1663.6
590.346,1669.1
590.48,1678.9
590.613,1678.6
590.747,1694.8
590.88,1699.9
591.013,1697.2
591.147,1700.9
591.28,1705.6
591.414,1703.0
591.547,1726.6
591.68,1712.3
591.814,1728.1
591.947,1727.4
592.081,1723.1
592.214,1722.6
592.347,1738.4
592.481,1724.8
592.614,1736.3
592.747,1723.7
592.881,1732.6
593.014,1724.2
593.147,1732.0
593.281,1733.6
593.414,1731.9
593.547,1723.3
593.681,1735.3
593.814,1723.6
593.947,1734.3
594.081,1736.8
594.214,1735.5
594.347,1736.9
594.48,1738.0
594.614,1738.0
594.747,1738.1
594.88,1729.1
595.014,1735.7
595.147,1732.0
595.28,1737.3
595.413,1733.2
595.547,1734.9
595.68,1737.1
595.813,1732.6
595.946,1736.9
596.079,1734.0
596.213,1725.6
596.346,1722.7
596.479,1735.3
596.612,1735.7
596.745,1726.8
596.879,1730.4
597.012,1722.7
597.145,1728.8
597.278,1736.1
597.411,1737.4
597.545,1726.2
597.678,1731.6
597.811,1729.9
597.944,1737.3
598.077,1738.7
598.21,1727.5
598.343,1736.6
598.476,1738.1
598.61,1736.8
598.743,1740.7
598.876,1732.3
599.009,1742.9
599.142,1736.1
599.275,1742.3
599.408,1742.1
599.541,1727.8
599.674,1740.5
599.807,1735.8
599.941,1729.9
600.074,1735.0
600.207,1723.8
600.34,1728.1
600.473,1722.7
600.606,1726.3
600.739,1713.6
600.872,1708.7
601.005,1698.9
601.138,1697.4
601.271,1706.9
601.404,1704.8
601.537,1696.4
601.67,1697.5
601.803,1690.1
601.936,1694.9
602.069,1692.2
602.202,1687.7
602.335,1681.6
602.468,1668.7
602.601,1675.7
602.734,1677.4
602.867,1659.8
603.0,1662.4
603.133,1655.6
603.266,1647.6
603.399,1648.5
603.532,1621.2
603.664,1634.5
603.797,1618.8
603.93,1624.1
604.063,1601.1
604.196,1606.6
604.329,1591.1
604.462,1583.7
604.595,1580.8
604.728,1573.0
604.861,1560.9
604.994,1547.2
605.126,1551.4
605.259,1535.0
605.392,1521.2
605.525,1519.8
605.658,1508.7
605.791,1501.0
605.924,1503.5
606.056,1487.7
606.189,1478.6
606.322,1472.1
606.455,1462.7
606.588,1461.8
606.721,1453.3
606.853,1447.0
606.986,1438.6
607.119,1435.1
607.252,1432.1
607.385,1422.5
607.517,1411.0
607.65,1410.8
607.783,1408.8
607.916,1409.2
608.049,1399.9
608.181,1386.0
608.314,1402.0
608.447,1385.7
608.58,1388.7
608.712,1378.8
608.845,1378.6
608.978,1367.8
609.111,1362.3
609.243,1361.8
609.376,1357.3
609.509,1359.2
609.641,1345.2
609.774,1339.1
609.907,1340.4
610.04,1329.9
610.172,1337.1
610.305,1327.7
610.438,1327.3
610.57,1326.2
610.703,1324.9
610.836,1317.8
610.968,1309.7
611.101,1309.0
611.234,1306.0
611.366,1303.3
611.499,1307.7
611.632,1300.0
611.764,1298.5
611.897,1299.4
612.03,1291.0
612.162,1287.4
612.295,1292.1
612.428,1289.0
612.56,1286.9
612.693,1279.4
612.825,1286.6
612.958,1278.0
613.091,1280.2
613.223,1273.1
613.356,1279.8
613.488,1265.9
613.621,1270.6
613.754,1272.8
613.886,1266.7
614.019,1263.9
614.151,1264.3
614.284,1258.2
614.416,1248.0
614.549,1254.9
614.681,1247.4
614.814,1250.8
614.947,1246.3
615.079,1248.7
615.212,1239.8
615.344,1237.8
615.477,1235.4
615.609,1226.7
615.742,1232.4
615.874,1225.1
616.007,1224.3
616.139,1225.7
616.272,1222.9
616.404,1223.7
616.537,1225.8
616.669,1223.6
616.802,1215.6
616.934,1220.1
617.067,1226.8
617.199,1228.8
617.332,1219.1
617.464,1218.6
617.596,1214.8
617.729,1224.4
617.861,1219.8
617.994,1209.8
618.126,1213.8
618.259,1207.6
618.391,1210.8
618.524,1212.2
618.656,1208.9
618.788,1205.4
618.921,1215.2
619.053,1201.8
619.186,1205.0
619.318,1209.4
619.45,1201.3
619.583,1206.4
619.715,1212.0
619.848,1203.0
619.98,1204.7
620.112,1205.6
620.245,1207.8
620.377,1203.9
620.509,1202.4
620.642,1203.8
620.774,1207.0
620.907,1201.7
621.039,1203.7
621.171,1206.8
621.304,1215.6
621.436,1223.3
621.568,1219.6
621.701,1234.4
621.833,1239.0
621.965,1251.7
622.097,1261.4
622.23,1260.3
622.362,1272.3
622.494,1271.0
622.627,1254.2
622.759,1245.1
622.891,1235.1
623.024,1226.1
623.156,1229.3
623.288,1213.4
623.42,1220.9
623.553,1213.4
623.685,1219.3
623.817,1216.5
623.949,1216.3
624.082,1215.4
624.214,1210.2
624.346,1218.7
624.479,1218.2
624.611,1211.5
624.743,1222.2
624.875,1231.3
625.007,1222.8
625.14,1227.8
625.272,1228.6
625.404,1224.6
625.536,1235.4
625.669,1238.6
625.801,1239.1
625.933,1253.3
626.065,1261.6
626.197,1267.3
626.33,1284.9
626.462,1313.3
626.594,1360.0
626.726,1452.2
626.858,1612.7
626.99,1843.8
627.123,2141.9
627.255,2300.1
627.387,2246.3
627.519,2121.6
627.651,1992.9
627.783,1909.8
627.916,1862.8
628.048,1844.9
628.18,1866.9
628.312,1952.1
628.444,2185.9
628.576,2446.2
628.708,2305.2
628.84,2047.7
628.973,1925.3
629.105,1894.0
629.237,1866.1
629.369,1836.5
629.501,1795.7
629.633,1739.9
629.765,1708.2
629.897,1673.3
630.029,1671.4
630.161,1646.4
630.294,1646.4
630.426,1636.6
630.558,1634.6
630.69,1619.9
630.822,1564.4
630.954,1528.4
631.086,1467.4
631.218,1418.3
631.35,1390.8
631.482,1370.4
631.614,1376.4
631.746,1369.6
631.878,1366.3
632.01,1345.4
632.142,1346.2
632.274,1340.3
632.406,1343.5
632.538,1325.1
632.67,1340.7
632.802,1330.7
632.934,1337.5
633.066,1335.9
633.198,1330.8
633.33,1326.5
633.462,1332.8
633.594,1326.2
633.726,1329.2
633.858,1321.7
633.99,1330.2
634.122,1320.7
634.254,1326.3
634.386,1333.6
634.518,1324.5
634.65,1322.9
634.782,1326.2
634.914,1336.2
635.046,1329.4
635.178,1334.4
635.31,1325.5
635.442,1325.0
635.574,1323.3
635.706,1329.2
635.838,1327.9
635.97,1329.0
636.102,1321.7
636.234,1327.5
636.365,1324.9
636.497,1316.4
636.629,1327.2
636.761,1322.1
636.893,1326.3
637.025,1318.5
637.157,1319.9
637.289,1313.2
637.421,1308.8
637.553,1314.3
637.685,1310.4
637.816,1317.6
637.948,1306.6
638.08,1312.8
638.212,1312.1
638.344,1310.9
638.476,1305.7
638.608,1304.4
638.74,1307.4
638.871,1304.8
639.003,1307.2
639.135,1308.3
639.267,1316.0
639.399,1313.4
639.531,1305.5
639.662,1297.0
639.794,1312.4
639.926,1307.2
640.058,1313.7
640.19,1309.8
640.322,1309.2
640.453,1300.0
640.585,1304.7
640.717,1311.4
640.849,1298.5
640.981,1301.8
641.113,1311.2
641.244,1314.1
641.376,1318.1
641.508,1314.6
641.64,1305.9
641.772,1310.0
641.903,1315.9
642.035,1310.4
642.167,1310.4
642.299,1314.8
642.43,1312.3
642.562,1314.0
642.694,1310.0
642.826,1309.1
642.958,1309.8
643.089,1318.5
643.221,1312.5
643.353,1306.1
643.485,1303.4
643.616,1300.9
643.748,1313.9
643.88,1307.4
644.012,1306.9
644.143,1312.8
644.275,1309.3
644.407,1308.1
644.538,1309.2
644.67,1301.0
644.802,1297.4
644.934,1293.7
645.065,1300.2
645.197,1304.3
645.329,1302.8
645.461,1299.6
645.592,1297.2
645.724,1296.5
645.856,1294.0
645.987,1299.1
646.119,1296.0
646.251,1296.0
646.382,1300.3
646.514,1291.7
646.646,1293.0
646.777,1300.2
646.909,1298.4
647.041,1297.0
647.172,1293.2
647.304,1292.6
647.436,1287.6
647.567,1282.8
647.699,1283.4
647.831,1288.6
647.962,1291.8
648.094,1288.0
648.226,1282.3
648.357,1281.3
648.489,1284.1
648.621,1279.8
648.752,1279.5
648.884,1271.4
649.016,1277.2
649.147,1268.8
649.279,1268.8
649.411,1269.9
649.542,1272.9
649.674,1267.5
649.805,1256.0
649.937,1261.2
650.069,1266.3
650.2,1260.5
650.332,1264.3
650.463,1253.3
650.595,1253.9
650.727,1257.3
650.858,1255.7
650.99,1261.9
651.121,1252.8
651.253,1251.1
651.385,1255.4
651.516,1247.4
651.648,1251.0
651.779,1246.9
651.911,1248.5
652.043,1247.4
652.174,1250.6
652.306,1250.8
652.437,1249.4
652.569,1250.9
652.7,1243.3
652.832,1248.4
652.963,1241.4
653.095,1249.2
653.227,1238.6
653.358,1235.0
653.49,1243.8
653.621,1236.2
653.753,1238.4
653.884,1240.2
654.016,1232.4
654.147,1241.5
654.279,1239.2
654.41,1235.0
654.542,1237.0
654.674,1225.4
654.805,1225.0
654.937,1231.6
655.068,1222.7
655.2,1229.9
655.331,1218.8
655.463,1217.3
655.594,1222.2
655.726,1216.2
655.857,1217.0
655.989,1219.1
656.12,1210.2
656.252,1213.6
656.383,1209.4
656.515,1206.7
656.646,1206.1
656.778,1208.2
656.909,1202.6
657.041,1202.6
657.172,1202.3
657.304,1196.4
657.435,1195.8
657.567,1192.0
657.698,1187.4
657.829,1189.8
657.961,1185.1
658.092,1187.8
658.224,1183.2
658.355,1181.2
658.487,1180.6
658.618,1172.2
658.75,1164.8
658.881,1177.9
659.013,1169.1
659.144,1167.0
659.275,1174.4
659.407,1162.6
659.538,1162.5
659.67,1155.2
659.801,1149.2
659.933,1159.6
660.064,1147.7
660.196,1146.0
660.327,1142.7
660.458,1144.5
660.59,1136.5
660.721,1138.5
660.853,1134.3
660.984,1129.6
661.116,1127.7
661.247,1127.2
661.378,1122.9
661.51,1119.1
661.641,1110.4
661.773,1115.6
661.904,1103.5
662.035,1103.2
662.167,1105.0
662.298,1098.5
662.43,1099.5
662.561,1103.5
662.692,1092.9
662.824,1089.9
662.955,1091.2
663.087,1087.2