File: spectra/VLFR_07-PET_nobio_Raman_4a919f06.csv
nm,Intensity
791.588,23174.4
791.862,23062.7
792.136,22735.0
792.411,23031.5
792.685,22994.4
792.959,23089.4
793.233,23164.7
793.507,23171.0
793.781,23069.2
794.056,22895.4
794.33,23163.0
794.604,22894.7
794.878,22826.3
795.152,23097.7
795.426,23507.5
795.701,23244.6
795.975,23173.4
796.249,23173.4
796.523,23509.4
796.797,23345.2
797.071,23471.1
797.345,23249.2
797.619,23274.6
797.894,23320.0
798.168,23326.9
798.442,23485.7
798.716,23270.0
798.99,23417.3
799.264,23625.2
799.538,23301.0
799.812,23352.1
800.086,23491.2
800.36,23608.8
800.634,23522.4
800.908,23146.3
801.182,23066.2
801.456,23087.1
801.73,23066.9
802.004,23202.8
802.278,23301.2
802.552,23181.9
802.826,23303.9
803.1,23118.1
803.374,22999.7
803.648,23310.9
803.922,23188.7
804.196,22973.4
804.47,23099.0
804.744,23050.2
805.018,23092.0
805.292,22636.5
805.566,22946.8
805.84,23026.8
806.114,22860.4
806.388,22989.5
806.662,22972.2
806.936,22798.7
807.209,22741.8
807.483,22779.5
807.757,23034.8
808.031,23095.1
808.305,22785.0
808.579,22784.2
808.853,22817.6
809.127,22654.2
809.4,22726.1
809.674,22919.1
809.948,22712.0
810.222,22600.8
810.496,22361.9
810.77,22683.0
811.043,22768.6
811.317,22804.7
811.591,22772.7
811.865,22550.5
812.139,22778.4
812.412,22571.6
812.686,22506.8
812.96,22383.6
813.234,22415.9
813.507,22622.6
813.781,22615.3
814.055,22674.2
814.329,22434.5
814.602,22849.1
814.876,22413.7
815.15,22200.2
815.424,21942.0
815.697,22319.0
815.971,22335.1
816.245,22070.7
816.518,22292.7
816.792,22410.2
817.066,22326.5
817.34,22070.5
817.613,21948.1
817.887,22217.6
818.161,22604.8
818.434,22013.3
818.708,21972.9
818.981,22013.4
819.255,22104.4
819.529,21888.1
819.802,22200.0
820.076,21969.7
820.35,21808.1
820.623,21854.4
820.897,21837.0
821.17,22120.9
821.444,21992.9
821.718,21704.8
821.991,21444.0
822.265,21533.3
822.538,21723.5
822.812,21615.4
823.085,21517.3
823.359,21817.0
823.632,21782.0
823.906,21228.1
824.18,21382.7
824.453,21369.3
824.727,21289.0
825.0,21304.7
825.274,21546.1
825.547,21164.0
825.821,21065.5
826.094,21178.1
826.367,21352.9
826.641,21115.3
826.914,21048.4
827.188,20912.5
827.461,20835.2
827.735,21152.1
828.008,21149.9
828.282,20849.6
828.555,21028.5
828.828,20861.0
829.102,20670.7
829.375,20706.6
829.649,20460.0
829.922,20371.6
830.195,20618.3
830.469,20806.5
830.742,20733.6
831.016,20321.7
831.289,20342.5
831.562,20373.2
831.836,20219.9
832.109,20163.5
832.382,20193.9
832.656,20210.8
832.929,20403.4
833.202,20272.2
833.476,19988.5
833.749,19914.3
834.022,20035.9
834.295,20049.3
834.569,19771.2
834.842,19783.8
835.115,19529.6
835.388,19791.4
835.662,19563.7
835.935,19582.0
836.208,19668.0
836.481,19220.7
836.755,19326.5
837.028,19893.3
837.301,19842.4
837.574,19773.3
837.848,19407.4
838.121,19749.2
838.394,19443.6
838.667,19282.7
838.94,19242.7
839.213,19321.6
839.487,19406.5
839.76,19126.6
840.033,19187.5
840.306,19050.4
840.579,18955.0
840.852,18898.3
841.125,19240.0
841.399,18804.2
841.672,18814.5
841.945,18955.4
842.218,19215.0
842.491,18760.0
842.764,18753.0
843.037,18636.9
843.31,18805.2
843.583,18855.9
843.856,18750.6
844.129,18898.0
844.402,18532.2
844.675,18374.1
844.948,18327.1
845.221,18526.7
845.495,18749.0
845.768,18399.9
846.041,18301.8
846.314,18053.4
846.586,17892.3
846.859,17867.2
847.132,18159.2
847.405,18425.0
847.678,18183.9
847.951,17966.7
848.224,17857.7
848.497,17987.2
848.77,17936.1
849.043,18067.2
849.316,18115.5
849.589,17759.2
849.862,17668.1
850.135,17892.7
850.408,17849.6
850.681,17583.4
850.953,17733.9
851.226,17704.0
851.499,17619.1
851.772,17357.6
852.045,17699.4
852.318,17774.6
852.591,17227.5
852.863,17503.0
853.136,17452.3
853.409,17267.3
853.682,17256.2
853.955,17493.7
854.227,17620.3
854.5,17524.4
854.773,17173.7
855.046,17099.8
855.318,17223.5
855.591,17334.9
855.864,17134.0
856.137,17289.0
856.409,17104.3
856.682,17105.4
856.955,17219.2
857.228,17103.8
857.5,16911.5
857.773,16944.2
858.046,16866.0
858.318,16872.1
858.591,16815.4
858.864,16833.2
859.137,17035.1
859.409,17074.2
859.682,16747.7
859.954,16821.0
860.227,16607.4
860.5,16516.7
860.772,16499.4
861.045,16447.3
861.318,16139.1
861.59,16255.5
861.863,16491.2
862.135,16423.5
862.408,16254.3
862.681,16349.6
862.953,16276.6
863.226,16031.6
863.498,16169.9
863.771,16427.6
864.043,16346.6
864.316,16262.2
864.588,16402.1
864.861,16173.8
865.133,15977.6
865.406,16002.3
865.678,15826.9
865.951,15944.5
866.223,15742.3
866.496,15720.5
866.768,15724.0
867.041,15853.5
867.313,15908.2
867.586,15508.6
867.858,15660.5
868.131,15605.7
868.403,15487.9
868.675,15488.8
868.948,15519.7
869.22,15689.9
869.493,15471.5
869.765,15313.7
870.037,15547.4
870.31,15354.2
870.582,15336.5
870.854,15267.6
871.127,15144.1
871.399,15239.2
871.672,15284.6
871.944,15481.4
872.216,15162.3
872.488,15167.8
872.761,15173.5
873.033,15260.1
873.305,14981.9
873.578,14908.0
873.85,14946.9
874.122,14967.2
874.394,14764.2
874.667,14889.2
874.939,14700.0
875.211,14446.1
875.483,14661.1
875.756,14698.8
876.028,14578.5
876.3,14536.9
876.572,14552.2
876.845,14767.9
877.117,14417.8
877.389,14339.8
877.661,14500.9
877.933,14290.7
878.205,14415.1
878.478,14655.1
878.75,14560.4
879.022,14109.8
879.294,14186.2
879.566,14084.5
879.838,13828.8
880.11,13938.2
880.382,14092.4
880.654,14022.7
880.927,13827.1
881.199,13819.8
881.471,13856.4
881.743,13961.3
882.015,13923.7
882.287,13823.9
882.559,13767.0
882.831,13462.8
883.103,13706.2
883.375,13700.0
883.647,13700.1
883.919,13630.1
884.191,13342.6
884.463,13290.8
884.735,13339.3
885.007,13510.5
885.279,13525.9
885.551,13430.6
885.823,13372.0
886.095,13238.9
886.367,13076.9
886.639,13080.6
886.91,13128.1
887.182,12919.2
887.454,12919.4
887.726,12871.0
887.998,13011.9
888.27,13000.8
888.542,12851.9
888.814,12859.6
889.085,12843.6
889.357,12752.0
889.629,12593.3
889.901,12462.7
890.173,12627.0
890.445,12777.6
890.716,12823.8
890.988,12790.0
891.26,12558.3
891.532,12530.7
891.804,12454.2
892.075,12306.5
892.347,12221.2
892.619,12230.4
892.891,12220.4
893.162,12291.7
893.434,12128.8
893.706,12202.4
893.978,12178.5
894.249,12082.0
894.521,11989.8
894.793,11930.4
895.064,11845.1
895.336,11845.3
895.608,11861.8
895.879,11936.1
896.151,11865.3
896.423,11678.6
896.694,11703.6
896.966,11666.8
897.237,11740.5
897.509,11767.8
897.781,11890.2
898.052,11830.1
898.324,11596.2
898.595,11603.3
898.867,11762.6
899.139,11831.5
899.41,11626.4
899.682,11504.9
899.953,11391.9
900.225,11234.0
900.496,11187.2
900.768,11187.5
901.039,11176.7
901.311,11224.4
901.582,11127.2
901.854,11124.8
902.125,11106.0
902.397,10941.6
902.668,10888.4
902.94,10966.4
903.211,10998.9
903.482,10875.0
903.754,10872.7
904.025,10678.0
904.297,10734.6
904.568,10801.8
904.839,10724.3
905.111,10743.3
905.382,10797.9
905.654,10764.1
905.925,10578.3
906.196,10552.2
906.468,10578.8
906.739,10577.1
907.01,10488.4
907.282,10609.2
907.553,10442.3
907.824,10427.8
908.096,10506.6
908.367,10374.3
908.638,10307.0
908.909,10357.3
909.181,10533.8
909.452,10434.7
909.723,10227.0
909.994,10065.7
910.266,10214.4
910.537,10098.7
910.808,10030.3
911.079,9986.6
911.35,9823.5
911.622,9908.8
911.893,9833.5
912.164,9883.7
912.435,9739.2
912.706,9628.7
912.977,9753.1
913.249,9924.1
913.52,9802.4
913.791,9600.5
914.062,9641.4
914.333,9731.3
914.604,9684.5
914.875,9587.0
915.146,9541.8
915.417,9347.5
915.688,9292.3
915.959,9319.1
916.231,9206.1
916.502,9228.6
916.773,9350.1
917.044,9279.7
917.315,9336.5
917.586,9381.6
917.857,9179.0
918.128,9108.6
918.399,9135.9
918.67,9060.5
918.941,9090.9
919.211,9083.5
919.482,8987.8
919.753,8950.1
920.024,8942.1
920.295,8945.7
920.566,8819.3
920.837,8814.8
921.108,8920.7
921.379,8862.9
921.65,8811.2
921.921,8799.6
922.191,8596.2
922.462,8580.1
922.733,8601.9
923.004,8591.9
923.275,8528.1
923.546,8454.8
923.816,8466.5
924.087,8504.5
924.358,8375.0
924.629,8462.5
924.9,8433.3
925.17,8410.6
925.441,8352.9
925.712,8468.8
925.983,8436.6
926.253,8298.1
926.524,8184.1
926.795,8168.7
927.065,8124.7
927.336,8052.0
927.607,8143.1
927.877,8155.2
928.148,8097.6
928.419,8023.8
928.689,8029.2
928.96,7997.6
929.231,7932.9
929.501,7875.3
929.772,7795.5
930.043,7807.7
930.313,7723.8
930.584,7782.9
930.854,7811.3
931.125,7813.0
931.396,7648.6
931.666,7721.9
931.937,7730.5
932.207,7617.2
932.478,7638.6
932.748,7576.5
933.019,7551.1
933.289,7592.0
933.56,7674.3
933.83,7637.6
934.101,7456.3
934.371,7379.2
934.642,7307.9
934.912,7301.7
935.183,7323.4
935.453,7418.1
935.723,7407.9
935.994,7404.7
936.264,7245.8
936.535,7143.9
936.805,7167.0
937.075,7155.5
937.346,7197.9
937.616,7174.1
937.886,7170.0
938.157,7131.0
938.427,7036.6
938.697,6940.9
938.968,6933.4
939.238,6900.4
939.508,6958.7
939.779,6931.2
940.049,6940.2
940.319,6979.2
940.59,6997.1
940.86,6949.7
941.13,6903.9
941.4,6832.6
941.671,6803.4
941.941,6750.6
942.211,6765.1
942.481,6742.8
942.751,6723.3
943.022,6693.9
943.292,6664.4
943.562,6653.2
943.832,6674.4
944.102,6591.0
944.372,6625.3
944.642,6525.8
944.913,6454.8
945.183,6501.6
945.453,6545.8
945.723,6579.5
945.993,6518.0
946.263,6432.0
946.533,6407.0
946.803,6433.2
947.073,6487.0
947.343,6387.5
947.613,6313.9
947.883,6250.4
948.153,6231.3
948.423,6233.0
948.693,6271.3
948.963,6243.3
949.233,6249.9
949.503,6307.7
949.773,6327.4
950.043,6252.1
950.313,6166.4
950.583,6116.9
950.853,6133.2
951.123,6108.5
951.393,6139.4
951.663,6083.0
951.933,6058.3
952.202,6089.2
952.472,6048.3
952.742,6054.3
953.012,6012.4
953.282,5980.0
953.552,5945.3
953.822,5891.7
954.091,5893.5
954.361,5879.8
954.631,5915.3
954.901,5867.8
955.17,5872.2
955.44,5836.1
955.71,5843.3
955.98,5816.7
956.25,5786.4
956.519,5798.1
956.789,5812.1
957.059,5719.1
957.328,5657.7
957.598,5725.8
957.868,5738.9
958.137,5714.6
958.407,5624.5
958.677,5601.0
958.946,5651.7
959.216,5627.7
959.486,5614.7
959.755,5567.7
960.025,5537.0
960.294,5590.2
960.564,5568.9
960.834,5504.8
961.103,5498.9
961.373,5499.1
961.642,5491.2
961.912,5412.3
962.181,5469.5
962.451,5448.9
962.72,5439.2
962.99,5434.7
963.259,5418.3
963.529,5394.8
963.798,5358.7
964.068,5335.7
964.337,5355.3
964.607,5373.8
964.876,5369.4
965.146,5297.2
965.415,5289.7
965.684,5283.6
965.954,5321.9
966.223,5293.9
966.493,5262.3
966.762,5228.3
967.031,5222.3
967.301,5218.4
967.57,5206.2
967.839,5222.7
968.109,5171.9
968.378,5128.2
968.647,5181.2
968.917,5173.5
969.186,5150.9
969.455,5141.1
969.724,5115.4
969.994,5077.3
970.263,5069.6
970.532,5055.1
970.801,5091.1
971.071,5090.4
971.34,5069.5
971.609,5025.2
971.878,4987.1
972.147,4996.3
972.417,5006.1
972.686,5006.3
972.955,4994.5
973.224,5012.5
973.493,4970.3
973.762,4922.4
974.031,4897.6
974.3,4920.0
974.57,4910.9
974.839,4905.3
975.108,4913.8
975.377,4913.2
975.646,4908.6
975.915,4901.9
976.184,4910.4
976.453,4904.9
976.722,4857.9
976.991,4837.0
977.26,4828.0
977.529,4825.2
977.798,4796.6
978.067,4830.8
978.336,4778.2
978.605,4767.9
978.874,4741.1
979.143,4762.0
979.412,4764.5
979.68,4719.1
979.949,4690.3
980.218,4701.8
980.487,4670.6
980.756,4654.4
981.025,4695.6
981.294,4699.9
981.563,4720.4
981.831,4695.4
982.1,4686.4
982.369,4647.4
982.638,4610.5
982.907,4617.9
983.175,4631.6
983.444,4632.0
983.713,4647.7
983.982,4640.5
984.25,4631.2
984.519,4610.1
984.788,4608.9
985.057,4586.8
985.325,4577.4
985.594,4562.7
985.863,4553.3
986.131,4548.7
986.4,4540.1
986.669,4540.2
986.937,4532.4
987.206,4492.8
987.475,4480.5
987.743,4492.7
988.012,4495.9
988.28,4505.1
988.549,4486.8
988.817,4477.4
989.086,4495.4
989.355,4472.7
989.623,4447.1
989.892,4452.8
990.16,4455.7
990.429,4454.7
990.697,4443.6
990.966,4424.0
991.234,4436.0
991.503,4433.0
991.771,4411.9
992.04,4407.1
992.308,4407.5
992.576,4391.9
992.845,4358.3
993.113,4377.6
993.382,4366.8
993.65,4374.2
993.918,4372.2
994.187,4358.5
994.455,4355.8
994.723,4348.4
994.992,4337.4
995.26,4347.9
995.528,4335.8
995.797,4322.1
996.065,4327.1
996.333,4316.5
996.602,4289.6
996.87,4300.9
997.138,4312.4
997.406,4281.7
997.675,4280.6
997.943,4274.4
998.211,4264.1
998.479,4269.4
998.747,4252.5
999.016,4260.3
999.284,4244.3
999.552,4249.1
999.82,4259.9
1000.09,4241.3
1000.36,4246.0
1000.62,4229.3
1000.89,4218.0
1001.16,4215.8
1001.43,4220.1
1001.7,4218.6
1001.97,4199.9
1002.23,4188.1
1002.5,4191.3
1002.77,4191.1
1003.04,4171.2
1003.31,4170.6
1003.57,4171.2
1003.84,4169.3
1004.11,4174.4
1004.38,4176.6
1004.65,4165.6
1004.91,4154.3
1005.18,4155.5
1005.45,4156.4
1005.72,4148.4
1005.98,4134.6
1006.25,4126.9
1006.52,4134.1
1006.79,4137.5
1007.06,4129.9
1007.32,4117.2
1007.59,4115.1
1007.86,4101.2
1008.13,4090.2
1008.4,4098.8
1008.66,4100.6
1008.93,4091.2
1009.2,4085.2
1009.47,4080.3
1009.73,4075.0
1010.0,4093.6
1010.27,4091.6
1010.54,4080.1
1010.81,4065.3
1011.07,4055.8
1011.34,4066.6
1011.61,4061.9
1011.88,4056.8
1012.14,4051.8
1012.41,4054.2
1012.68,4038.1
1012.95,4041.1
1013.21,4030.1
1013.48,4016.7
1013.75,4030.3
1014.02,4031.3
1014.29,4027.9
1014.55,4035.5
1014.82,4025.8
1015.09,4026.5
1015.36,4018.1
1015.62,4013.9
1015.89,4001.9
1016.16,4006.1
1016.43,3998.7
1016.69,4005.6
1016.96,3999.5
1017.23,3999.5
1017.5,3994.3
1017.76,3985.1
1018.03,3978.9
1018.3,3985.5
1018.57,3972.9
1018.83,3975.5
1019.1,3967.9
1019.37,3965.3
1019.63,3977.0
1019.9,3970.9
1020.17,3974.2
1020.44,3960.8
1020.7,3966.2
1020.97,3953.5
1021.24,3951.4
1021.51,3953.6
1021.77,3942.5
1022.04,3939.6
1022.31,3940.7
1022.58,3936.3
1022.84,3934.1
1023.11,3927.3
1023.38,3930.8
1023.64,3933.9
1023.91,3933.8
1024.18,3935.0
1024.45,3932.2
1024.71,3930.4
1024.98,3922.4
1025.25,3923.1
1025.51,3920.5
1025.78,3918.6
1026.05,3910.3
1026.32,3910.6
1026.58,3907.9
1026.85,3904.1
1027.12,3906.4
1027.38,3901.4
1027.65,3896.1
1027.92,3898.6
1028.19,3898.7
1028.45,3894.5
1028.72,3892.0
1028.99,3895.8
1029.25,3881.5
1029.52,3881.3
1029.79,3882.9
1030.05,3879.0
1030.32,3874.9
1030.59,3877.5
1030.85,3873.8
1031.12,3877.7
1031.39,3875.5
1031.66,3870.4
1031.92,3876.7
1032.19,3873.4
1032.46,3869.3
1032.72,3863.4
1032.99,3867.0
1033.26,3864.2
1033.52,3862.9
1033.79,3867.5
1034.06,3863.5
1034.32,3861.0
1034.59,3859.1
1034.86,3860.7
1035.12,3862.2
1035.39,3863.1
1035.66,3855.4
1035.92,3850.0
1036.19,3852.9
1036.46,3848.0
1036.72,3848.9
1036.99,3843.2
1037.26,3845.9
1037.52,3847.0
1037.79,3844.1
1038.06,3845.6
1038.32,3844.3
1038.59,3839.2
1038.86,3838.7
1039.12,3833.8
1039.39,3830.9
1039.66,3834.0
1039.92,3831.5
1040.19,3825.8
1040.46,3827.9
1040.72,3827.8
1040.99,3832.0
1041.26,3831.2
1041.52,3826.5
1041.79,3825.9
1042.06,3826.3
1042.32,3825.2
1042.59,3823.4
1042.86,3817.4
1043.12,3820.6
1043.39,3819.0
1043.65,3817.4
1043.92,3818.6
1044.19,3813.5
1044.45,3816.4
1044.72,3815.7
1044.99,3812.6
1045.25,3813.3
1045.52,3811.2
1045.79,3809.6
1046.05,3808.8
1046.32,3808.9
1046.58,3806.3
1046.85,3807.6
1047.12,3806.2
1047.38,3806.3
1047.65,3806.5
1047.92,3805.7
1048.18,3804.6
1048.45,3805.2
1048.71,3801.9
1048.98,3802.8
1049.25,3799.8
1049.51,3799.8
1049.78,3798.8
1050.04,3798.7
1050.31,3797.6
1050.58,3802.1
1050.84,3806.6
1051.11,3801.3
1051.37,3800.3
1051.64,3799.9
1051.91,3798.5
1052.17,3799.2
1052.44,3796.5
1052.7,3798.5
1052.97,3795.9
1053.24,3793.7
1053.5,3794.3
1053.77,3796.4
1054.03,3797.9
1054.3,3795.5
1054.57,3794.3
1054.83,3797.6
1055.1,3794.3
1055.36,3791.8
1055.63,3789.6
1055.9,3793.1
1056.16,3793.7
1056.43,3790.1
1056.69,3793.1
1056.96,3789.7
1057.23,3789.7
1057.49,3787.0
1057.76,3790.0
1058.02,3787.1
1058.29,3787.1
1058.55,3784.6
1058.82,3788.6
1059.09,3787.5
1059.35,3787.9
1059.62,3788.0
1059.88,3784.6
1060.15,3785.5
1060.41,3786.2
1060.68,3785.8
1060.95,3784.0
1061.21,3783.7
1061.48,3781.6
1061.74,3784.2
1062.01,3783.0
1062.27,3782.2
1062.54,3781.3
1062.8,3782.4
1063.07,3780.5
1063.34,3783.7
1063.6,3780.3
1063.87,3777.7
1064.13,3783.5
1064.4,3779.3
1064.66,3781.0
1064.93,3778.1
1065.19,3781.7
1065.46,3781.5
1065.73,3778.6
1065.99,3775.8
1066.26,3776.8
1066.52,3774.9
1066.79,3777.4
1067.05,3777.5
1067.32,3775.7
1067.58,3775.4
1067.85,3775.5
1068.11,3775.5