File: spectra/VLFR_01-LDPE_bio_Raman_f3c4dc0f.csv
nm,Intensity
526.495,827.2
526.632,828.0
526.768,828.3
526.905,829.7
527.042,827.5
527.179,829.1
527.315,828.8
527.452,828.6
527.589,828.3
527.725,828.9
527.862,830.1
527.999,828.0
528.136,829.1
528.272,828.6
528.409,829.4
528.546,828.3
528.682,827.7
528.819,829.2
528.955,828.4
529.092,828.5
529.229,829.9
529.365,828.1
529.502,828.5
529.639,828.3
529.775,828.3
529.912,831.1
530.048,829.3
530.185,828.2
530.321,830.6
530.458,828.8
530.594,829.7
530.731,828.0
530.867,828.2
531.004,827.3
531.14,828.3
531.277,829.2
531.413,826.8
531.55,829.8
531.686,828.4
531.823,829.1
531.959,831.1
532.096,853.5
532.232,860.4
532.369,835.3
532.505,829.0
532.641,829.1
532.778,828.8
532.914,829.4
533.051,829.2
533.187,829.0
533.323,827.1
533.46,829.0
533.596,828.9
533.732,831.7
533.869,842.0
534.005,859.5
534.141,865.7
534.278,864.7
534.414,865.4
534.55,860.4
534.687,862.1
534.823,859.7
534.959,860.0
535.095,858.7
535.232,858.0
535.368,856.9
535.504,854.4
535.64,855.3
535.777,851.6
535.913,855.9
536.049,852.8
536.185,852.1
536.321,851.9
536.457,849.3
536.594,848.5
536.73,850.6
536.866,851.2
537.002,849.5
537.138,852.8
537.274,850.7
537.41,850.7
537.547,849.6
537.683,849.5
537.819,848.8
537.955,848.2
538.091,845.2
538.227,849.5
538.363,848.5
538.499,849.0
538.635,847.6
538.771,847.7
538.907,848.6
539.043,847.5
539.179,847.2
539.315,848.5
539.451,846.3
539.587,844.9
539.723,844.1
539.859,844.6
539.995,846.4
540.131,842.6
540.267,845.2
540.403,844.4
540.539,842.7
540.675,844.2
540.811,845.6
540.947,845.6
541.083,844.7
541.219,843.2
541.354,844.7
541.49,844.4
541.626,844.8
541.762,842.5
541.898,844.1
542.034,841.7
542.17,841.9
542.305,842.4
542.441,840.9
542.577,844.6
542.713,843.0
542.849,843.0
542.984,844.3
543.12,845.4
543.256,844.3
543.392,845.1
543.528,845.5
543.663,843.7
543.799,843.8
543.935,844.9
544.071,845.7
544.206,846.0
544.342,845.6
544.478,842.9
544.613,844.4
544.749,842.0
544.885,842.6
545.02,842.3
545.156,843.0
545.292,842.4
545.427,843.8
545.563,843.3
545.699,843.3
545.834,842.5
545.97,844.2
546.106,842.6
546.241,841.9
546.377,845.4
546.512,848.8
546.648,844.5
546.784,843.0
546.919,842.7
547.055,842.3
547.19,843.8
547.326,840.7
547.461,843.6
547.597,841.1
547.732,840.9
547.868,840.4
548.003,842.2
548.139,841.2
548.274,842.7
548.41,841.2
548.545,842.7
548.681,840.5
548.816,844.3
548.952,842.9
549.087,840.0
549.223,841.7
549.358,841.2
549.494,841.2
549.629,842.3
549.764,841.4
549.9,843.0
550.035,842.6
550.171,844.5
550.306,844.2
550.441,844.7
550.577,843.5
550.712,842.2
550.847,841.3
550.983,840.4
551.118,839.9
551.253,841.5
551.389,842.7
551.524,841.9
551.659,841.4
551.795,845.5
551.93,845.9
552.065,844.1
552.201,843.1
552.336,838.8
552.471,841.8
552.606,840.8
552.742,839.4
552.877,840.7
553.012,841.9
553.147,842.8
553.283,840.5
553.418,841.7
553.553,841.7
553.688,841.3
553.823,842.6
553.959,841.8
554.094,841.8
554.229,843.5
554.364,843.2
554.499,843.5
554.634,843.3
554.769,841.6
554.905,843.0
555.04,841.2
555.175,840.9
555.31,844.1
555.445,842.0
555.58,842.7
555.715,843.9
555.85,841.2
555.985,842.8
556.121,842.9
556.256,841.2
556.391,843.4
556.526,842.3
556.661,843.2
556.796,845.0
556.931,844.1
557.066,843.5
557.201,843.0
557.336,845.9
557.471,844.2
557.606,844.9
557.741,847.0
557.876,845.4
558.011,846.3
558.146,844.8
558.281,846.5
558.416,845.7
558.551,844.1
558.685,844.9
558.82,846.8
558.955,845.5
559.09,845.1
559.225,844.2
559.36,843.1
559.495,845.2
559.63,844.3
559.765,845.8
559.9,844.0
560.034,844.3
560.169,845.6
560.304,845.0
560.439,846.5
560.574,843.2
560.709,844.7
560.843,845.8
560.978,846.6
561.113,847.6
561.248,846.9
561.383,847.6
561.517,846.6
561.652,846.7
561.787,848.2
561.922,847.7
562.057,852.7
562.191,866.8
562.326,895.6
562.461,882.7
562.596,856.4
562.73,851.6
562.865,849.3
563.0,849.0
563.134,849.0
563.269,850.6
563.404,852.0
563.539,852.2
563.673,852.5
563.808,858.6
563.943,866.5
564.077,879.2
564.212,870.7
564.346,858.6
564.481,856.5
564.616,857.9
564.75,856.4
564.885,855.9
565.02,856.0
565.154,854.4
565.289,855.3
565.423,855.1
565.558,855.2
565.693,856.2
565.827,858.4
565.962,862.5
566.096,874.2
566.231,882.0
566.365,877.7
566.5,866.9
566.634,860.0
566.769,856.6
566.903,855.6
567.038,853.0
567.172,852.9
567.307,857.6
567.441,857.1
567.576,859.6
567.71,856.2
567.845,856.0
567.979,855.6
568.114,856.1
568.248,856.0
568.383,854.9
568.517,854.8
568.652,854.2
568.786,853.9
568.92,858.2
569.055,856.2
569.189,858.2
569.324,856.1
569.458,858.4
569.592,855.8
569.727,854.9
569.861,857.2
569.996,859.1
570.13,856.7
570.264,856.6
570.399,860.8
570.533,860.0
570.667,862.3
570.802,861.2
570.936,861.9
571.07,863.3
571.205,863.8
571.339,868.3
571.473,888.3
571.607,905.1
571.742,887.7
571.876,876.2
572.01,872.8
572.144,872.4
572.279,868.8
572.413,868.9
572.547,864.8
572.681,864.8
572.816,866.6
572.95,866.4
573.084,867.5
573.218,868.7
573.353,866.6
573.487,866.8
573.621,868.0
573.755,866.6
573.889,872.1
574.023,873.1
574.158,871.2
574.292,872.1
574.426,868.8
574.56,869.6
574.694,872.3
574.828,873.8
574.963,874.0
575.097,870.8
575.231,874.3
575.365,876.4
575.499,885.0
575.633,886.5
575.767,889.3
575.901,893.2
576.035,897.0
576.169,909.2
576.303,924.6
576.438,921.6
576.572,910.0
576.706,906.7
576.84,911.1
576.974,913.5
577.108,906.0
577.242,911.1
577.376,903.3
577.51,901.0
577.644,900.0
577.778,895.3
577.912,894.9
578.046,899.3
578.18,896.9
578.314,899.7
578.448,897.1
578.582,900.6
578.716,905.5
578.85,907.8
578.984,904.1
579.117,904.3
579.251,908.8
579.385,907.9
579.519,912.8
579.653,909.2
579.787,911.6
579.921,917.4
580.055,916.4
580.189,918.2
580.323,921.5
580.456,919.7
580.59,921.9
580.724,926.3
580.858,928.3
580.992,931.6
581.126,929.4
581.26,929.6
581.393,931.1
581.527,936.0
581.661,935.6
581.795,938.1
581.929,938.7
582.063,942.1
582.196,947.2
582.33,944.8
582.464,947.4
582.598,947.8
582.731,948.0
582.865,953.2
582.999,951.4
583.133,957.2
583.267,959.5
583.4,956.8
583.534,959.0
583.668,965.8
583.801,967.1
583.935,967.3
584.069,965.6
584.203,969.3
584.336,971.7
584.47,968.7
584.604,975.9
584.737,975.6
584.871,979.2
585.005,975.3
585.138,981.0
585.272,980.3
585.406,984.0
585.539,984.8
585.673,992.5
585.807,995.9
585.94,990.8
586.074,992.5
586.208,996.9
586.341,998.9
586.475,1003.1
586.608,1000.3
586.742,1004.8
586.876,1007.7
587.009,1002.8
587.143,1008.5
587.276,1013.6
587.41,1014.2
587.543,1015.8
587.677,1020.6
587.811,1023.4
587.944,1027.5
588.078,1026.7
588.211,1033.8
588.345,1029.0
588.478,1033.0
588.612,1038.1
588.745,1036.9
588.879,1039.5
589.012,1041.1
589.146,1038.5
589.279,1043.9
589.413,1048.2
589.546,1046.1
589.68,1053.4
589.813,1050.1
589.947,1061.2
590.08,1057.8
590.214,1059.8
590.347,1057.2
590.48,1059.1
590.614,1070.0
590.747,1065.4
590.881,1069.9
591.014,1070.6
591.148,1070.2
591.281,1070.6
591.414,1074.1
591.548,1077.7
591.681,1083.5
591.815,1079.6
591.948,1073.6
592.081,1080.3
592.215,1082.0
592.348,1082.7
592.481,1086.8
592.615,1077.4
592.748,1085.9
592.881,1083.8
593.015,1086.9
593.148,1083.0
593.281,1085.3
593.415,1087.5
593.548,1087.4
593.681,1086.7
593.815,1087.9
593.948,1083.4
594.081,1088.3
594.215,1092.9
594.348,1089.4
594.481,1088.1
594.614,1096.4
594.748,1095.9
594.881,1096.9
595.014,1094.9
595.147,1093.0
595.281,1103.5
595.414,1103.2
595.547,1107.4
595.68,1108.1
595.814,1104.4
595.947,1105.1
596.08,1114.5
596.213,1109.7
596.347,1112.9
596.48,1115.1
596.613,1119.5
596.746,1126.9
596.879,1121.1
597.012,1127.7
597.146,1126.7
597.279,1134.6
597.412,1129.0
597.545,1129.3
597.678,1136.6
597.811,1135.1
597.945,1134.0
598.078,1143.7
598.211,1144.4
598.344,1151.0
598.477,1144.5
598.61,1151.6
598.743,1149.9
598.876,1160.4
599.009,1155.2
599.143,1165.2
599.276,1157.5
599.409,1157.1
599.542,1156.9
599.675,1155.3
599.808,1168.1
599.941,1165.0
600.074,1163.4
600.207,1168.8
600.34,1170.1
600.473,1161.0
600.606,1162.4
600.739,1161.2
600.872,1164.8
601.005,1163.0
601.138,1164.0
601.271,1160.6
601.404,1155.0
601.537,1158.9
601.67,1155.3
601.803,1151.6
601.936,1152.1
602.069,1160.1
602.202,1155.6
602.335,1147.8
602.468,1146.0
602.601,1147.1
602.734,1138.9
602.867,1147.6
603.0,1144.7
603.133,1141.5
603.266,1137.0
603.399,1134.3
603.532,1129.5
603.665,1138.8
603.798,1127.8
603.931,1119.8
604.064,1117.0
604.196,1113.1
604.329,1108.4
604.462,1113.4
604.595,1104.5
604.728,1110.4
604.861,1102.4
604.994,1094.7
605.127,1095.0
605.259,1087.4
605.392,1081.8
605.525,1086.4
605.658,1079.5
605.791,1083.4
605.924,1073.5
606.057,1069.0
606.189,1065.2
606.322,1064.6
606.455,1056.6
606.588,1057.9
606.721,1059.9
606.853,1050.2
606.986,1053.6
607.119,1046.2
607.252,1042.7
607.385,1039.8
607.517,1043.7
607.65,1037.3
607.783,1041.4
607.916,1043.4
608.049,1041.2
608.181,1036.1
608.314,1036.4
608.447,1028.8
608.58,1031.9
608.712,1023.9
608.845,1026.8
608.978,1022.0
609.111,1024.3
609.243,1025.9
609.376,1025.0
609.509,1015.6
609.641,1014.5
609.774,1015.8
609.907,1016.6
610.039,1009.6
610.172,1008.3
610.305,1011.1
610.438,1006.9
610.57,1006.2
610.703,1004.5
610.836,999.3
610.968,1002.7
611.101,998.6
611.234,999.8
611.366,999.6
611.499,998.9
611.631,1001.7
611.764,997.8
611.897,992.8
612.029,992.7
612.162,994.2
612.295,994.2
612.427,993.8
612.56,997.7
612.692,995.6
612.825,996.8
612.958,989.6
613.09,993.2
613.223,986.7
613.355,990.3
613.488,982.7
613.621,987.2
613.753,990.3
613.886,987.2
614.018,983.5
614.151,982.5
614.283,982.7
614.416,983.3
614.548,982.5
614.681,977.5
614.814,979.2
614.946,976.5
615.079,975.2
615.211,977.7
615.344,975.6
615.476,976.2
615.609,972.0
615.741,970.8
615.874,973.6
616.006,968.2
616.139,969.1
616.271,971.7
616.404,968.4
616.536,963.1
616.669,965.9
616.801,967.3
616.933,966.1
617.066,965.9
617.198,967.0
617.331,966.5
617.463,962.5
617.596,966.3
617.728,964.3
617.861,964.5
617.993,964.3
618.125,962.4
618.258,960.8
618.39,959.5
618.523,961.4
618.655,960.3
618.788,958.3
618.92,955.0
619.052,955.2
619.185,952.2
619.317,953.0
619.45,956.4
619.582,957.7
619.714,953.3
619.847,953.9
619.979,954.6
620.111,957.1
620.244,954.2
620.376,953.5
620.509,951.3
620.641,950.3
620.773,951.5
620.906,953.2
621.038,946.1
621.17,951.3
621.303,949.3
621.435,952.0
621.567,953.3
621.7,958.6
621.832,958.9
621.964,956.8
622.096,960.4
622.229,959.9
622.361,963.2
622.493,963.0
622.626,957.0
622.758,953.5
622.89,954.5
623.022,951.4
623.155,950.1
623.287,945.6
623.419,946.3
623.552,946.6
623.684,945.7
623.816,949.9
623.948,943.4
624.081,944.0
624.213,943.6
624.345,943.2
624.477,940.8
624.61,943.6
624.742,947.4
624.874,943.9
625.006,946.3
625.138,944.8
625.271,947.9
625.403,942.2
625.535,941.5
625.667,949.6
625.799,948.0
625.932,945.9
626.064,949.0
626.196,951.1
626.328,955.8
626.46,959.7
626.593,968.2
626.725,991.4
626.857,1029.1
626.989,1084.3
627.121,1150.2
627.253,1178.7
627.386,1164.2
627.518,1141.7
627.65,1108.2
627.782,1093.8
627.914,1076.5
628.046,1076.8
628.178,1078.1
628.311,1094.9
628.443,1147.4
628.575,1209.7
628.707,1169.6
628.839,1115.4
628.971,1090.9
629.103,1080.3
629.235,1075.8
629.367,1072.3
629.5,1056.9
629.632,1048.2
629.764,1043.1
629.896,1033.0
630.028,1028.7
630.16,1027.5
630.292,1025.1
630.424,1023.7
630.556,1016.3
630.688,1009.4
630.82,1008.5
630.952,994.6
631.084,983.9
631.216,975.0
631.349,966.4
631.481,962.4
631.613,962.2
631.745,956.0
631.877,958.0
632.009,950.9
632.141,949.7
632.273,953.0
632.405,952.1
632.537,949.8
632.669,947.6
632.801,948.7
632.933,949.5
633.065,950.4
633.197,947.2
633.329,945.6
633.461,950.8
633.593,949.0
633.725,949.5
633.857,944.4
633.989,948.7
634.121,946.2
634.253,948.0
634.385,950.2
634.517,945.5
634.649,953.9
634.781,953.5
634.912,948.8
635.044,949.9
635.176,951.6
635.308,952.2
635.44,949.2
635.572,950.1
635.704,951.8
635.836,950.7
635.968,954.2
636.1,952.3
636.232,954.7
636.364,952.1
636.496,955.6
636.628,953.4
636.76,949.5
636.891,952.2
637.023,951.7
637.155,953.8
637.287,954.4
637.419,956.7
637.551,955.2
637.683,957.4
637.815,951.4
637.947,958.7
638.078,955.8
638.21,956.6
638.342,954.2
638.474,952.1
638.606,955.9
638.738,954.7
638.87,954.9
639.002,959.8
639.133,956.7
639.265,964.7
639.397,960.0
639.529,958.9
639.661,956.0
639.793,959.0
639.924,957.5
640.056,957.6
640.188,961.6
640.32,964.7
640.452,960.3
640.584,959.6
640.715,960.5
640.847,959.6
640.979,964.3
641.111,960.0
641.243,960.6
641.374,962.5
641.506,961.6
641.638,964.4
641.77,958.2
641.902,966.4
642.033,964.1
642.165,966.1
642.297,961.5
642.429,960.6
642.561,969.1
642.692,965.5
642.824,964.8
642.956,967.0
643.088,964.2
643.219,966.6
643.351,969.0
643.483,964.7
643.615,965.2
643.746,963.3
643.878,968.5
644.01,963.9
644.142,964.6
644.273,966.7
644.405,966.1
644.537,968.0
644.669,968.0
644.8,962.0
644.932,964.3
645.064,967.4
645.195,967.0
645.327,969.5
645.459,966.4
645.591,966.1
645.722,963.2
645.854,969.9
645.986,966.1
646.117,967.4
646.249,963.5
646.381,962.9
646.512,968.0
646.644,965.3
646.776,965.3
646.908,968.9
647.039,966.6
647.171,971.2
647.303,965.1
647.434,966.2
647.566,970.3
647.698,968.6
647.829,963.0
647.961,967.2
648.093,964.5
648.224,967.3
648.356,959.4
648.488,967.4
648.619,968.5
648.751,965.0
648.883,967.1
649.014,971.4
649.146,965.3
649.277,966.8
649.409,968.3
649.541,967.7
649.672,973.3
649.804,964.6
649.936,964.3
650.067,966.2
650.199,972.8
650.33,964.3
650.462,965.5
650.594,964.5
650.725,968.1
650.857,973.4
650.988,967.1
651.12,968.6
651.252,965.4
651.383,969.5
651.515,969.7
651.646,966.7
651.778,967.5
651.91,972.7
652.041,968.6
652.173,969.1
652.304,971.4
652.436,967.7
652.568,969.2
652.699,967.9
652.831,967.9
652.962,967.7
653.094,968.4
653.225,968.2
653.357,964.2
653.489,970.9
653.62,973.0
653.752,971.1
653.883,970.0
654.015,969.2
654.146,974.4
654.278,967.2
654.409,970.9
654.541,971.0
654.672,965.4
654.804,965.8
654.935,967.3
655.067,969.9
655.199,970.2
655.33,964.6
655.462,965.4
655.593,965.0
655.725,965.3
655.856,962.8
655.988,966.1
656.119,956.8
656.251,967.8
656.382,963.8
656.514,963.0
656.645,956.9
656.777,960.3
656.908,961.1
657.04,960.9
657.171,957.6
657.303,959.7
657.434,961.4
657.566,957.7
657.697,957.3
657.829,953.6
657.96,952.9
658.092,949.7
658.223,954.7
658.355,951.7
658.486,954.2
658.617,948.4
658.749,947.0
658.88,951.4
659.012,946.8
659.143,948.8
659.275,944.1
659.406,947.9
659.538,949.7
659.669,944.6
659.801,941.7
659.932,939.2
660.064,945.4
660.195,938.0
660.326,941.5
660.458,936.8
660.589,935.0
660.721,931.2
660.852,933.9
660.984,933.9
661.115,931.9
661.246,932.4
661.378,932.1
661.509,931.1
661.641,926.8
661.772,923.3
661.904,926.4
662.035,923.9
662.166,922.5
662.298,920.2
662.429,918.5
662.561,921.6
662.692,918.1
662.823,917.8
662.955,916.2
663.086,919.6