File: spectra/VLFR_02-HDPE_nobio_Raman_ab8ca0bb.csv
nm,Intensity
526.508,829.8
526.645,830.7
526.782,828.6
526.919,830.3
527.055,829.7
527.192,829.0
527.329,830.2
527.465,829.3
527.602,828.5
527.739,830.6
527.875,829.1
528.012,829.9
528.149,830.2
528.285,830.5
528.422,828.1
528.558,830.7
528.695,830.3
528.832,829.0
528.968,829.4
529.105,830.2
529.241,830.8
529.378,830.1
529.514,830.1
529.651,829.1
529.787,829.5
529.924,830.2
530.061,828.7
530.197,829.3
530.334,828.6
530.47,829.3
530.606,828.4
530.743,830.1
530.879,829.5
531.016,830.3
531.152,829.7
531.289,831.2
531.425,829.4
531.562,829.5
531.698,830.4
531.834,829.4
531.971,831.6
532.107,859.8
532.244,874.6
532.38,839.3
532.516,831.6
532.653,829.3
532.789,830.6
532.925,829.9
533.062,829.5
533.198,828.5
533.334,829.5
533.471,828.8
533.607,830.0
533.743,833.8
533.879,854.5
534.016,888.8
534.152,908.8
534.288,914.4
534.424,908.4
534.561,914.0
534.697,915.2
534.833,917.4
534.969,918.4
535.106,918.1
535.242,912.2
535.378,900.9
535.514,891.6
535.65,880.9
535.786,873.7
535.923,867.9
536.059,863.7
536.195,859.7
536.331,861.9
536.467,858.0
536.603,858.6
536.739,856.9
536.876,855.3
537.012,854.6
537.148,852.6
537.284,856.1
537.42,852.9
537.556,855.3
537.692,852.4
537.828,854.0
537.964,855.9
538.1,853.6
538.236,851.8
538.372,852.4
538.508,854.1
538.644,852.4
538.78,850.4
538.916,850.7
539.052,847.5
539.188,848.3
539.324,847.2
539.46,845.4
539.596,846.9
539.732,846.9
539.868,846.8
540.004,845.4
540.14,847.3
540.275,845.9
540.411,845.0
540.547,844.4
540.683,844.7
540.819,843.0
540.955,847.2
541.091,845.2
541.227,845.7
541.362,845.9
541.498,847.0
541.634,846.3
541.77,844.7
541.906,845.5
542.041,846.1
542.177,845.4
542.313,847.1
542.449,844.6
542.585,846.0
542.72,846.2
542.856,843.1
542.992,843.4
543.128,845.8
543.263,845.1
543.399,842.8
543.535,844.1
543.67,843.1
543.806,844.3
543.942,843.7
544.078,844.5
544.213,844.9
544.349,844.9
544.485,844.4
544.62,845.3
544.756,843.6
544.892,844.8
545.027,842.0
545.163,844.7
545.298,845.7
545.434,843.7
545.57,843.4
545.705,843.7
545.841,843.5
545.976,842.9
546.112,843.4
546.248,843.5
546.383,842.7
546.519,843.9
546.654,842.5
546.79,844.7
546.925,843.0
547.061,843.4
547.196,844.9
547.332,844.6
547.467,844.5
547.603,844.5
547.738,843.1
547.874,844.0
548.009,844.5
548.145,844.6
548.28,843.7
548.416,846.9
548.551,844.7
548.686,843.1
548.822,842.5
548.957,842.9
549.093,843.1
549.228,842.6
549.363,842.4
549.499,843.6
549.634,842.8
549.77,843.7
549.905,844.2
550.04,843.8
550.176,845.1
550.311,844.3
550.446,842.5
550.582,844.7
550.717,842.9
550.852,845.1
550.988,842.8
551.123,844.5
551.258,845.5
551.394,843.8
551.529,843.0
551.664,844.8
551.799,845.0
551.935,843.5
552.07,843.9
552.205,846.3
552.34,844.2
552.476,846.3
552.611,845.5
552.746,844.2
552.881,845.5
553.016,847.1
553.152,847.9
553.287,847.0
553.422,847.7
553.557,847.2
553.692,846.5
553.827,848.6
553.963,845.1
554.098,849.0
554.233,847.3
554.368,847.4
554.503,847.4
554.638,848.1
554.773,848.3
554.908,848.7
555.043,848.2
555.179,848.8
555.314,847.0
555.449,846.5
555.584,848.3
555.719,850.9
555.854,848.4
555.989,849.8
556.124,852.8
556.259,851.4
556.394,850.2
556.529,849.9
556.664,851.5
556.799,852.8
556.934,853.7
557.069,852.8
557.204,851.4
557.339,854.4
557.474,856.2
557.609,853.7
557.744,855.4
557.879,855.5
558.014,852.5
558.149,854.6
558.284,854.5
558.419,852.7
558.553,856.0
558.688,855.9
558.823,853.8
558.958,855.7
559.093,853.3
559.228,852.4
559.363,854.9
559.498,853.0
559.632,852.1
559.767,851.9
559.902,852.4
560.037,850.4
560.172,850.9
560.307,851.4
560.441,851.8
560.576,850.0
560.711,850.8
560.846,852.0
560.981,853.1
561.115,848.1
561.25,851.0
561.385,852.3
561.52,852.8
561.654,852.1
561.789,852.3
561.924,852.4
562.059,853.8
562.193,855.8
562.328,855.0
562.463,854.4
562.598,857.2
562.732,857.2
562.867,855.0
563.002,857.9
563.136,856.1
563.271,858.9
563.406,861.0
563.54,863.4
563.675,866.4
563.81,889.7
563.944,955.9
564.079,1019.1
564.213,961.6
564.348,894.9
564.483,878.9
564.617,880.1
564.752,878.0
564.887,876.2
565.021,872.3
565.156,869.0
565.29,866.3
565.425,866.5
565.559,863.8
565.694,865.5
565.828,870.2
565.963,885.9
566.098,927.2
566.232,977.5
566.367,934.4
566.501,879.4
566.636,864.9
566.77,861.0
566.905,862.4
567.039,862.6
567.174,862.0
567.308,871.1
567.443,889.9
567.577,899.7
567.711,875.6
567.846,863.1
567.98,857.9
568.115,860.3
568.249,857.0
568.384,857.5
568.518,859.5
568.652,860.2
568.787,860.3
568.921,860.5
569.056,859.6
569.19,859.3
569.324,857.2
569.459,859.8
569.593,859.0
569.727,860.0
569.862,860.5
569.996,860.6
570.131,860.4
570.265,861.2
570.399,863.4
570.534,867.7
570.668,869.9
570.802,873.8
570.936,868.9
571.071,872.7
571.205,879.0
571.339,899.7
571.474,1012.7
571.608,1165.8
571.742,1021.8
571.876,912.7
572.011,891.1
572.145,886.3
572.279,876.1
572.413,871.6
572.548,868.0
572.682,864.2
572.816,862.7
572.95,863.2
573.084,863.4
573.219,861.2
573.353,865.7
573.487,863.6
573.621,864.2
573.755,867.1
573.889,873.5
574.024,877.5
574.158,873.8
574.292,868.4
574.426,862.0
574.56,859.9
574.694,864.8
574.828,863.8
574.963,861.6
575.097,865.5
575.231,866.7
575.365,877.8
575.499,917.7
575.633,943.9
575.767,908.4
575.901,905.9
576.035,929.3
576.169,975.7
576.303,1045.1
576.437,1042.7
576.571,986.3
576.706,958.8
576.84,967.3
576.974,969.4
577.108,975.2
577.242,964.7
577.376,938.8
577.51,912.9
577.644,891.3
577.778,883.4
577.912,880.4
578.046,877.2
578.179,873.6
578.313,872.4
578.447,873.8
578.581,872.8
578.715,876.0
578.849,873.6
578.983,868.7
579.117,873.1
579.251,872.8
579.385,873.3
579.519,876.1
579.653,872.5
579.787,875.1
579.921,874.0
580.054,873.9
580.188,879.6
580.322,876.3
580.456,876.8
580.59,875.7
580.724,877.3
580.858,876.4
580.991,877.8
581.125,877.7
581.259,878.1
581.393,878.2
581.527,876.1
581.661,880.0
581.794,878.1
581.928,879.1
582.062,880.1
582.196,881.6
582.33,880.9
582.463,884.1
582.597,881.9
582.731,881.1
582.865,880.5
582.998,883.1
583.132,887.0
583.266,883.6
583.4,884.9
583.533,885.6
583.667,884.7
583.801,886.2
583.935,883.0
584.068,889.0
584.202,888.2
584.336,887.1
584.469,886.8
584.603,889.7
584.737,890.4
584.87,890.8
585.004,889.4
585.138,887.1
585.271,894.5
585.405,895.3
585.539,895.3
585.672,893.7
585.806,892.5
585.94,893.8
586.073,893.5
586.207,894.3
586.34,895.7
586.474,898.0
586.608,898.7
586.741,897.2
586.875,899.4
587.008,901.2
587.142,902.7
587.276,898.6
587.409,902.8
587.543,899.0
587.676,902.9
587.81,905.0
587.943,900.4
588.077,905.6
588.21,901.9
588.344,905.3
588.478,905.3
588.611,903.8
588.745,905.5
588.878,909.7
589.012,901.3
589.145,908.1
589.279,906.7
589.412,907.7
589.546,907.9
589.679,909.1
589.812,910.8
589.946,910.1
590.079,908.8
590.213,914.2
590.346,912.9
590.48,912.5
590.613,912.0
590.747,916.7
590.88,911.2
591.013,912.9
591.147,910.3
591.28,912.8
591.414,912.9
591.547,920.0
591.68,916.6
591.814,916.4
591.947,918.5
592.081,918.6
592.214,917.4
592.347,917.3
592.481,915.7
592.614,918.6
592.747,919.7
592.881,917.8
593.014,918.5
593.147,916.9
593.281,920.1
593.414,916.0
593.547,917.1
593.681,920.1
593.814,919.7
593.947,918.2
594.081,917.3
594.214,918.9
594.347,920.1
594.48,921.4
594.614,920.8
594.747,920.9
594.88,922.8
595.014,918.9
595.147,919.3
595.28,919.2
595.413,919.6
595.547,922.8
595.68,921.4
595.813,923.2
595.946,921.8
596.079,923.0
596.213,924.3
596.346,921.4
596.479,925.6
596.612,924.4
596.745,922.0
596.879,925.8
597.012,928.1
597.145,920.9
597.278,923.7
597.411,927.1
597.545,924.3
597.678,923.1
597.811,927.5
597.944,925.4
598.077,929.5
598.21,930.2
598.343,926.8
598.476,928.2
598.61,933.2
598.743,928.0
598.876,931.9
599.009,926.2
599.142,929.7
599.275,929.5
599.408,931.0
599.541,924.3
599.674,929.5
599.807,931.1
599.941,928.0
600.074,931.9
600.207,930.3
600.34,930.8
600.473,930.0
600.606,930.1
600.739,930.0
600.872,930.5
601.005,926.5
601.138,926.8
601.271,933.1
601.404,928.9
601.537,932.0
601.67,928.9
601.803,930.4
601.936,933.4
602.069,935.6
602.202,938.4
602.335,935.0
602.468,926.9
602.601,926.0
602.734,931.1
602.867,924.4
603.0,926.4
603.133,925.0
603.266,924.5
603.399,926.2
603.532,924.9
603.664,921.8
603.797,925.3
603.93,924.1
604.063,926.1
604.196,922.4
604.329,921.3
604.462,922.1
604.595,920.8
604.728,920.4
604.861,919.1
604.994,916.9
605.126,917.0
605.259,915.2
605.392,915.3
605.525,915.2
605.658,911.0
605.791,913.3
605.924,907.7
606.056,912.8
606.189,910.9
606.322,913.7
606.455,915.1
606.588,908.7
606.721,909.7
606.853,908.4
606.986,909.4
607.119,907.7
607.252,908.2
607.385,908.5
607.517,905.8
607.65,907.9
607.783,907.1
607.916,908.0
608.049,904.6
608.181,902.9
608.314,906.6
608.447,906.2
608.58,903.0
608.712,904.9
608.845,903.3
608.978,905.4
609.111,904.4
609.243,903.1
609.376,906.2
609.509,905.6
609.641,901.0
609.774,899.4
609.907,901.9
610.04,900.3
610.172,902.2
610.305,899.2
610.438,898.3
610.57,899.8
610.703,903.7
610.836,900.5
610.968,905.9
611.101,899.4
611.234,903.5
611.366,899.6
611.499,897.3
611.632,899.4
611.764,902.0
611.897,899.8
612.03,897.0
612.162,897.3
612.295,902.4
612.428,898.5
612.56,899.6
612.693,899.1
612.825,895.3
612.958,897.2
613.091,896.2
613.223,895.0
613.356,894.1
613.488,897.6
613.621,898.6
613.754,896.0
613.886,894.2
614.019,902.1
614.151,895.2
614.284,895.5
614.416,896.3
614.549,899.1
614.681,895.3
614.814,896.3
614.947,897.9
615.079,894.8
615.212,898.3
615.344,896.9
615.477,896.0
615.609,894.7
615.742,897.8
615.874,894.7
616.007,899.9
616.139,895.5
616.272,897.3
616.404,895.7
616.537,897.3
616.669,900.8
616.802,903.0
616.934,902.7
617.067,904.5
617.199,908.2
617.332,910.0
617.464,910.2
617.596,910.6
617.729,909.7
617.861,908.0
617.994,910.9
618.126,914.4
618.259,907.7
618.391,907.4
618.524,909.1
618.656,906.4
618.788,905.9
618.921,910.7
619.053,904.4
619.186,904.6
619.318,910.7
619.45,913.0
619.583,914.3
619.715,914.5
619.848,914.0
619.98,914.2
620.112,912.1
620.245,912.3
620.377,908.7
620.509,913.8
620.642,912.3
620.774,919.3
620.907,915.0
621.039,920.9
621.171,920.5
621.304,931.2
621.436,932.3
621.568,941.0
621.701,947.2
621.833,957.5
621.965,975.1
622.097,990.3
622.23,1004.9
622.362,1005.4
622.494,1005.1
622.627,984.5
622.759,966.4
622.891,948.2
623.024,933.1
623.156,927.3
623.288,923.1
623.42,919.0
623.553,914.0
623.685,910.1
623.817,914.8
623.949,912.8
624.082,915.4
624.214,910.1
624.346,909.9
624.479,910.7
624.611,909.2
624.743,910.4
624.875,910.8
625.007,908.8
625.14,914.1
625.272,914.9
625.404,920.3
625.536,918.8
625.669,922.0
625.801,925.3
625.933,932.5
626.065,941.4
626.197,962.7
626.33,980.3
626.462,1025.7
626.594,1096.1
626.726,1226.8
626.858,1458.8
626.99,1762.5
627.123,2125.5
627.255,2300.4
627.387,2235.1
627.519,2035.7
627.651,1864.4
627.783,1734.9
627.916,1661.3
628.048,1636.0
628.18,1659.8
628.312,1790.6
628.444,2118.9
628.576,2539.5
628.708,2324.2
628.84,1761.9
628.973,1567.5
629.105,1517.5
629.237,1477.4
629.369,1460.5
629.501,1410.1
629.633,1362.5
629.765,1305.2
629.897,1270.9
630.029,1246.4
630.161,1232.4
630.294,1231.0
630.426,1221.8
630.558,1208.3
630.69,1174.4
630.822,1130.5
630.954,1084.3
631.086,1036.1
631.218,991.4
631.35,963.6
631.482,948.1
631.614,932.6
631.746,924.5
631.878,925.7
632.01,918.2
632.142,913.8
632.274,908.2
632.406,909.5
632.538,910.2
632.67,909.0
632.802,905.6
632.934,905.4
633.066,901.7
633.198,903.5
633.33,901.0
633.462,898.1
633.594,897.2
633.726,896.5
633.858,896.1
633.99,895.9
634.122,896.6
634.254,893.2
634.386,892.4
634.518,894.3
634.65,891.7
634.782,888.0
634.914,891.7
635.046,889.0
635.178,889.3
635.31,888.6
635.442,888.8
635.574,890.3
635.706,887.9
635.838,888.0
635.97,888.2
636.102,886.2
636.234,883.6
636.365,890.2
636.497,885.6
636.629,888.4
636.761,889.0
636.893,888.1
637.025,889.6
637.157,886.3
637.289,882.3
637.421,882.4
637.553,879.8
637.685,880.3
637.816,882.1
637.948,879.5
638.08,879.7
638.212,881.6
638.344,880.3
638.476,878.6
638.608,877.3
638.74,881.8
638.871,879.4
639.003,881.3
639.135,880.4
639.267,880.1
639.399,879.8
639.531,879.4
639.662,878.7
639.794,879.7
639.926,877.8
640.058,880.5
640.19,875.7
640.322,880.2
640.453,879.8
640.585,878.1
640.717,880.1
640.849,876.6
640.981,879.8
641.113,883.0
641.244,877.1
641.376,876.7
641.508,876.9
641.64,880.1
641.772,881.3
641.903,877.7
642.035,879.5
642.167,881.6
642.299,878.9
642.43,878.2
642.562,878.8
642.694,880.8
642.826,877.2
642.958,879.0
643.089,880.8
643.221,880.7
643.353,879.1
643.485,874.7
643.616,878.9
643.748,877.7
643.88,877.7
644.012,877.3
644.143,877.8
644.275,880.1
644.407,878.3
644.538,879.0
644.67,877.3
644.802,875.3
644.934,877.3
645.065,878.8
645.197,877.3
645.329,878.3
645.461,880.6
645.592,877.6
645.724,878.4
645.856,873.3
645.987,876.2
646.119,876.0
646.251,877.7
646.382,877.1
646.514,877.8
646.646,876.1
646.777,875.0
646.909,873.3
647.041,876.6
647.172,875.5
647.304,877.6
647.436,879.2
647.567,876.4
647.699,876.7
647.831,877.2
647.962,877.7
648.094,876.3
648.226,875.5
648.357,873.7
648.489,875.1
648.621,876.7
648.752,875.6
648.884,877.1
649.016,877.3
649.147,876.0
649.279,876.5
649.411,875.8
649.542,872.0
649.674,873.9
649.805,875.2
649.937,875.0
650.069,877.4
650.2,874.9
650.332,871.9
650.463,873.5
650.595,874.7
650.727,873.7
650.858,875.2
650.99,875.5
651.121,876.3
651.253,876.5
651.385,875.5
651.516,876.6
651.648,875.2
651.779,874.2
651.911,876.0
652.043,873.4
652.174,875.0
652.306,878.7
652.437,875.1
652.569,877.3
652.7,876.2
652.832,875.3
652.963,871.3
653.095,877.0
653.227,876.6
653.358,875.5
653.49,874.8
653.621,874.7
653.753,874.5
653.884,869.7
654.016,872.5
654.147,873.9
654.279,875.4
654.41,872.5
654.542,875.0
654.674,874.3
654.805,874.5
654.937,873.7
655.068,872.3
655.2,872.7
655.331,872.2
655.463,873.6
655.594,875.5
655.726,872.8
655.857,874.9
655.989,872.8
656.12,871.1
656.252,873.3
656.383,872.0
656.515,872.4
656.646,872.2
656.778,872.2
656.909,872.7
657.041,872.4
657.172,874.4
657.304,872.1
657.435,872.3
657.567,873.4
657.698,872.0
657.829,868.9
657.961,873.0
658.092,873.9
658.224,872.1
658.355,870.8
658.487,874.8
658.618,872.4
658.75,877.1
658.881,869.4
659.013,870.2
659.144,870.9
659.275,868.6
659.407,871.5
659.538,870.9
659.67,870.3
659.801,871.7
659.933,871.9
660.064,871.8
660.196,872.5
660.327,870.4
660.458,870.2
660.59,869.3
660.721,870.2
660.853,866.7
660.984,869.9
661.116,868.5
661.247,867.5
661.378,868.6
661.51,867.3
661.641,867.2
661.773,867.7
661.904,866.1
662.035,864.4
662.167,867.6
662.298,865.8
662.43,865.6
662.561,862.4
662.692,864.5
662.824,863.5
662.955,864.0
663.087,865.5