File: spectra/VLFR_08-PLA_nobio_Raman_f7f9e741.csv
nm,Intensity
526.5,828.1
526.637,829.5
526.774,827.5
526.91,828.2
527.047,828.4
527.184,828.4
527.32,827.5
527.457,829.7
527.594,829.3
527.73,829.8
527.867,828.1
528.004,828.8
528.14,828.4
528.277,829.8
528.414,829.9
528.55,828.2
528.687,830.6
528.823,828.7
528.96,828.4
529.096,828.1
529.233,829.2
529.37,828.7
529.506,830.1
529.643,829.5
529.779,829.1
529.916,828.7
530.052,829.6
530.189,828.8
530.325,830.0
530.462,827.9
530.598,827.8
530.735,829.9
530.871,828.7
531.008,829.2
531.144,829.3
531.28,828.9
531.417,829.4
531.553,829.5
531.69,828.5
531.826,829.4
531.962,829.4
532.099,841.3
532.235,848.1
532.372,833.1
532.508,829.9
532.644,829.8
532.781,829.6
532.917,828.9
533.053,829.4
533.19,829.0
533.326,828.4
533.462,828.0
533.599,829.2
533.735,833.9
533.871,854.2
534.007,887.6
534.144,906.8
534.28,901.5
534.416,897.5
534.552,897.2
534.689,894.7
534.825,893.3
534.961,888.3
535.097,886.1
535.234,887.9
535.37,885.6
535.506,882.5
535.642,882.5
535.778,880.2
535.914,876.0
536.051,872.6
536.187,872.6
536.323,872.9
536.459,874.3
536.595,875.1
536.731,873.9
536.867,870.9
537.003,868.0
537.14,867.4
537.276,866.9
537.412,867.8
537.548,866.5
537.684,867.8
537.82,866.0
537.956,866.3
538.092,869.0
538.228,865.3
538.364,864.4
538.5,864.6
538.636,864.6
538.772,861.4
538.908,864.5
539.044,864.3
539.18,863.7
539.316,862.2
539.452,863.8
539.588,862.8
539.724,863.8
539.86,861.7
539.996,861.2
540.132,862.9
540.268,862.4
540.403,864.2
540.539,863.2
540.675,865.2
540.811,867.5
540.947,868.3
541.083,865.4
541.219,867.1
541.355,867.7
541.49,864.6
541.626,864.1
541.762,864.7
541.898,866.3
542.034,861.2
542.17,862.9
542.305,864.2
542.441,862.9
542.577,862.0
542.713,864.6
542.848,862.0
542.984,864.0
543.12,866.5
543.256,866.5
543.391,867.1
543.527,868.8
543.663,872.8
543.799,873.1
543.934,873.3
544.07,873.5
544.206,868.9
544.341,867.5
544.477,866.4
544.613,864.2
544.748,863.4
544.884,865.1
545.02,863.8
545.155,864.4
545.291,866.7
545.427,864.1
545.562,864.6
545.698,863.4
545.833,863.5
545.969,864.1
546.105,861.8
546.24,864.0
546.376,865.1
546.511,865.8
546.647,864.8
546.782,866.1
546.918,864.3
547.053,867.4
547.189,867.9
547.325,868.7
547.46,866.6
547.596,865.8
547.731,865.1
547.867,866.0
548.002,864.2
548.137,865.8
548.273,865.0
548.408,866.6
548.544,869.3
548.679,865.2
548.815,868.0
548.95,869.3
549.086,868.6
549.221,868.7
549.356,868.1
549.492,867.3
549.627,867.2
549.763,869.9
549.898,866.3
550.033,869.3
550.169,868.8
550.304,867.5
550.439,869.7
550.575,867.7
550.71,868.7
550.845,869.5
550.981,865.7
551.116,868.9
551.251,868.9
551.387,870.4
551.522,869.0
551.657,871.1
551.793,869.5
551.928,870.3
552.063,871.0
552.198,871.2
552.334,869.5
552.469,872.3
552.604,875.6
552.739,872.6
552.874,870.3
553.01,871.7
553.145,872.3
553.28,875.2
553.415,868.4
553.55,870.0
553.686,873.1
553.821,873.5
553.956,876.0
554.091,874.3
554.226,871.9
554.361,870.4
554.497,870.0
554.632,871.2
554.767,871.5
554.902,870.8
555.037,869.6
555.172,870.1
555.307,873.3
555.442,871.5
555.577,869.1
555.712,869.4
555.848,870.2
555.983,869.6
556.118,874.0
556.253,872.2
556.388,870.9
556.523,873.1
556.658,868.7
556.793,871.5
556.928,873.5
557.063,872.7
557.198,873.5
557.333,874.5
557.468,875.8
557.603,874.8
557.738,877.8
557.873,884.7
558.008,896.2
558.142,900.4
558.277,897.0
558.412,882.1
558.547,875.2
558.682,876.8
558.817,879.0
558.952,875.0
559.087,875.0
559.222,880.1
559.357,875.7
559.492,876.8
559.626,877.5
559.761,876.8
559.896,877.2
560.031,874.6
560.166,878.1
560.301,878.0
560.435,873.9
560.57,879.3
560.705,875.4
560.84,876.7
560.975,873.5
561.109,875.3
561.244,873.5
561.379,875.5
561.514,874.5
561.649,875.8
561.783,875.1
561.918,875.0
562.053,874.1
562.188,875.0
562.322,877.6
562.457,875.9
562.592,876.9
562.726,875.9
562.861,877.6
562.996,880.3
563.131,883.9
563.265,881.4
563.4,884.6
563.535,889.1
563.669,883.0
563.804,881.2
563.939,883.0
564.073,882.5
564.208,879.3
564.342,880.3
564.477,880.4
564.612,882.9
564.746,884.2
564.881,884.0
565.015,884.2
565.15,889.0
565.285,884.6
565.419,882.0
565.554,882.6
565.688,884.2
565.823,884.3
565.957,882.8
566.092,892.1
566.227,894.4
566.361,889.7
566.496,886.8
566.63,886.3
566.765,887.3
566.899,880.9
567.034,882.8
567.168,882.2
567.303,881.3
567.437,879.3
567.572,879.3
567.706,883.1
567.84,886.0
567.975,884.9
568.109,885.3
568.244,882.8
568.378,882.0
568.513,883.7
568.647,886.0
568.781,883.9
568.916,886.2
569.05,886.5
569.185,885.9
569.319,887.0
569.453,885.2
569.588,884.6
569.722,888.0
569.857,885.7
569.991,887.1
570.125,885.4
570.26,887.3
570.394,886.9
570.528,886.3
570.663,884.0
570.797,888.0
570.931,886.0
571.065,889.5
571.2,888.5
571.334,892.2
571.468,892.2
571.603,897.7
571.737,896.4
571.871,894.4
572.005,887.8
572.14,894.3
572.274,892.0
572.408,891.7
572.542,890.7
572.677,887.2
572.811,886.8
572.945,892.9
573.079,893.3
573.213,893.7
573.348,893.7
573.482,891.1
573.616,891.8
573.75,893.4
573.884,895.0
574.018,895.7
574.153,891.9
574.287,894.0
574.421,892.2
574.555,895.7
574.689,894.1
574.823,891.6
574.957,889.7
575.092,891.5
575.226,891.2
575.36,890.1
575.494,889.3
575.628,891.8
575.762,891.7
575.896,889.9
576.03,887.8
576.164,896.0
576.298,895.3
576.432,901.5
576.566,903.0
576.7,904.6
576.834,906.2
576.968,900.6
577.103,902.0
577.237,897.0
577.371,896.4
577.505,891.8
577.639,890.1
577.773,892.5
577.907,889.2
578.04,889.2
578.174,893.4
578.308,890.2
578.442,886.1
578.576,887.5
578.71,884.1
578.844,892.6
578.978,888.3
579.112,888.7
579.246,886.6
579.38,885.4
579.514,884.9
579.648,886.7
579.782,888.6
579.916,887.3
580.049,888.4
580.183,888.6
580.317,886.7
580.451,888.4
580.585,888.5
580.719,889.1
580.853,890.4
580.986,887.5
581.12,886.6
581.254,884.2
581.388,888.0
581.522,890.1
581.656,887.4
581.789,888.5
581.923,890.8
582.057,888.9
582.191,890.8
582.325,889.5
582.458,887.9
582.592,888.2
582.726,889.5
582.86,890.1
582.993,889.8
583.127,893.6
583.261,894.7
583.395,889.5
583.528,893.0
583.662,891.8
583.796,892.2
583.93,892.0
584.063,892.0
584.197,888.1
584.331,890.9
584.464,887.6
584.598,886.4
584.732,887.4
584.865,889.7
584.999,886.7
585.133,891.7
585.266,886.9
585.4,889.9
585.534,886.7
585.667,887.7
585.801,885.6
585.935,886.2
586.068,889.6
586.202,887.7
586.336,890.6
586.469,889.9
586.603,890.3
586.736,894.4
586.87,893.8
587.004,897.0
587.137,895.0
587.271,898.4
587.404,897.7
587.538,902.1
587.671,899.0
587.805,900.2
587.938,891.8
588.072,893.1
588.206,890.2
588.339,890.5
588.473,891.9
588.606,886.7
588.74,886.4
588.873,885.6
589.007,885.1
589.14,887.2
589.274,886.2
589.407,887.3
589.541,885.6
589.674,886.4
589.808,883.7
589.941,889.2
590.074,886.7
590.208,887.2
590.341,887.0
590.475,888.3
590.608,886.4
590.742,887.1
590.875,887.2
591.009,886.1
591.142,886.4
591.275,888.3
591.409,886.3
591.542,887.9
591.676,889.3
591.809,889.2
591.942,886.9
592.076,886.1
592.209,889.6
592.342,885.9
592.476,890.2
592.609,885.1
592.743,884.5
592.876,885.3
593.009,887.8
593.143,885.6
593.276,886.7
593.409,886.4
593.543,884.4
593.676,884.6
593.809,884.9
593.942,885.3
594.076,889.7
594.209,886.2
594.342,890.4
594.476,886.6
594.609,885.1
594.742,889.0
594.875,887.8
595.009,885.8
595.142,886.9
595.275,892.5
595.408,889.0
595.542,887.0
595.675,890.7
595.808,886.5
595.941,889.1
596.075,888.7
596.208,888.4
596.341,888.3
596.474,888.3
596.607,890.4
596.741,887.2
596.874,886.4
597.007,887.3
597.14,888.4
597.273,889.1
597.406,888.2
597.54,885.1
597.673,888.5
597.806,887.2
597.939,890.7
598.072,886.7
598.205,885.6
598.338,886.3
598.472,886.5
598.605,891.5
598.738,890.8
598.871,887.3
599.004,887.5
599.137,890.4
599.27,887.4
599.403,887.8
599.536,885.1
599.67,889.4
599.803,888.0
599.936,888.4
600.069,886.5
600.202,889.0
600.335,890.0
600.468,886.6
600.601,887.4
600.734,886.8
600.867,888.6
601.0,886.1
601.133,887.5
601.266,887.5
601.399,888.4
601.532,883.8
601.665,885.3
601.798,884.3
601.931,886.5
602.064,887.4
602.197,886.0
602.33,884.3
602.463,885.5
602.596,887.8
602.729,887.2
602.862,884.6
602.995,887.3
603.128,890.1
603.261,883.6
603.394,888.4
603.527,886.2
603.66,889.0
603.793,889.5
603.925,887.6
604.058,887.5
604.191,888.8
604.324,884.4
604.457,885.5
604.59,884.9
604.723,887.4
604.856,885.4
604.989,885.4
605.122,884.5
605.254,888.6
605.387,887.9
605.52,883.2
605.653,883.8
605.786,887.5
605.919,888.7
606.052,884.8
606.184,885.9
606.317,883.4
606.45,880.9
606.583,882.3
606.716,885.8
606.849,886.5
606.981,882.0
607.114,884.3
607.247,884.8
607.38,887.3
607.513,885.2
607.645,883.9
607.778,883.6
607.911,886.5
608.044,885.0
608.177,884.4
608.309,884.3
608.442,888.6
608.575,884.1
608.708,884.6
608.84,883.5
608.973,886.2
609.106,885.8
609.239,883.1
609.371,882.7
609.504,884.8
609.637,882.5
609.769,885.5
609.902,883.2
610.035,885.4
610.168,882.8
610.3,880.6
610.433,884.0
610.566,885.0
610.698,882.6
610.831,886.0
610.964,883.2
611.096,887.0
611.229,885.3
611.362,887.7
611.494,883.6
611.627,884.6
611.76,883.7
611.892,884.7
612.025,889.0
612.158,885.4
612.29,884.6
612.423,885.7
612.556,888.6
612.688,883.5
612.821,888.0
612.953,887.0
613.086,886.5
613.219,882.6
613.351,886.8
613.484,886.5
613.616,888.1
613.749,886.4
613.882,886.2
614.014,884.6
614.147,885.1
614.279,886.7
614.412,886.7
614.544,887.2
614.677,884.0
614.809,885.0
614.942,886.5
615.075,886.8
615.207,886.7
615.34,886.0
615.472,886.1
615.605,890.4
615.737,886.9
615.87,884.5
616.002,885.0
616.135,885.0
616.267,884.2
616.4,886.3
616.532,886.6
616.665,885.0
616.797,885.9
616.93,889.1
617.062,886.0
617.195,883.0
617.327,887.6
617.46,887.8
617.592,887.3
617.725,887.3
617.857,887.2
617.989,889.4
618.122,886.2
618.254,886.0
618.387,888.4
618.519,888.0
618.652,885.4
618.784,886.1
618.917,888.1
619.049,883.4
619.181,887.6
619.314,888.8
619.446,887.8
619.579,886.5
619.711,887.6
619.843,886.8
619.976,885.5
620.108,888.1
620.241,885.8
620.373,887.7
620.505,886.3
620.638,883.7
620.77,887.6
620.902,889.3
621.035,885.8
621.167,886.6
621.299,885.9
621.432,886.4
621.564,885.5
621.696,887.9
621.829,886.6
621.961,886.0
622.093,887.2
622.226,887.9
622.358,888.0
622.49,888.9
622.623,886.2
622.755,893.2
622.887,892.2
623.02,892.1
623.152,887.2
623.284,888.6
623.416,889.8
623.549,888.7
623.681,891.2
623.813,887.4
623.946,891.9
624.078,885.7
624.21,889.5
624.342,887.3
624.475,886.7
624.607,886.0
624.739,890.2
624.871,887.3
625.004,886.4
625.136,889.3
625.268,888.8
625.4,884.8
625.533,886.9
625.665,885.2
625.797,886.9
625.929,886.4
626.061,886.8
626.194,887.8
626.326,890.0
626.458,887.5
626.59,889.6
626.722,889.9
626.855,890.9
626.987,892.3
627.119,892.2
627.251,892.1
627.383,893.3
627.516,892.1
627.648,892.2
627.78,891.9
627.912,895.6
628.044,897.7
628.176,907.1
628.308,905.5
628.441,908.5
628.573,916.1
628.705,916.0
628.837,913.3
628.969,914.2
629.101,911.5
629.233,906.0
629.366,908.5
629.498,907.4
629.63,907.6
629.762,911.7
629.894,908.2
630.026,912.8
630.158,915.4
630.29,914.8
630.422,917.9
630.554,921.1
630.687,929.5
630.819,946.0
630.951,969.0
631.083,989.9
631.215,998.7
631.347,981.6
631.479,960.8
631.611,946.9
631.743,934.9
631.875,928.0
632.007,925.0
632.139,918.6
632.271,913.3
632.403,911.3
632.535,907.0
632.667,908.9
632.799,911.0
632.931,911.3
633.063,914.8
633.195,927.1
633.328,926.7
633.46,923.8
633.592,921.3
633.724,919.0
633.856,912.4
633.988,906.1
634.12,901.1
634.252,898.3
634.384,896.1
634.516,892.7
634.647,892.2
634.779,888.5
634.911,888.5
635.043,884.9
635.175,888.5
635.307,889.1
635.439,885.0
635.571,887.1
635.703,884.5
635.835,886.2
635.967,883.9
636.099,883.3
636.231,882.5
636.363,883.1
636.495,884.4
636.627,884.2
636.759,886.6
636.891,883.0
637.023,879.8
637.155,884.5
637.286,881.4
637.418,879.4
637.55,884.3
637.682,883.2
637.814,881.5
637.946,882.5
638.078,884.1
638.21,884.6
638.342,885.6
638.474,882.9
638.605,884.4
638.737,880.4
638.869,883.0
639.001,882.0
639.133,880.5
639.265,882.9
639.397,882.3
639.529,883.9
639.66,881.6
639.792,885.1
639.924,881.9
640.056,882.2
640.188,880.1
640.32,883.4
640.452,881.1
640.583,880.9
640.715,880.6
640.847,880.3
640.979,881.4
641.111,882.5
641.243,879.3
641.374,881.3
641.506,879.7
641.638,880.6
641.77,882.3
641.902,880.9
642.033,883.8
642.165,878.7
642.297,882.1
642.429,881.5
642.561,881.6
642.692,881.3
642.824,879.9
642.956,882.5
643.088,877.3
643.22,881.0
643.351,880.3
643.483,879.3
643.615,879.0
643.747,879.6
643.878,881.1
644.01,879.7
644.142,877.9
644.274,878.7
644.405,881.4
644.537,880.7
644.669,877.6
644.801,878.4
644.932,881.3
645.064,879.3
645.196,879.1
645.328,880.3
645.459,877.5
645.591,879.8
645.723,876.8
645.854,878.0
645.986,878.0
646.118,877.0
646.25,879.2
646.381,880.4
646.513,880.7
646.645,878.1
646.776,881.7
646.908,876.8
647.04,876.8
647.172,875.9
647.303,875.7
647.435,876.9
647.567,878.5
647.698,878.3
647.83,875.8
647.962,877.0
648.093,880.4
648.225,876.0
648.357,880.2
648.488,874.8
648.62,874.2
648.752,878.4
648.883,874.9
649.015,878.8
649.147,874.7
649.278,875.4
649.41,876.5
649.542,877.8
649.673,875.3
649.805,876.8
649.937,875.6
650.068,875.9
650.2,876.0
650.331,876.5
650.463,875.6
650.595,874.0
650.726,875.7
650.858,879.9
650.99,873.8
651.121,873.5
651.253,877.8
651.384,874.0
651.516,876.0
651.648,876.4
651.779,877.1
651.911,875.0
652.042,876.8
652.174,873.6
652.306,878.0
652.437,874.5
652.569,875.2
652.7,874.7
652.832,877.7
652.963,873.5
653.095,873.8
653.227,876.1
653.358,876.2
653.49,875.2
653.621,874.2
653.753,872.5
653.884,876.2
654.016,875.0
654.148,874.8
654.279,875.2
654.411,874.2
654.542,875.0
654.674,872.4
654.805,876.1
654.937,874.7
655.068,873.7
655.2,873.1
655.331,875.5
655.463,876.0
655.595,874.9
655.726,876.6
655.858,873.5
655.989,876.5
656.121,877.0
656.252,873.0
656.384,873.3
656.515,873.8
656.647,873.6
656.778,873.2
656.91,873.8
657.041,876.3
657.173,872.3
657.304,874.7
657.436,875.0
657.567,872.0
657.699,874.5
657.83,876.8
657.962,871.5
658.093,874.3
658.225,873.2
658.356,873.7
658.488,875.5
658.619,874.8
658.751,876.2
658.882,873.3
659.013,873.9
659.145,873.3
659.276,872.1
659.408,873.3
659.539,871.7
659.671,873.8
659.802,871.4
659.934,876.0
660.065,872.1
660.197,869.2
660.328,871.2
660.459,873.9
660.591,872.3
660.722,871.9
660.854,870.2
660.985,875.4
661.117,873.8
661.248,869.7
661.38,872.6
661.511,872.0
661.642,872.7
661.774,870.1
661.905,873.3
662.037,871.4
662.168,870.0
662.299,871.0
662.431,871.5
662.562,870.4
662.694,872.8
662.825,871.3
662.957,870.6
663.088,872.6