File: spectra/VLFR_08-PLA_bio_Raman_36dac0e4.csv
nm,Intensity
528.65,1838.1
528.819,1837.7
528.987,1837.4
529.155,1838.4
529.324,1839.05
529.492,1837.15
529.66,1837.0
529.829,1838.05
529.997,1837.35
530.165,1837.6
530.334,1838.25
530.502,1837.9
530.67,1838.35
530.839,1837.95
531.007,1837.7
531.175,1839.05
531.344,1841.8
531.512,1845.95
531.68,1870.4
531.848,2237.15
532.017,3686.95
532.185,3549.7
532.353,1986.45
532.521,1842.25
532.69,1840.8
532.858,1839.05
533.026,1840.05
533.194,1839.85
533.363,1844.95
533.531,1884.35
533.699,2149.0
533.867,2601.65
534.036,2887.9
534.204,2906.95
534.372,2886.05
534.54,2870.25
534.708,2826.05
534.877,2801.55
535.045,2820.1
535.213,2773.6
535.381,2769.9
535.549,2744.3
535.717,2726.15
535.886,2667.55
536.054,2660.7
536.222,2671.2
536.39,2700.15
536.558,2710.5
536.726,2709.05
536.894,2654.7
537.062,2667.05
537.231,2693.7
537.399,2677.85
537.567,2712.25
537.735,2703.65
537.903,2704.7
538.071,2676.1
538.239,2677.95
538.407,2643.0
538.575,2659.4
538.743,2667.25
538.911,2674.15
539.079,2682.5
539.247,2673.25
539.415,2691.3
539.583,2662.55
539.751,2652.75
539.919,2640.05
540.087,2662.45
540.255,2673.6
540.423,2707.95
540.591,2761.85
540.759,2741.6
540.927,2755.7
541.095,2753.55
541.263,2758.75
541.431,2761.9
541.599,2727.0
541.767,2733.1
541.935,2737.9
542.103,2737.15
542.271,2763.45
542.439,2771.95
542.607,2761.9
542.775,2758.65
542.943,2771.45
543.111,2822.45
543.279,2873.6
543.446,2876.3
543.614,2909.15
543.782,2895.0
543.95,2890.6
544.118,2855.05
544.286,2835.85
544.454,2798.2
544.622,2779.75
544.789,2807.05
544.957,2772.7
545.125,2761.3
545.293,2769.75
545.461,2800.05
545.629,2768.1
545.796,2801.7
545.964,2773.7
546.132,2794.8
546.3,2802.0
546.468,2792.25
546.635,2782.1
546.803,2814.35
546.971,2798.5
547.139,2814.45
547.306,2818.8
547.474,2816.45
547.642,2825.85
547.81,2825.1
547.977,2821.55
548.145,2839.0
548.313,2833.15
548.481,2857.4
548.648,2828.45
548.816,2842.05
548.984,2866.1
549.151,2864.1
549.319,2849.55
549.487,2861.1
549.655,2863.25
549.822,2851.35
549.99,2854.85
550.158,2877.35
550.325,2873.65
550.493,2881.1
550.66,2888.1
550.828,2914.4
550.996,2937.55
551.163,2934.2
551.331,2931.2
551.499,2940.7
551.666,2959.7
551.834,2965.4
552.001,2940.1
552.169,2977.4
552.337,2969.4
552.504,2937.9
552.672,2944.5
552.839,2983.1
553.007,2966.75
553.174,2974.5
553.342,2948.8
553.509,2960.65
553.677,2983.7
553.844,3003.25
554.012,3041.0
554.179,3004.95
554.347,3026.25
554.514,3028.25
554.682,3023.35
554.849,2996.6
555.017,2989.95
555.184,3008.2
555.352,2997.15
555.519,2993.9
555.687,2974.8
555.854,3002.95
556.022,3017.65
556.189,3024.55
556.357,3019.45
556.524,3010.0
556.691,3024.15
556.859,3032.95
557.026,3049.6
557.194,3095.6
557.361,3102.15
557.528,3174.55
557.696,3297.5
557.863,3526.15
558.031,3685.7
558.198,3613.25
558.365,3357.25
558.533,3210.45
558.7,3147.6
558.867,3166.65
559.035,3156.35
559.202,3131.8
559.369,3154.55
559.537,3103.45
559.704,3119.3
559.871,3100.6
560.038,3135.95
560.206,3095.65
560.373,3084.65
560.54,3122.55
560.708,3113.6
560.875,3089.55
561.042,3120.1
561.209,3143.95
561.377,3115.3
561.544,3109.45
561.711,3152.3
561.878,3170.25
562.045,3119.8
562.213,3132.6
562.38,3150.55
562.547,3149.0
562.714,3201.95
562.881,3194.25
563.049,3223.6
563.216,3281.0
563.383,3301.7
563.55,3289.7
563.717,3284.6
563.884,3211.45
564.052,3178.95
564.219,3169.35
564.386,3166.75
564.553,3213.3
564.72,3259.1
564.887,3258.2
565.054,3297.2
565.221,3270.7
565.388,3298.75
565.556,3262.15
565.723,3320.3
565.89,3347.2
566.057,3378.45
566.224,3380.95
566.391,3346.05
566.558,3267.0
566.725,3190.25
566.892,3162.2
567.059,3178.4
567.226,3164.45
567.393,3157.25
567.56,3175.6
567.727,3184.4
567.894,3233.65
568.061,3219.4
568.228,3218.65
568.395,3223.7
568.562,3191.7
568.729,3206.3
568.896,3243.0
569.063,3184.55
569.23,3247.2
569.396,3221.75
569.563,3224.85
569.73,3219.2
569.897,3203.1
570.064,3187.05
570.231,3207.5
570.398,3206.2
570.565,3227.85
570.732,3232.0
570.898,3241.3
571.065,3217.05
571.232,3249.9
571.399,3297.6
571.566,3357.85
571.733,3335.9
571.9,3349.95
572.066,3309.9
572.233,3307.35
572.4,3305.05
572.567,3319.3
572.734,3333.85
572.9,3275.4
573.067,3310.45
573.234,3300.3
573.401,3318.35
573.567,3304.95
573.734,3295.35
573.901,3249.3
574.068,3304.4
574.234,3283.35
574.401,3321.0
574.568,3337.15
574.734,3297.8
574.901,3275.4
575.068,3259.5
575.235,3241.35
575.401,3248.2
575.568,3272.2
575.735,3287.0
575.901,3247.95
576.068,3273.5
576.235,3352.7
576.401,3469.05
576.568,3532.0
576.734,3609.4
576.901,3553.6
577.068,3516.35
577.234,3387.85
577.401,3336.5
577.567,3253.95
577.734,3235.6
577.901,3259.35
578.067,3243.95
578.234,3276.55
578.4,3224.55
578.567,3255.65
578.733,3259.9
578.9,3241.7
579.066,3260.5
579.233,3234.25
579.399,3240.55
579.566,3274.35
579.732,3254.75
579.899,3263.4
580.065,3285.4
580.232,3281.65
580.398,3290.5
580.565,3260.5
580.731,3262.25
580.898,3288.35
581.064,3260.4
581.231,3291.85
581.397,3258.4
581.563,3273.6
581.73,3295.1
581.896,3286.1
582.063,3276.85
582.229,3267.1
582.395,3267.85
582.562,3253.95
582.728,3226.0
582.895,3285.8
583.061,3268.65
583.227,3276.4
583.394,3304.4
583.56,3280.25
583.726,3314.9
583.893,3267.05
584.059,3284.4
584.225,3287.8
584.391,3291.75
584.558,3286.4
584.724,3252.35
584.89,3258.6
585.057,3273.6
585.223,3282.45
585.389,3289.65
585.555,3277.6
585.722,3264.4
585.888,3286.3
586.054,3303.7
586.22,3308.2
586.386,3299.9
586.553,3395.5
586.719,3455.6
586.885,3471.8
587.051,3535.25
587.217,3572.8
587.384,3581.9
587.55,3576.25
587.716,3547.05
587.882,3507.55
588.048,3380.85
588.214,3337.8
588.38,3326.35
588.546,3286.65
588.713,3296.8
588.879,3296.45
589.045,3260.2
589.211,3278.4
589.377,3287.2
589.543,3279.65
589.709,3230.15
589.875,3258.25
590.041,3258.2
590.207,3239.75
590.373,3265.75
590.539,3298.8
590.705,3274.65
590.871,3279.3
591.037,3253.2
591.203,3263.9
591.369,3280.1
591.535,3258.45
591.701,3276.5
591.867,3283.95
592.033,3266.55
592.199,3269.55
592.365,3288.3
592.531,3286.05
592.697,3284.1
592.863,3259.95
593.029,3298.2
593.195,3228.05
593.361,3268.4
593.526,3271.4
593.692,3240.9
593.858,3235.3
594.024,3269.5
594.19,3273.35
594.356,3240.7
594.522,3231.9
594.687,3268.15
594.853,3251.05
595.019,3282.7
595.185,3264.05
595.351,3287.45
595.516,3275.95
595.682,3256.2
595.848,3297.55
596.014,3275.4
596.18,3220.4
596.345,3275.35
596.511,3282.85
596.677,3264.2
596.843,3273.05
597.008,3261.25
597.174,3259.15
597.34,3239.15
597.505,3227.7
597.671,3279.6
597.837,3272.3
598.002,3212.75
598.168,3240.6
598.334,3257.0
598.499,3251.9
598.665,3261.1
598.831,3245.8
598.996,3244.45
599.162,3257.65
599.328,3238.35
599.493,3250.65
599.659,3257.75
599.824,3243.9
599.99,3236.1
600.156,3229.15
600.321,3242.65
600.487,3277.1
600.652,3249.55
600.818,3229.85
600.983,3221.35
601.149,3234.0
601.314,3245.25
601.48,3240.8
601.645,3245.95
601.811,3220.7
601.976,3226.9
602.142,3237.65
602.307,3248.6
602.473,3184.45
602.638,3190.9
602.804,3230.7
602.969,3199.25
603.135,3254.45
603.3,3216.45
603.466,3191.95
603.631,3233.4
603.796,3214.15
603.962,3212.15
604.127,3177.85
604.293,3222.25
604.458,3196.45
604.623,3217.05
604.789,3177.85
604.954,3165.5
605.119,3209.15
605.285,3217.7
605.45,3181.15
605.615,3154.35
605.781,3169.7
605.946,3181.0
606.111,3180.75
606.277,3184.65
606.442,3160.75
606.607,3204.9
606.772,3182.75
606.938,3185.7
607.103,3181.75
607.268,3167.3
607.433,3159.5
607.599,3177.1
607.764,3149.9
607.929,3180.7
608.094,3141.55
608.259,3182.0
608.425,3181.9
608.59,3142.05
608.755,3134.35
608.92,3147.0
609.085,3131.7
609.25,3133.15
609.415,3148.35
609.581,3127.7
609.746,3142.0
609.911,3160.45
610.076,3162.25
610.241,3156.25
610.406,3134.1
610.571,3129.05
610.736,3139.7
610.901,3135.7
611.066,3090.3
611.231,3143.45
611.396,3144.5
611.561,3115.55
611.727,3123.05
611.892,3115.45
612.057,3106.1
612.222,3098.5
612.386,3124.15
612.551,3111.75
612.716,3101.55
612.881,3089.1
613.046,3109.9
613.211,3100.5
613.376,3112.95
613.541,3078.65
613.706,3097.4
613.871,3110.9
614.036,3114.3
614.201,3078.05
614.366,3103.2
614.531,3104.1
614.695,3058.85
614.86,3101.0
615.025,3113.05
615.19,3053.05
615.355,3081.2
615.52,3074.5
615.684,3057.85
615.849,3091.65
616.014,3063.8
616.179,3057.15
616.344,3060.2
616.508,3057.45
616.673,3036.65
616.838,3047.85
617.003,3097.4
617.168,3060.45
617.332,3054.25
617.497,3036.1
617.662,3037.6
617.826,3063.1
617.991,3056.75
618.156,3033.55
618.32,3036.35
618.485,3028.05
618.65,3044.15
618.814,3063.5
618.979,3038.85
619.144,3056.3
619.308,3014.95
619.473,3031.0
619.638,3040.6
619.802,3055.25
619.967,3049.65
620.131,3012.05
620.296,3001.2
620.461,3030.1
620.625,3049.65
620.79,3007.0
620.954,3046.5
621.119,3031.15
621.283,3020.4
621.448,3016.25
621.612,3020.8
621.777,2994.5
621.941,3014.8
622.106,3005.05
622.27,3017.1
622.435,3049.3
622.599,3012.15
622.764,3052.1
622.928,3044.3
623.093,3084.85
623.257,3067.85
623.422,3018.4
623.586,3026.8
623.75,3032.4
623.915,2996.65
624.079,3024.85
624.244,3002.75
624.408,3012.7
624.572,2991.0
624.737,2978.55
624.901,2985.15
625.065,2972.35
625.23,2972.15
625.394,2953.8
625.558,2965.25
625.723,2971.65
625.887,2980.3
626.051,2964.95
626.215,2960.3
626.38,2988.75
626.544,2953.2
626.708,2959.9
626.872,2975.15
627.037,2944.0
627.201,2972.9
627.365,2956.15
627.529,3002.45
627.693,2970.7
627.858,2995.4
628.022,3043.85
628.186,3137.55
628.35,3220.45
628.514,3269.7
628.678,3243.1
628.843,3187.15
629.007,3204.05
629.171,3142.3
629.335,3193.55
629.499,3198.3
629.663,3218.05
629.827,3194.7
629.991,3213.25
630.155,3245.35
630.319,3301.75
630.483,3465.4
630.647,3729.7
630.812,4215.35
630.976,4714.4
631.14,4861.3
631.304,4544.7
631.468,4118.75
631.632,3806.95
631.796,3568.05
631.959,3456.65
632.123,3374.45
632.287,3406.4
632.451,3337.8
632.615,3409.15
632.779,3480.0
632.943,3592.6
633.107,3668.6
633.271,3741.0
633.435,3657.8
633.599,3646.4
633.763,3553.1
633.926,3410.25
634.09,3249.25
634.254,3120.45
634.418,3064.65
634.582,3018.3
634.746,2955.95
634.909,2935.7
635.073,2960.0
635.237,2912.2
635.401,2893.35
635.564,2854.7
635.728,2887.65
635.892,2854.05
636.056,2856.35
636.219,2851.4
636.383,2887.6
636.547,2882.75
636.711,2845.05
636.874,2808.2
637.038,2865.05
637.202,2839.4
637.365,2828.3
637.529,2855.2
637.693,2846.75
637.856,2788.7
638.02,2875.25
638.184,2820.4
638.347,2853.85
638.511,2842.85
638.674,2821.65
638.838,2817.15
639.002,2820.05
639.165,2820.65
639.329,2828.5
639.492,2819.8
639.656,2805.15
639.819,2811.9
639.983,2823.25
640.146,2839.1
640.31,2832.35
640.473,2805.9
640.637,2787.1
640.8,2785.0
640.964,2794.8
641.127,2776.3
641.291,2791.3
641.454,2793.7
641.618,2791.15
641.781,2797.3
641.944,2802.55
642.108,2797.65
642.271,2805.5
642.435,2792.95
642.598,2752.15
642.761,2780.2
642.925,2746.25
643.088,2763.6
643.251,2766.3
643.415,2783.05
643.578,2779.9
643.741,2769.45
643.905,2779.25
644.068,2753.25
644.231,2742.6
644.394,2739.7
644.558,2749.75
644.721,2751.3
644.884,2720.3
645.047,2726.75
645.211,2750.7
645.374,2767.95
645.537,2733.05
645.7,2726.35
645.863,2709.45
646.027,2721.85
646.19,2735.6
646.353,2701.7
646.516,2756.95
646.679,2715.85
646.842,2704.95
647.005,2733.6
647.169,2706.7
647.332,2696.45
647.495,2691.9
647.658,2735.75
647.821,2704.3
647.984,2670.55
648.147,2727.3
648.31,2721.2
648.473,2676.3
648.636,2684.45
648.799,2681.8
648.962,2682.9
649.125,2699.2
649.288,2682.7
649.451,2670.95
649.614,2665.55
649.777,2672.0
649.94,2683.8
650.103,2633.35
650.266,2650.75
650.429,2650.85
650.592,2666.0
650.755,2667.9
650.918,2626.5
651.08,2654.65
651.243,2639.75
651.406,2642.35
651.569,2607.8
651.732,2635.35
651.895,2633.3
652.058,2624.35
652.22,2630.0
652.383,2618.75
652.546,2631.5
652.709,2597.6
652.872,2598.1
653.034,2608.85
653.197,2599.15
653.36,2600.7
653.523,2575.1
653.685,2567.55
653.848,2569.8
654.011,2552.55
654.173,2547.45
654.336,2570.75
654.499,2575.0
654.662,2542.7
654.824,2542.9
654.987,2537.5
655.149,2529.9
655.312,2534.65
655.475,2532.95
655.637,2530.3
655.8,2494.2
655.963,2519.75
656.125,2530.95
656.288,2501.85
656.45,2544.0
656.613,2504.25
656.775,2489.8
656.938,2488.85
657.1,2495.45
657.263,2486.65
657.425,2470.9
657.588,2478.05
657.75,2486.55
657.913,2488.9
658.075,2490.05
658.238,2465.25
658.4,2469.1
658.563,2452.55
658.725,2444.75
658.888,2458.35
659.05,2439.15
659.212,2446.1
659.375,2418.3
659.537,2423.6
659.7,2400.45
659.862,2411.3
660.024,2437.35
660.187,2415.7
660.349,2408.85
660.511,2413.5
660.674,2408.0
660.836,2408.75
660.998,2409.9
661.079,2419.15