File: spectra/VLFR_01-LDPE_nobio_Raman_ba917de7.csv
cm-1,Intensity
-123.878,1852.3
-117.855,1853.4
-111.836,1851.25
-105.821,1852.05
-99.8104,1853.2
-93.8036,1853.15
-87.8007,1852.8
-81.8019,1853.5
-75.807,1852.05
-69.8161,1853.4
-63.8293,1852.25
-57.8464,1853.0
-51.8675,1853.35
-45.8926,1854.25
-39.9216,1854.05
-33.9547,1854.4
-27.9917,1856.7
-22.0326,1863.9
-16.0776,1896.3
-10.1265,2606.25
-4.17932,4976.25
1.76388,4280.4
7.70313,1996.9
13.6384,1858.15
19.5698,1854.4
25.4972,1854.3
31.4207,1854.2
37.3403,1853.25
43.256,1853.8
49.1677,1863.35
55.0755,1919.9
60.9794,2013.2
66.8794,2075.85
72.7754,2090.2
78.6676,2084.4
84.5559,2089.85
90.4402,2085.65
96.3207,2088.9
102.197,2075.15
108.07,2064.0
113.939,2075.15
119.804,2070.95
125.665,2063.15
131.522,2045.85
137.375,2048.1
143.225,2044.1
149.07,2044.05
154.912,2041.2
160.75,2038.75
166.584,2035.55
172.414,2036.25
178.241,2041.5
184.063,2050.3
189.882,2044.35
195.697,2041.3
201.508,2056.45
207.315,2054.25
213.119,2045.75
218.918,2047.25
224.714,2057.2
230.506,2070.35
236.294,2069.6
242.078,2074.3
247.859,2071.9
253.636,2059.7
259.409,2042.15
265.178,2042.25
270.943,2030.65
276.705,2037.8
282.463,2035.4
288.217,2029.0
293.967,2027.25
299.713,2028.0
305.456,2032.5
311.195,2032.65
316.93,2030.65
322.662,2029.4
328.389,2037.65
334.113,2037.45
339.834,2040.3
345.55,2033.75
351.263,2037.9
356.972,2038.95
362.677,2047.8
368.379,2046.45
374.077,2044.3
379.771,2039.85
385.461,2034.9
391.148,2025.1
396.831,2030.3
402.51,2035.2
408.186,2033.5
413.858,2039.85
419.526,2021.4
425.19,2022.85
430.851,2025.85
436.508,2028.05
442.162,2024.9
447.811,2024.85
453.458,2018.0
459.1,2013.65
464.739,2018.05
470.374,2032.1
476.005,2037.0
481.633,2021.35
487.257,2021.6
492.878,2027.5
498.494,2031.1
504.107,2025.6
509.717,2025.3
515.323,2025.5
520.925,2019.35
526.524,2026.7
532.119,2017.8
537.71,2025.15
543.298,2025.7
548.882,2012.7
554.462,2033.35
560.039,2024.05
565.613,2024.95
571.182,2024.6
576.748,2018.65
582.311,2026.3
587.87,2026.1
593.425,2022.3
598.977,2026.65
604.525,2026.5
610.069,2020.05
615.61,2022.2
621.148,2027.55
626.682,2026.5
632.212,2027.55
637.739,2029.45
643.262,2028.55
648.781,2036.6
654.297,2032.0
659.81,2037.55
665.319,2032.35
670.824,2035.85
676.326,2039.3
681.824,2030.7
687.319,2036.0
692.81,2015.15
698.298,2024.35
703.782,2021.0
709.262,2018.6
714.739,2028.85
720.213,2025.65
725.683,2032.0
731.15,2028.3
736.613,2022.65
742.072,2033.35
747.528,2022.8
752.981,2027.85
758.43,2024.9
763.875,2030.6
769.317,2036.45
774.756,2035.05
780.191,2032.25
785.623,2025.8
791.051,2028.4
796.475,2032.25
801.897,2027.0
807.314,2030.55
812.729,2035.3
818.139,2028.9
823.547,2031.45
828.951,2034.25
834.351,2032.3
839.748,2039.45
845.142,2034.05
850.532,2041.5
855.918,2043.25
861.302,2046.6
866.681,2046.3
872.058,2043.1
877.431,2048.45
882.8,2042.65
888.166,2049.35
893.529,2040.05
898.888,2045.8
904.244,2039.35
909.596,2038.55
914.945,2039.5
920.291,2050.1
925.633,2044.6
930.972,2036.15
936.308,2031.1
941.64,2025.75
946.968,2043.35
952.294,2034.5
957.615,2040.45
962.934,2036.95
968.249,2049.75
973.561,2042.45
978.869,2041.55
984.174,2044.25
989.476,2045.25
994.774,2053.05
1000.07,2052.85
1005.36,2049.0
1010.65,2044.85
1015.93,2056.7
1021.22,2061.15
1026.49,2063.6
1031.77,2068.05
1037.04,2065.1
1042.31,2067.45
1047.57,2084.15
1052.83,2119.45
1058.09,2200.95
1063.35,2233.15
1068.6,2165.7
1073.85,2117.4
1079.09,2110.05
1084.33,2116.7
1089.57,2107.95
1094.81,2099.1
1100.04,2087.2
1105.27,2081.75
1110.49,2090.95
1115.71,2097.95
1120.93,2144.95
1126.15,2216.2
1131.36,2213.7
1136.57,2137.05
1141.77,2097.05
1146.98,2088.6
1152.18,2074.45
1157.37,2077.8
1162.56,2084.15
1167.75,2086.75
1172.94,2079.7
1178.12,2071.0
1183.3,2068.9
1188.48,2066.1
1193.65,2071.8
1198.82,2071.55
1203.99,2066.75
1209.15,2067.4
1214.31,2067.45
1219.46,2069.65
1224.62,2073.55
1229.77,2075.5
1234.92,2081.85
1240.06,2078.75
1245.2,2082.3
1250.34,2078.6
1255.47,2090.2
1260.6,2087.3
1265.73,2100.3
1270.85,2103.15
1275.97,2110.55
1281.09,2119.65
1286.21,2177.15
1291.32,2314.65
1296.43,2396.95
1301.53,2290.35
1306.63,2196.0
1311.73,2171.1
1316.83,2157.35
1321.92,2130.1
1327.01,2125.4
1332.1,2111.8
1337.18,2105.2
1342.26,2098.25
1347.34,2098.45
1352.41,2110.4
1357.48,2099.1
1362.55,2106.15
1367.61,2101.95
1372.67,2106.85
1377.73,2090.8
1382.78,2095.4
1387.84,2091.1
1392.88,2080.05
1397.93,2079.15
1402.97,2090.55
1408.01,2096.4
1413.05,2140.55
1418.08,2189.55
1423.11,2199.7
1428.14,2221.95
1433.16,2299.75
1438.18,2388.5
1443.2,2376.15
1448.21,2306.75
1453.22,2284.6
1458.23,2275.45
1463.23,2257.2
1468.23,2206.3
1473.23,2161.1
1478.23,2132.2
1483.22,2106.65
1488.21,2101.0
1493.2,2087.4
1498.18,2087.65
1503.16,2091.85
1508.14,2086.6
1513.11,2091.1
1518.08,2086.85
1523.05,2093.05
1528.01,2089.1
1532.97,2090.1
1537.93,2086.25
1542.89,2091.9
1547.84,2083.9
1552.79,2092.55
1557.73,2101.05
1562.68,2094.15
1567.62,2099.4
1572.56,2092.75
1577.49,2094.25
1582.42,2091.35
1587.35,2091.8
1592.27,2088.45
1597.19,2091.1
1602.11,2091.9
1607.03,2102.15
1611.94,2094.05
1616.85,2102.7
1621.76,2095.7
1626.66,2103.1
1631.56,2095.6
1636.46,2099.5
1641.36,2098.65
1646.25,2103.7
1651.14,2101.5
1656.02,2111.4
1660.9,2107.85
1665.78,2107.9
1670.66,2101.8
1675.54,2106.2
1680.41,2099.75
1685.27,2110.8
1690.14,2112.75
1695.0,2110.8
1699.86,2112.95
1704.71,2108.9
1709.57,2112.9
1714.42,2116.55
1719.26,2101.25
1724.11,2104.55
1728.95,2114.1
1733.79,2125.9
1738.62,2127.05
1743.46,2126.2
1748.28,2124.25
1753.11,2121.85
1757.93,2139.35
1762.75,2127.35
1767.57,2138.5
1772.39,2130.05
1777.2,2140.4
1782.01,2149.7
1786.81,2127.2
1791.62,2143.55
1796.41,2144.8
1801.21,2133.6
1806.01,2148.4
1810.8,2136.45
1815.59,2147.5
1820.37,2143.15
1825.15,2135.0
1829.93,2146.2
1834.71,2132.6
1839.48,2155.55
1844.25,2154.35
1849.02,2156.2
1853.79,2157.15
1858.55,2147.3
1863.31,2162.0
1868.06,2176.35
1872.82,2154.75
1877.57,2169.9
1882.31,2164.0
1887.06,2166.95
1891.8,2170.85
1896.54,2164.4
1901.28,2170.7
1906.01,2159.7
1910.74,2182.75
1915.47,2166.95
1920.19,2180.45
1924.91,2170.95
1929.63,2180.8
1934.35,2172.4
1939.06,2184.25
1943.77,2163.1
1948.48,2171.3
1953.19,2180.6
1957.89,2180.65
1962.59,2184.0
1967.28,2185.5
1971.98,2185.4
1976.67,2184.05
1981.35,2192.15
1986.04,2197.7
1990.72,2203.15
1995.4,2199.95
2000.08,2214.15
2004.75,2213.05
2009.42,2199.2
2014.09,2206.15
2018.75,2224.3
2023.42,2215.85
2028.08,2221.05
2032.73,2227.0
2037.39,2230.35
2042.04,2223.85
2046.69,2217.85
2051.33,2235.85
2055.97,2231.2
2060.61,2234.6
2065.25,2230.85
2069.88,2230.8
2074.52,2245.45
2079.15,2241.45
2083.77,2246.5
2088.39,2256.35
2093.01,2244.55
2097.63,2249.9
2102.25,2248.4
2106.86,2273.2
2111.47,2247.65
2116.08,2257.95
2120.68,2261.85
2125.28,2272.65
2129.88,2272.35
2134.47,2270.15
2139.07,2274.1
2143.66,2270.75
2148.24,2269.65
2152.83,2279.05
2157.41,2261.05
2161.99,2263.65
2166.57,2252.95
2171.14,2275.15
2175.71,2262.6
2180.28,2272.6
2184.84,2262.4
2189.41,2271.2
2193.97,2257.45
2198.52,2263.75
2203.08,2240.7
2207.63,2248.45
2212.18,2255.65
2216.73,2238.25
2221.27,2245.65
2225.81,2233.6
2230.35,2245.4
2234.89,2238.45
2239.42,2222.55
2243.95,2221.7
2248.48,2222.0
2253.0,2220.55
2257.52,2211.3
2262.04,2217.7
2266.56,2211.9
2271.07,2217.8
2275.58,2203.35
2280.09,2199.9
2284.6,2195.15
2289.1,2202.35
2293.6,2187.3
2298.1,2193.4
2302.6,2178.7
2307.09,2175.05
2311.58,2184.3
2316.07,2172.1
2320.55,2176.4
2325.03,2165.45
2329.51,2179.45
2333.99,2180.0
2338.46,2163.8
2342.93,2162.0
2347.4,2166.65
2351.87,2157.1
2356.33,2150.4
2360.79,2147.9
2365.25,2152.5
2369.71,2146.05
2374.16,2145.55
2378.61,2147.7
2383.06,2148.55
2387.5,2146.9
2391.94,2129.05
2396.38,2140.55
2400.82,2134.1
2405.26,2139.6
2409.69,2139.15
2414.12,2148.35
2418.54,2127.85
2422.97,2149.85
2427.39,2133.25
2431.81,2147.2
2436.22,2135.7
2440.64,2135.15
2445.05,2133.7
2449.46,2120.8
2453.86,2127.8
2458.27,2127.85
2462.67,2131.85
2467.06,2123.85
2471.46,2110.8
2475.85,2119.75
2480.24,2122.4
2484.63,2113.2
2489.02,2109.1
2493.4,2111.3
2497.78,2104.4
2502.16,2113.85
2506.53,2110.1
2510.9,2119.95
2515.27,2114.6
2519.64,2112.55
2524.0,2119.35
2528.37,2111.65
2532.73,2112.75
2537.08,2100.65
2541.44,2116.45
2545.79,2104.55
2550.14,2101.95
2554.48,2104.05
2558.83,2106.4
2563.17,2099.95
2567.51,2109.5
2571.85,2116.45
2576.18,2105.45
2580.51,2102.55
2584.84,2114.6
2589.17,2119.5
2593.49,2108.3
2597.81,2119.9
2602.13,2116.9
2606.45,2121.2
2610.76,2111.1
2615.07,2122.1
2619.38,2118.65
2623.69,2111.0
2627.99,2109.0
2632.29,2118.85
2636.59,2112.8
2640.89,2124.05
2645.18,2114.75
2649.47,2119.7
2653.76,2121.75
2658.05,2121.85
2662.33,2128.05
2666.61,2133.8
2670.89,2138.95
2675.17,2128.15
2679.44,2126.55
2683.71,2132.5
2687.98,2132.65
2692.25,2140.25
2696.51,2139.5
2700.77,2164.35
2705.03,2186.15
2709.29,2196.9
2713.54,2227.3
2717.79,2236.25
2722.04,2248.4
2726.29,2219.1
2730.53,2198.75
2734.77,2168.55
2739.01,2155.05
2743.25,2125.2
2747.48,2127.4
2751.71,2127.7
2755.94,2116.25
2760.17,2106.15
2764.39,2106.95
2768.61,2108.6
2772.83,2115.1
2777.05,2107.55
2781.27,2098.4
2785.48,2103.4
2789.69,2122.35
2793.89,2120.25
2798.1,2123.65
2802.3,2122.25
2806.5,2139.0
2810.7,2152.4
2814.89,2156.25
2819.09,2175.8
2823.28,2228.6
2827.46,2298.65
2831.65,2444.0
2835.83,2734.7
2840.01,3280.6
2844.19,3936.9
2848.37,4198.4
2852.54,4078.7
2856.71,3912.85
2860.88,3574.4
2865.05,3492.2
2869.21,3407.0
2873.37,3624.0
2877.53,3975.05
2881.69,4281.2
2885.84,4082.05
2889.99,3671.15
2894.14,3477.7
2898.29,3504.0
2902.43,3388.2
2906.58,3253.85
2910.72,3159.5
2914.85,3078.2
2918.99,3007.45
2923.12,2970.5
2927.25,2994.05
2931.38,2928.25
2935.5,2844.45
2939.63,2692.1
2943.75,2560.05
2947.87,2377.05
2951.98,2313.85
2956.1,2255.7
2960.21,2231.85
2964.32,2212.65
2968.42,2181.55
2972.53,2151.9
2976.63,2143.0
2980.73,2137.2
2984.83,2116.9
2988.92,2111.05
2993.01,2101.3
2997.1,2102.85
3001.19,2099.35
3005.28,2094.65
3009.36,2084.2
3013.44,2083.9
3017.52,2079.9
3021.6,2078.65
3025.67,2080.3
3029.74,2062.5
3033.81,2072.95
3037.88,2076.15
3041.94,2071.6
3046.01,2069.2
3050.07,2068.8
3054.12,2062.95
3058.18,2061.6
3062.23,2061.1
3066.28,2059.3
3070.33,2057.7
3074.38,2057.15
3078.42,2057.25
3082.46,2066.95
3086.5,2054.9
3090.54,2057.85
3094.57,2058.65
3098.6,2050.3
3102.63,2048.65
3106.66,2055.9
3110.69,2045.45
3114.71,2046.5
3118.73,2052.45
3122.75,2049.55
3126.77,2044.85
3130.78,2043.05
3134.79,2056.5
3138.8,2044.4
3142.81,2041.7
3146.81,2046.95
3150.82,2046.45
3154.82,2044.25
3158.81,2051.9
3162.81,2047.85
3166.8,2039.4
3170.79,2049.55
3174.78,2054.25
3178.77,2038.6
3182.75,2048.15
3186.74,2040.95
3190.72,2047.65
3194.69,2037.4
3198.67,2040.3
3202.64,2053.25
3206.61,2042.25
3210.58,2041.0
3214.55,2044.15
3218.51,2041.25
3222.47,2047.05
3226.43,2049.8
3230.39,2048.45
3234.35,2053.0
3238.3,2050.1
3242.25,2041.95
3246.2,2046.75
3250.15,2054.15
3254.09,2035.2
3258.03,2049.9
3261.97,2045.25
3265.91,2050.85
3269.84,2040.8
3273.78,2041.9
3277.71,2048.85
3281.64,2047.6
3285.56,2046.65
3289.49,2049.5
3293.41,2048.35
3297.33,2042.7
3301.25,2038.45
3305.16,2050.5
3309.07,2045.4
3312.99,2041.4
3316.89,2037.8
3320.8,2044.75
3324.7,2044.3
3328.61,2040.5
3332.51,2045.2
3336.4,2038.65
3340.3,2039.4
3344.19,2035.7
3348.08,2042.4
3351.97,2044.4
3355.86,2036.15
3359.74,2042.55
3363.63,2040.45
3367.51,2036.75
3371.39,2035.3
3375.26,2038.2
3379.13,2043.6
3383.01,2034.75
3386.88,2037.0
3390.74,2029.4
3394.61,2028.45
3398.47,2034.65
3402.33,2024.35
3406.19,2041.85
3410.05,2039.95
3413.9,2036.05
3417.75,2040.85
3421.6,2040.8
3425.45,2030.05
3429.3,2034.65
3433.14,2036.95
3436.98,2029.15
3440.82,2033.5
3444.66,2034.35
3448.49,2036.6
3452.32,2035.15
3456.15,2038.55
3459.98,2045.45
3463.81,2035.85
3467.63,2035.05
3471.46,2036.6
3475.28,2033.35
3479.09,2031.25
3482.91,2033.2
3486.72,2028.2
3490.53,2021.0
3494.34,2027.05
3498.15,2026.05
3501.96,2035.05
3505.76,2019.65
3509.56,2022.15
3513.36,2025.4
3517.15,2018.35
3520.95,2017.6
3524.74,2016.45
3528.53,2025.5
3532.32,2022.8
3536.11,2025.65
3539.89,2022.3
3543.67,2024.6
3547.45,2010.5
3551.23,2013.15
3555.0,2019.3
3558.78,2010.5
3562.55,2017.1
3566.32,2009.1
3570.09,2014.45
3573.85,2013.3
3577.61,2004.5
3581.37,2005.05
3585.13,2004.25
3588.89,2006.15
3592.64,2008.35
3596.4,2008.9
3600.15,2008.25
3603.9,2008.75
3607.64,1999.7
3611.39,2001.6
3615.13,1999.95
3618.87,1997.4
3622.61,1998.35
3626.34,1996.15
3630.08,1990.2
3633.81,1985.85
3637.54,1991.1
3641.27,1997.85
3644.99,1994.1
3648.72,1990.75
3652.44,1985.2
3656.16,1983.35
3659.87,1982.4
3663.59,1987.9
3665.45,1986.65