File: spectra/VLFR_02-HDPE_bio_Raman_67cf9340.csv
nm,Intensity
528.629,1852.45
528.797,1853.15
528.965,1853.2
529.134,1852.6
529.302,1853.6
529.471,1852.7
529.639,1853.05
529.808,1853.6
529.976,1853.1
530.145,1853.0
530.313,1852.5
530.481,1854.1
530.65,1853.45
530.818,1852.15
530.987,1854.7
531.155,1853.8
531.323,1855.55
531.492,1858.1
531.66,1879.15
531.829,2229.85
531.997,3320.75
532.165,2702.8
532.334,1911.45
532.502,1854.0
532.67,1854.55
532.839,1852.65
533.007,1854.4
533.175,1853.85
533.344,1853.95
533.512,1860.4
533.68,1890.0
533.848,1948.4
534.017,1973.65
534.185,1960.35
534.353,1936.05
534.522,1944.7
534.69,1952.1
534.858,1966.45
535.026,1970.2
535.195,1963.55
535.363,1966.9
535.531,1966.2
535.699,1963.3
535.868,1953.3
536.036,1943.2
536.204,1930.45
536.372,1923.8
536.54,1919.1
536.709,1918.3
536.877,1918.05
537.045,1916.15
537.213,1918.5
537.381,1918.7
537.55,1933.35
537.718,1937.6
537.886,1940.85
538.054,1940.5
538.222,1933.05
538.39,1923.05
538.558,1916.75
538.727,1911.5
538.895,1909.35
539.063,1911.15
539.231,1905.1
539.399,1902.15
539.567,1900.75
539.735,1908.9
539.903,1907.4
540.071,1907.05
540.239,1908.1
540.408,1906.45
540.576,1908.1
540.744,1909.65
540.912,1915.1
541.08,1908.45
541.248,1909.9
541.416,1912.45
541.584,1906.85
541.752,1909.95
541.92,1910.35
542.088,1906.1
542.256,1910.95
542.424,1913.15
542.592,1919.6
542.76,1918.05
542.928,1918.15
543.096,1918.35
543.264,1917.3
543.432,1917.9
543.6,1917.0
543.768,1918.85
543.936,1917.15
544.104,1918.8
544.271,1913.65
544.439,1918.0
544.607,1913.8
544.775,1916.05
544.943,1917.65
545.111,1917.35
545.279,1913.95
545.447,1920.8
545.615,1919.65
545.783,1916.25
545.95,1916.6
546.118,1919.05
546.286,1916.9
546.454,1918.05
546.622,1920.95
546.79,1920.85
546.957,1917.5
547.125,1923.2
547.293,1920.7
547.461,1923.1
547.629,1921.5
547.797,1922.35
547.964,1921.9
548.132,1915.5
548.3,1920.45
548.468,1928.9
548.635,1921.25
548.803,1926.35
548.971,1923.6
549.139,1926.0
549.306,1927.2
549.474,1921.1
549.642,1927.15
549.81,1928.95
549.977,1922.9
550.145,1925.3
550.313,1925.55
550.48,1937.2
550.648,1936.15
550.816,1931.7
550.983,1935.5
551.151,1932.05
551.319,1938.95
551.486,1940.1
551.654,1937.0
551.822,1940.95
551.989,1941.75
552.157,1935.0
552.325,1930.6
552.492,1930.2
552.66,1925.95
552.828,1924.15
552.995,1923.8
553.163,1916.0
553.33,1924.15
553.498,1924.1
553.665,1926.9
553.833,1925.25
554.001,1922.9
554.168,1924.1
554.336,1921.3
554.503,1922.65
554.671,1925.5
554.838,1925.1
555.006,1927.2
555.173,1927.0
555.341,1923.8
555.508,1925.95
555.676,1928.95
555.843,1923.65
556.011,1926.05
556.178,1925.9
556.346,1928.0
556.513,1927.15
556.681,1928.75
556.848,1929.35
557.016,1929.75
557.183,1927.9
557.35,1931.85
557.518,1927.35
557.685,1930.05
557.853,1932.4
558.02,1931.05
558.188,1932.95
558.355,1931.45
558.522,1931.4
558.69,1931.65
558.857,1933.35
559.024,1932.45
559.192,1933.75
559.359,1933.05
559.526,1939.55
559.694,1936.2
559.861,1934.05
560.028,1933.75
560.196,1935.65
560.363,1932.7
560.53,1932.2
560.698,1937.6
560.865,1937.35
561.032,1938.1
561.2,1939.0
561.367,1931.95
561.534,1940.25
561.701,1936.55
561.869,1934.8
562.036,1933.8
562.203,1938.1
562.37,1937.8
562.538,1937.5
562.705,1934.9
562.872,1936.2
563.039,1937.1
563.206,1940.95
563.374,1936.45
563.541,1938.45
563.708,1935.7
563.875,1937.85
564.042,1946.15
564.209,1938.9
564.376,1930.55
564.544,1939.4
564.711,1937.9
564.878,1935.45
565.045,1934.85
565.212,1942.6
565.379,1937.2
565.546,1938.0
565.713,1936.9
565.881,1936.6
566.048,1939.75
566.215,1943.9
566.382,1937.95
566.549,1938.5
566.716,1937.75
566.883,1936.25
567.05,1938.35
567.217,1943.5
567.384,1936.45
567.551,1934.7
567.718,1941.6
567.885,1940.45
568.052,1939.75
568.219,1941.8
568.386,1941.0
568.553,1939.3
568.72,1942.3
568.887,1936.9
569.054,1944.8
569.221,1940.95
569.388,1938.4
569.555,1943.25
569.722,1942.6
569.888,1940.85
570.055,1943.95
570.222,1940.05
570.389,1939.15
570.556,1946.3
570.723,1942.2
570.89,1936.4
571.057,1942.35
571.224,1945.9
571.39,1944.1
571.557,1943.5
571.724,1948.1
571.891,1945.4
572.058,1939.9
572.225,1951.7
572.391,1944.05
572.558,1944.8
572.725,1946.5
572.892,1944.4
573.059,1944.6
573.225,1940.5
573.392,1940.45
573.559,1946.2
573.726,1948.35
573.892,1940.75
574.059,1945.65
574.226,1943.15
574.393,1946.75
574.559,1943.55
574.726,1941.85
574.893,1946.8
575.059,1939.8
575.226,1950.3
575.393,1945.3
575.559,1945.1
575.726,1945.75
575.893,1951.2
576.059,1946.7
576.226,1950.05
576.393,1951.5
576.559,1949.55
576.726,1948.7
576.893,1944.9
577.059,1949.6
577.226,1949.2
577.392,1940.05
577.559,1954.7
577.726,1951.05
577.892,1949.55
578.059,1956.15
578.225,1950.25
578.392,1948.35
578.558,1954.85
578.725,1951.8
578.891,1941.7
579.058,1949.45
579.224,1947.55
579.391,1947.4
579.557,1947.1
579.724,1949.55
579.89,1952.0
580.057,1948.6
580.223,1955.25
580.39,1949.7
580.556,1952.4
580.723,1950.5
580.889,1955.6
581.056,1953.6
581.222,1949.1
581.388,1953.35
581.555,1956.9
581.721,1950.15
581.888,1957.65
582.054,1956.35
582.22,1954.2
582.387,1969.1
582.553,1969.1
582.719,1988.05
582.886,1996.95
583.052,2011.35
583.219,2008.15
583.385,1981.35
583.551,1970.25
583.717,1957.15
583.884,1961.15
584.05,1955.9
584.216,1951.15
584.383,1956.55
584.549,1950.95
584.715,1955.1
584.881,1955.05
585.048,1956.75
585.214,1953.65
585.38,1951.45
585.546,1951.7
585.713,1951.3
585.879,1953.4
586.045,1957.85
586.211,1950.9
586.377,1954.6
586.544,1953.6
586.71,1947.65
586.876,1956.6
587.042,1949.95
587.208,1951.55
587.374,1955.6
587.541,1955.25
587.707,1954.9
587.873,1948.3
588.039,1959.4
588.205,1960.6
588.371,1953.0
588.537,1955.95
588.703,1955.35
588.869,1955.65
589.035,1952.45
589.201,1956.0
589.368,1951.45
589.534,1963.1
589.7,1954.0
589.866,1962.05
590.032,1949.75
590.198,1949.85
590.364,1954.95
590.53,1951.8
590.696,1961.2
590.862,1954.8
591.028,1951.8
591.194,1961.3
591.36,1951.35
591.525,1954.05
591.691,1958.65
591.857,1954.8
592.023,1957.6
592.189,1956.1
592.355,1957.7
592.521,1957.95
592.687,1960.35
592.853,1953.65
593.019,1954.3
593.185,1959.0
593.35,1951.85
593.516,1960.55
593.682,1954.95
593.848,1959.4
594.014,1964.15
594.18,1951.95
594.345,1964.4
594.511,1958.0
594.677,1958.6
594.843,1958.15
595.009,1960.45
595.174,1954.65
595.34,1964.5
595.506,1959.1
595.672,1960.05
595.837,1963.7
596.003,1958.6
596.169,1961.95
596.335,1964.1
596.5,1972.2
596.666,1961.65
596.832,1962.1
596.997,1964.8
597.163,1960.7
597.329,1961.75
597.494,1961.95
597.66,1966.55
597.826,1962.95
597.991,1962.9
598.157,1963.3
598.323,1961.75
598.488,1964.4
598.654,1964.4
598.819,1964.45
598.985,1962.8
599.151,1958.7
599.316,1958.4
599.482,1964.95
599.647,1969.65
599.813,1964.65
599.978,1972.15
600.144,1966.3
600.309,1975.7
600.475,1965.95
600.641,1964.8
600.806,1966.5
600.972,1965.5
601.137,1965.25
601.302,1965.35
601.468,1965.3
601.633,1964.05
601.799,1966.0
601.964,1958.95
602.13,1968.25
602.295,1973.1
602.461,1969.15
602.626,1965.45
602.791,1969.1
602.957,1974.45
603.122,1970.15
603.288,1968.9
603.453,1966.45
603.618,1970.75
603.784,1975.95
603.949,1971.1
604.114,1974.3
604.28,1973.65
604.445,1965.15
604.61,1971.3
604.776,1971.05
604.941,1969.35
605.106,1964.45
605.272,1974.05
605.437,1977.0
605.602,1964.05
605.767,1970.85
605.933,1980.05
606.098,1971.35
606.263,1973.0
606.428,1969.9
606.593,1972.55
606.759,1974.3
606.924,1966.95
607.089,1970.65
607.254,1966.05
607.419,1973.2
607.585,1968.9
607.75,1968.55
607.915,1965.15
608.08,1962.75
608.245,1967.55
608.41,1969.25
608.575,1965.95
608.74,1973.0
608.906,1973.0
609.071,1967.6
609.236,1970.5
609.401,1958.75
609.566,1965.45
609.731,1969.45
609.896,1963.55
610.061,1976.1
610.226,1966.55
610.391,1965.6
610.556,1972.85
610.721,1968.9
610.886,1963.8
611.051,1976.65
611.216,1967.0
611.381,1964.25
611.546,1968.85
611.711,1978.05
611.876,1965.1
612.041,1964.3
612.206,1971.2
612.371,1969.5
612.536,1965.45
612.7,1966.2
612.865,1970.1
613.03,1969.3
613.195,1963.0
613.36,1968.3
613.525,1968.5
613.69,1964.15
613.855,1969.5
614.019,1969.55
614.184,1968.35
614.349,1964.85
614.514,1968.9
614.679,1967.65
614.843,1966.15
615.008,1965.4
615.173,1972.85
615.338,1963.55
615.503,1965.3
615.667,1972.15
615.832,1973.8
615.997,1965.8
616.161,1969.3
616.326,1970.5
616.491,1967.8
616.656,1963.7
616.82,1968.25
616.985,1964.7
617.15,1971.8
617.314,1968.55
617.479,1965.1
617.644,1969.05
617.808,1968.4
617.973,1970.8
618.137,1965.3
618.302,1970.7
618.467,1969.9
618.631,1966.75
618.796,1971.35
618.96,1962.1
619.125,1968.3
619.289,1972.8
619.454,1968.75
619.619,1973.75
619.783,1969.2
619.948,1960.85
620.112,1977.35
620.277,1971.05
620.441,1973.45
620.606,1966.0
620.77,1961.3
620.935,1965.75
621.099,1974.35
621.263,1964.85
621.428,1974.8
621.592,1970.25
621.757,1967.85
621.921,1964.8
622.086,1965.35
622.25,1975.9
622.414,1963.8
622.579,1967.15
622.743,1962.4
622.907,1965.45
623.072,1970.1
623.236,1975.55
623.401,1961.9
623.565,1970.25
623.729,1969.15
623.893,1967.8
624.058,1970.5
624.222,1960.5
624.386,1961.05
624.551,1962.65
624.715,1974.25
624.879,1970.2
625.043,1962.5
625.208,1967.2
625.372,1963.85
625.536,1971.55
625.7,1961.75
625.864,1961.45
626.029,1969.95
626.193,1967.35
626.357,1962.3
626.521,1963.1
626.685,1971.15
626.849,1971.0
627.014,1972.4
627.178,1969.4
627.342,1964.95
627.506,1969.05
627.67,1962.75
627.834,1968.75
627.998,1967.7
628.162,1972.8
628.326,1970.4
628.49,1970.95
628.654,1975.65
628.818,1972.6
628.983,1970.05
629.147,1965.0
629.311,1968.15
629.475,1967.95
629.639,1962.65
629.803,1968.9
629.966,1964.45
630.13,1961.8
630.294,1965.2
630.458,1976.65
630.622,1967.05
630.786,1965.8
630.95,1966.75
631.114,1969.15
631.278,1963.25
631.442,1960.4
631.606,1965.6
631.77,1962.55
631.933,1966.0
632.097,1963.45
632.261,1968.0
632.425,1963.25
632.589,1961.95
632.753,1962.15
632.916,1963.65
633.08,1965.9
633.244,1959.6
633.408,1958.05
633.572,1962.95
633.735,1962.45
633.899,1961.65
634.063,1972.35
634.227,1961.5
634.39,1971.8
634.554,1956.4
634.718,1958.6
634.881,1960.3
635.045,1960.9
635.209,1967.95
635.372,1958.25
635.536,1959.9
635.7,1958.55
635.863,1959.1
636.027,1955.95
636.191,1965.95
636.354,1964.95
636.518,1965.3
636.681,1960.15
636.845,1959.6
637.009,1963.4
637.172,1960.4
637.336,1961.3
637.499,1961.35
637.663,1961.85
637.826,1957.65
637.99,1959.6
638.153,1967.5
638.317,1965.6
638.48,1964.0
638.644,1965.2
638.807,1960.15
638.971,1959.65
639.134,1961.1
639.298,1962.7
639.461,1964.85
639.625,1963.35
639.788,1973.05
639.951,1957.9
640.115,1962.6
640.278,1967.0
640.441,1965.7
640.605,1961.2
640.768,1961.0
640.932,1963.2
641.095,1963.55
641.258,1962.2
641.422,1967.3
641.585,1966.95
641.748,1977.95
641.911,1973.7
642.075,1975.65
642.238,1977.3
642.401,1980.45
642.565,1974.85
642.728,1991.2
642.891,1997.65
643.054,1992.35
643.217,2002.4
643.381,1985.3
643.544,1988.7
643.707,1993.05
643.87,1991.1
644.033,1980.1
644.197,1989.2
644.36,1980.3
644.523,1982.5
644.686,2003.9
644.849,1995.1
645.012,1985.9
645.175,1983.45
645.338,1988.75
645.501,1998.05
645.664,1987.25
645.828,1994.25
645.991,2003.5
646.154,2001.1
646.317,2001.95
646.48,2006.9
646.643,2009.75
646.806,2013.15
646.969,2013.55
647.132,2017.5
647.295,2038.15
647.458,2040.75
647.621,2050.95
647.783,2061.6
647.946,2060.45
648.109,2082.8
648.272,2082.3
648.435,2113.4
648.598,2148.35
648.761,2136.6
648.924,2169.55
649.087,2173.7
649.25,2187.4
649.412,2220.15
649.575,2265.8
649.738,2271.45
649.901,2267.9
650.064,2303.85
650.226,2279.5
650.389,2320.35
650.552,2351.9
650.715,2375.0
650.878,2373.6
651.04,2378.3
651.203,2339.2
651.366,2328.0
651.528,2306.15
651.691,2265.15
651.854,2247.5
652.017,2215.45
652.179,2178.1
652.342,2189.7
652.505,2139.8
652.667,2136.35
652.83,2092.75
652.992,2099.3
653.155,2072.05
653.318,2074.3
653.48,2065.4
653.643,2046.4
653.805,2047.65
653.968,2034.5
654.131,2034.85
654.293,2019.1
654.456,2008.05
654.618,2008.05
654.781,1999.3
654.943,2001.05
655.106,1992.75
655.268,1989.65
655.431,2000.85
655.593,1992.05
655.756,1986.9
655.918,1977.65
656.081,1980.35
656.243,1979.75
656.405,1971.55
656.568,1975.45
656.73,1961.65
656.893,1965.5
657.055,1966.25
657.217,1953.2
657.38,1960.0
657.542,1963.05
657.704,1942.5
657.867,1951.95
658.029,1952.45
658.191,1947.35
658.354,1940.7
658.516,1950.05
658.678,1944.0
658.84,1938.75
659.003,1947.95
659.165,1942.3
659.327,1933.5
659.489,1935.55
659.652,1931.1
659.814,1930.0
659.976,1932.35
660.138,1931.15
660.3,1929.7
660.463,1923.55
660.625,1930.05
660.787,1926.1
660.949,1924.55
661.03,1924.4