File: spectra/VLFR_02-HDPE_bio_Raman_123cdeff.csv
nm,Intensity
528.65,1837.25
528.819,1837.4
528.987,1834.5
529.155,1836.75
529.324,1835.15
529.492,1837.8
529.66,1836.1
529.829,1836.45
529.997,1837.35
530.165,1837.0
530.334,1836.75
530.502,1837.65
530.67,1837.25
530.839,1837.95
531.007,1837.25
531.175,1839.3
531.344,1844.15
531.512,1848.45
531.68,1886.05
531.848,2584.8
532.017,5281.75
532.185,4966.85
532.353,2286.1
532.521,1844.7
532.69,1841.05
532.858,1837.4
533.026,1839.15
533.194,1838.9
533.363,1839.3
533.531,1852.15
533.699,1941.0
533.867,2132.65
534.036,2268.15
534.204,2292.75
534.372,2287.55
534.54,2284.0
534.708,2301.3
534.877,2332.2
535.045,2315.3
535.213,2285.45
535.381,2224.0
535.549,2173.15
535.717,2139.35
535.886,2107.8
536.054,2091.25
536.222,2079.8
536.39,2074.85
536.558,2067.4
536.726,2063.6
536.894,2060.95
537.062,2061.8
537.231,2067.95
537.399,2062.3
537.567,2062.6
537.735,2067.4
537.903,2069.05
538.071,2060.55
538.239,2059.6
538.407,2046.3
538.575,2048.2
538.743,2048.7
538.911,2048.95
539.079,2047.7
539.247,2027.75
539.415,2026.05
539.583,2023.75
539.751,2019.9
539.919,2024.15
540.087,2026.65
540.255,2016.5
540.423,2023.15
540.591,2017.65
540.759,2018.45
540.927,2017.5
541.095,2016.05
541.263,2019.65
541.431,2021.55
541.599,2019.95
541.767,2028.6
541.935,2019.0
542.103,2021.4
542.271,2026.25
542.439,2023.7
542.607,2027.7
542.775,2026.3
542.943,2021.75
543.111,2019.45
543.279,2022.85
543.446,2025.6
543.614,2025.9
543.782,2021.5
543.95,2031.45
544.118,2029.0
544.286,2026.85
544.454,2023.55
544.622,2023.7
544.789,2020.7
544.957,2025.25
545.125,2013.65
545.293,2022.65
545.461,2025.25
545.629,2021.7
545.796,2022.5
545.964,2023.45
546.132,2032.4
546.3,2031.0
546.468,2026.4
546.635,2029.65
546.803,2030.3
546.971,2029.9
547.139,2039.05
547.306,2034.3
547.474,2040.1
547.642,2031.25
547.81,2027.6
547.977,2030.25
548.145,2032.0
548.313,2032.95
548.481,2032.7
548.648,2039.65
548.816,2030.85
548.984,2028.9
549.151,2032.0
549.319,2035.15
549.487,2035.65
549.655,2042.7
549.822,2033.45
549.99,2040.25
550.158,2036.7
550.325,2034.95
550.493,2037.1
550.66,2048.65
550.828,2045.3
550.996,2045.85
551.163,2042.9
551.331,2044.0
551.499,2051.45
551.666,2051.3
551.834,2059.6
552.001,2049.2
552.169,2054.7
552.337,2058.55
552.504,2051.1
552.672,2049.25
552.839,2059.3
553.007,2063.7
553.174,2078.35
553.342,2076.75
553.509,2081.4
553.677,2079.95
553.844,2082.25
554.012,2086.4
554.179,2083.4
554.347,2084.65
554.514,2088.65
554.682,2082.65
554.849,2084.6
555.017,2092.95
555.184,2100.0
555.352,2095.8
555.519,2092.85
555.687,2095.55
555.854,2103.05
556.022,2101.0
556.189,2117.3
556.357,2111.15
556.524,2102.9
556.691,2121.3
556.859,2130.3
557.026,2121.45
557.194,2123.75
557.361,2141.7
557.528,2139.1
557.696,2155.5
557.863,2155.45
558.031,2145.3
558.198,2156.95
558.365,2165.65
558.533,2164.35
558.7,2163.9
558.867,2155.9
559.035,2147.85
559.202,2138.9
559.369,2156.85
559.537,2152.95
559.704,2144.45
559.871,2143.1
560.038,2143.2
560.206,2146.8
560.373,2134.25
560.54,2136.05
560.708,2139.05
560.875,2144.6
561.042,2145.85
561.209,2142.45
561.377,2154.8
561.544,2150.65
561.711,2155.1
561.878,2166.7
562.045,2163.7
562.213,2169.15
562.38,2181.9
562.547,2185.05
562.714,2174.4
562.881,2192.2
563.049,2200.8
563.216,2205.55
563.383,2223.95
563.55,2270.65
563.717,2454.0
563.884,2894.4
564.052,3142.75
564.219,2777.4
564.386,2413.65
564.553,2373.45
564.72,2365.2
564.887,2340.1
565.054,2307.9
565.221,2291.4
565.388,2283.25
565.556,2290.8
565.723,2367.65
565.89,2589.6
566.057,3039.75
566.224,3232.4
566.391,2723.2
566.558,2330.15
566.725,2253.8
566.892,2243.6
567.059,2250.3
567.226,2299.45
567.393,2384.55
567.56,2404.1
567.727,2285.5
567.894,2223.4
568.061,2202.35
568.228,2206.8
568.395,2211.6
568.562,2203.2
568.729,2213.0
568.896,2216.95
569.063,2207.9
569.23,2211.3
569.396,2215.9
569.563,2226.4
569.73,2231.3
569.897,2223.15
570.064,2228.8
570.231,2241.35
570.398,2261.95
570.565,2304.05
570.732,2318.2
570.898,2314.45
571.065,2371.6
571.232,2617.85
571.399,3382.65
571.566,4032.15
571.733,3342.5
571.9,2631.55
572.066,2442.6
572.233,2372.95
572.4,2333.45
572.567,2292.65
572.734,2268.95
572.9,2260.95
573.067,2242.05
573.234,2246.65
573.401,2252.9
573.567,2266.2
573.734,2298.3
573.901,2344.2
574.068,2335.4
574.234,2280.25
574.401,2241.3
574.568,2239.25
574.734,2235.95
574.901,2249.0
575.068,2278.0
575.235,2391.45
575.401,2712.1
575.568,2995.5
575.735,2842.2
575.901,2787.95
576.068,3098.8
576.235,3512.85
576.401,3497.65
576.568,3189.0
576.734,3022.55
576.901,3099.8
577.068,3040.25
577.234,2906.6
577.401,2679.9
577.567,2493.15
577.734,2406.85
577.901,2351.0
578.067,2352.7
578.234,2322.45
578.4,2317.3
578.567,2308.7
578.733,2307.5
578.9,2299.85
579.066,2317.3
579.233,2315.55
579.399,2314.4
579.566,2308.35
579.732,2321.3
579.899,2334.25
580.065,2314.6
580.232,2330.5
580.398,2338.65
580.565,2329.65
580.731,2331.4
580.898,2350.0
581.064,2339.1
581.231,2359.8
581.397,2364.65
581.563,2360.85
581.73,2366.7
581.896,2368.05
582.063,2369.55
582.229,2360.8
582.395,2376.0
582.562,2374.2
582.728,2382.1
582.895,2389.15
583.061,2388.3
583.227,2396.55
583.394,2413.05
583.56,2405.3
583.726,2408.5
583.893,2414.9
584.059,2415.25
584.225,2429.9
584.391,2432.8
584.558,2433.2
584.724,2434.15
584.89,2445.35
585.057,2463.85
585.223,2467.95
585.389,2450.1
585.555,2464.2
585.722,2486.25
585.888,2479.25
586.054,2492.35
586.22,2495.15
586.386,2490.3
586.553,2500.15
586.719,2523.85
586.885,2534.4
587.051,2557.95
587.217,2550.1
587.384,2544.45
587.55,2564.2
587.716,2580.85
587.882,2568.05
588.048,2583.85
588.214,2606.75
588.38,2594.25
588.546,2627.95
588.713,2615.8
588.879,2634.2
589.045,2637.85
589.211,2638.45
589.377,2629.2
589.543,2667.0
589.709,2650.7
589.875,2683.8
590.041,2689.1
590.207,2696.45
590.373,2720.5
590.539,2710.4
590.705,2737.4
590.871,2742.05
591.037,2730.0
591.203,2774.5
591.369,2755.2
591.535,2771.7
591.701,2766.05
591.867,2838.4
592.033,2848.0
592.199,2817.05
592.365,2841.65
592.531,2850.4
592.697,2847.2
592.863,2862.75
593.029,2896.65
593.195,2892.2
593.361,2887.1
593.526,2917.0
593.692,2921.45
593.858,2928.5
594.024,2935.8
594.19,2980.45
594.356,2975.85
594.522,2983.7
594.687,2979.75
594.853,3011.65
595.019,3022.35
595.185,3051.95
595.351,3045.6
595.516,3084.4
595.682,3074.6
595.848,3096.4
596.014,3133.4
596.18,3123.3
596.345,3147.5
596.511,3161.9
596.677,3206.1
596.843,3183.4
597.008,3179.2
597.174,3192.85
597.34,3248.95
597.505,3268.05
597.671,3280.25
597.837,3291.25
598.002,3334.95
598.168,3316.7
598.334,3303.05
598.499,3350.55
598.665,3342.45
598.831,3359.95
598.996,3393.65
599.162,3379.35
599.328,3428.95
599.493,3451.6
599.659,3480.85
599.824,3427.1
599.99,3451.15
600.156,3425.8
600.321,3489.05
600.487,3460.45
600.652,3474.8
600.818,3477.55
600.983,3450.4
601.149,3461.25
601.314,3492.95
601.48,3460.15
601.645,3502.85
601.811,3507.7
601.976,3524.05
602.142,3506.05
602.307,3516.8
602.473,3491.6
602.638,3416.9
602.804,3473.55
602.969,3381.2
603.135,3430.65
603.3,3439.9
603.466,3415.75
603.631,3388.9
603.796,3400.9
603.962,3375.75
604.127,3383.75
604.293,3346.4
604.458,3322.85
604.623,3358.4
604.789,3327.45
604.954,3276.2
605.119,3268.25
605.285,3303.0
605.45,3257.95
605.615,3196.2
605.781,3217.7
605.946,3204.5
606.111,3187.0
606.277,3171.7
606.442,3164.65
606.607,3151.1
606.772,3139.05
606.938,3095.45
607.103,3115.45
607.268,3098.05
607.433,3068.65
607.599,3054.75
607.764,3045.35
607.929,3038.0
608.094,3010.6
608.259,3043.85
608.425,3050.55
608.59,3006.6
608.755,2995.6
608.92,3002.55
609.085,2959.65
609.25,2979.9
609.415,2936.6
609.581,2958.75
609.746,2964.75
609.911,2946.9
610.076,2945.25
610.241,2920.65
610.406,2906.0
610.571,2947.85
610.736,2938.3
610.901,2926.75
611.066,2935.3
611.231,2922.3
611.396,2910.4
611.561,2871.8
611.727,2857.85
611.892,2849.3
612.057,2871.65
612.222,2861.15
612.386,2822.9
612.551,2823.95
612.716,2841.05
612.881,2843.45
613.046,2793.65
613.211,2816.95
613.376,2814.1
613.541,2819.8
613.706,2798.0
613.871,2783.75
614.036,2804.9
614.201,2805.05
614.366,2799.65
614.531,2797.45
614.695,2783.45
614.86,2765.75
615.025,2772.3
615.19,2782.8
615.355,2796.25
615.52,2754.95
615.684,2777.05
615.849,2776.75
616.014,2784.75
616.179,2773.05
616.344,2774.45
616.508,2774.8
616.673,2767.1
616.838,2810.9
617.003,2828.1
617.168,2834.9
617.332,2856.2
617.497,2823.3
617.662,2848.3
617.826,2834.35
617.991,2845.75
618.156,2844.7
618.32,2824.1
618.485,2795.55
618.65,2811.1
618.814,2810.35
618.979,2818.2
619.144,2799.75
619.308,2858.9
619.473,2855.95
619.638,2859.15
619.802,2881.85
619.967,2833.45
620.131,2836.8
620.296,2851.6
620.461,2854.65
620.625,2854.65
620.79,2862.55
620.954,2897.4
621.119,2923.85
621.283,3040.5
621.448,3058.25
621.612,3151.7
621.777,3268.4
621.941,3393.8
622.106,3523.9
622.27,3597.65
622.435,3510.05
622.599,3352.1
622.764,3147.75
622.928,3018.8
623.093,2952.3
623.257,2856.55
623.422,2828.35
623.586,2835.8
623.75,2796.55
623.915,2811.2
624.079,2796.5
624.244,2786.05
624.408,2788.8
624.572,2778.15
624.737,2779.6
624.901,2795.05
625.065,2843.05
625.23,2848.85
625.394,2857.8
625.558,2899.05
625.723,2947.0
625.887,2987.0
626.051,3136.95
626.215,3379.0
626.38,3780.0
626.544,4683.35
626.708,6487.5
626.872,9056.1
627.037,12585.2
627.201,13883.2
627.365,13463.0
627.529,11549.0
627.693,10023.2
627.858,9349.9
628.022,9231.2
628.186,10281.8
628.35,12707.0
628.514,15236.5
628.678,13277.3
628.843,9845.9
629.007,8375.3
629.171,8001.0
629.335,7693.3
629.499,7046.3
629.663,6518.9
629.827,6069.8
629.991,5755.8
630.155,5696.6
630.319,5528.5
630.483,5441.45
630.647,5107.15
630.812,4571.35
630.976,4072.45
631.14,3583.3
631.304,3229.55
631.468,3079.15
631.632,2973.6
631.796,2912.25
631.959,2840.35
632.123,2793.1
632.287,2769.5
632.451,2721.1
632.615,2732.15
632.779,2710.85
632.943,2720.45
633.107,2672.15
633.271,2680.25
633.435,2679.25
633.599,2641.05
633.763,2647.65
633.926,2624.05
634.09,2607.55
634.254,2595.8
634.418,2583.6
634.582,2587.3
634.746,2595.4
634.909,2559.3
635.073,2566.6
635.237,2559.0
635.401,2557.4
635.564,2548.9
635.728,2546.3
635.892,2536.45
636.056,2544.85
636.219,2545.7
636.383,2531.25
636.547,2542.75
636.711,2543.7
636.874,2520.95
637.038,2523.45
637.202,2512.85
637.365,2488.65
637.529,2476.2
637.693,2458.05
637.856,2464.3
638.02,2485.1
638.184,2477.7
638.347,2468.65
638.511,2464.55
638.674,2473.1
638.838,2472.3
639.002,2452.65
639.165,2494.7
639.329,2477.1
639.492,2469.55
639.656,2470.5
639.819,2469.35
639.983,2460.45
640.146,2455.25
640.31,2469.35
640.473,2448.7
640.637,2460.4
640.8,2474.75
640.964,2469.45
641.127,2461.9
641.291,2458.55
641.454,2461.75
641.618,2456.4
641.781,2457.2
641.944,2458.6
642.108,2442.3
642.271,2472.55
642.435,2466.85
642.598,2478.5
642.761,2456.0
642.925,2466.8
643.088,2454.45
643.251,2453.1
643.415,2445.15
643.578,2454.15
643.741,2460.85
643.905,2468.8
644.068,2470.0
644.231,2466.65
644.394,2463.8
644.558,2475.1
644.721,2469.5
644.884,2469.3
645.047,2467.05
645.211,2478.4
645.374,2481.6
645.537,2464.8
645.7,2479.1
645.863,2478.6
646.027,2481.25
646.19,2462.3
646.353,2466.0
646.516,2477.5
646.679,2467.5
646.842,2467.95
647.005,2475.2
647.169,2457.6
647.332,2462.0
647.495,2474.7
647.658,2477.8
647.821,2476.35
647.984,2461.1
648.147,2454.85
648.31,2480.15
648.473,2477.1
648.636,2476.8
648.799,2479.5
648.962,2475.15
649.125,2469.85
649.288,2480.9
649.451,2454.5
649.614,2464.1
649.777,2480.5
649.94,2475.05
650.103,2465.75
650.266,2455.55
650.429,2471.95
650.592,2464.65
650.755,2478.25
650.918,2475.4
651.08,2459.3
651.243,2462.45
651.406,2487.85
651.569,2462.0
651.732,2462.9
651.895,2451.2
652.058,2463.25
652.22,2465.4
652.383,2434.8
652.546,2442.85
652.709,2445.75
652.872,2454.05
653.034,2440.5
653.197,2441.0
653.36,2440.3
653.523,2458.7
653.685,2431.25
653.848,2443.85
654.011,2442.95
654.173,2419.8
654.336,2439.75
654.499,2436.85
654.662,2417.35
654.824,2424.5
654.987,2421.45
655.149,2414.85
655.312,2398.2
655.475,2426.05
655.637,2434.3
655.8,2411.3
655.963,2404.2
656.125,2408.7
656.288,2406.05
656.45,2388.6
656.613,2394.7
656.775,2391.95
656.938,2388.3
657.1,2379.15
657.263,2386.95
657.425,2377.55
657.588,2354.85
657.75,2367.05
657.913,2369.9
658.075,2371.7
658.238,2325.1
658.4,2342.25
658.563,2344.7
658.725,2327.3
658.888,2326.6
659.05,2330.85
659.212,2320.9
659.375,2312.95
659.537,2322.3
659.7,2314.0
659.862,2314.05
660.024,2322.35
660.187,2315.25
660.349,2296.3
660.511,2304.85
660.674,2276.95
660.836,2280.7
660.998,2275.15
661.079,2261.25