File: spectra/VLFR_06-PET_bio_Raman_24a3b533.csv
nm,Intensity
528.637,1838.8
528.806,1840.1
528.974,1838.6
529.143,1839.9
529.311,1839.6
529.48,1840.4
529.648,1839.4
529.816,1840.0
529.985,1840.0
530.153,1840.4
530.322,1841.4
530.49,1840.1
530.659,1839.5
530.827,1840.4
530.995,1843.1
531.164,1844.4
531.332,1846.5
531.5,1856.0
531.669,1925.2
531.837,2967.9
532.006,5454.5
532.174,4201.9
532.342,2071.8
532.511,1853.8
532.679,1849.7
532.847,1851.2
533.016,1855.3
533.184,1873.2
533.352,1925.8
533.521,2491.2
533.689,5592.0
533.857,10787.9
534.025,12788.2
534.194,12633.8
534.362,11290.4
534.53,10383.1
534.699,9924.2
534.867,8888.1
535.035,7940.6
535.203,7212.4
535.372,6434.5
535.54,5720.8
535.708,5081.4
535.876,4564.6
536.045,4159.0
536.213,3850.3
536.381,3607.2
536.549,3521.3
536.717,3389.2
536.886,3313.1
537.054,3233.9
537.222,3174.7
537.39,3092.4
537.558,3082.8
537.726,3049.6
537.895,3052.1
538.063,3066.8
538.231,3107.1
538.399,3071.5
538.567,3058.0
538.735,3088.7
538.903,3032.1
539.072,3073.0
539.24,3087.5
539.408,3188.7
539.576,3330.5
539.744,3377.6
539.912,3362.9
540.08,3245.0
540.248,3109.0
540.416,2928.9
540.584,2875.3
540.752,2802.7
540.92,2764.1
541.088,2724.4
541.256,2652.0
541.425,2663.7
541.593,2652.1
541.761,2679.0
541.929,2660.5
542.097,2649.7
542.265,2662.9
542.433,2656.1
542.601,2657.4
542.769,2663.3
542.937,2644.7
543.104,2644.1
543.272,2633.4
543.44,2637.8
543.608,2662.8
543.776,2740.8
543.944,2722.6
544.112,2715.4
544.28,2674.6
544.448,2649.4
544.616,2676.5
544.784,2686.0
544.952,2691.0
545.12,2681.4
545.288,2688.2
545.455,2703.9
545.623,2672.8
545.791,2704.6
545.959,2694.5
546.127,2703.7
546.295,2702.3
546.463,2745.6
546.63,2695.3
546.798,2753.1
546.966,2765.9
547.134,2764.3
547.302,2775.1
547.47,2749.7
547.637,2766.9
547.805,2760.1
547.973,2779.4
548.141,2783.2
548.308,2781.7
548.476,2807.2
548.644,2814.1
548.812,2786.6
548.98,2778.8
549.147,2773.9
549.315,2789.2
549.483,2789.5
549.65,2778.8
549.818,2770.2
549.986,2837.8
550.154,2861.2
550.321,3087.8
550.489,4005.7
550.657,4784.5
550.824,3728.8
550.992,2996.2
551.16,2925.7
551.327,2908.7
551.495,2923.7
551.663,2893.3
551.83,2884.8
551.998,2969.9
552.166,2981.2
552.333,3001.1
552.501,3053.6
552.668,3425.1
552.836,3703.0
553.004,3428.0
553.171,3087.1
553.339,2994.5
553.506,3011.1
553.674,2988.0
553.842,2996.2
554.009,3019.2
554.177,2997.8
554.344,3072.4
554.512,3067.9
554.679,3042.9
554.847,3078.7
555.014,3205.1
555.182,3261.5
555.349,3460.0
555.517,3825.3
555.684,4000.2
555.852,3895.0
556.019,3879.3
556.187,3936.2
556.354,4053.8
556.522,4101.3
556.689,4084.5
556.857,4098.2
557.024,4376.5
557.192,4935.3
557.359,5872.4
557.526,6160.6
557.694,5768.7
557.861,4781.9
558.029,4399.7
558.196,4368.6
558.363,4369.1
558.531,4301.9
558.698,4102.8
558.866,3996.5
559.033,3751.4
559.2,3519.6
559.368,3426.5
559.535,3366.4
559.702,3389.2
559.87,3371.5
560.037,3320.3
560.204,3359.2
560.372,3358.5
560.539,3337.4
560.706,3371.3
560.873,3402.9
561.041,3481.7
561.208,3442.4
561.375,3490.0
561.543,3505.2
561.71,3588.8
561.877,3622.3
562.044,3744.2
562.211,3818.9
562.379,3679.2
562.546,3812.6
562.713,3891.5
562.88,3930.5
563.048,3947.4
563.215,3868.8
563.382,3878.8
563.549,3791.1
563.716,3718.5
563.883,3680.4
564.051,3656.7
564.218,3734.6
564.385,3834.4
564.552,3933.4
564.719,4101.2
564.886,4374.4
565.053,4701.1
565.221,4908.3
565.388,5194.2
565.555,5383.7
565.722,5524.6
565.889,5591.8
566.056,5185.7
566.223,4700.8
566.39,4343.6
566.557,4127.6
566.724,3936.3
566.891,3874.1
567.058,3907.9
567.225,3985.7
567.392,4334.1
567.559,4776.8
567.726,4928.2
567.893,4512.7
568.06,4147.9
568.227,4018.1
568.394,3968.3
568.561,3917.8
568.728,3900.0
568.895,3889.5
569.062,3923.4
569.229,3941.1
569.396,4076.8
569.563,4135.2
569.73,4322.4
569.897,4377.7
570.064,4529.6
570.231,4853.4
570.398,5271.3
570.564,5755.7
570.731,6335.8
570.898,6986.8
571.065,7571.3
571.232,8373.1
571.399,8175.5
571.566,7336.2
571.732,6498.0
571.899,6095.3
572.066,5684.4
572.233,5081.8
572.4,4790.8
572.566,4461.4
572.733,4425.1
572.9,4279.2
573.067,4233.8
573.234,4272.0
573.4,4227.7
573.567,4322.7
573.734,4382.7
573.901,4518.0
574.067,4632.0
574.234,4493.0
574.401,4425.5
574.568,4369.4
574.734,4379.1
574.901,4420.7
575.068,4727.2
575.234,4921.1
575.401,4960.4
575.568,4645.1
575.734,4439.1
575.901,4592.0
576.068,4633.6
576.234,4864.2
576.401,5017.8
576.568,5026.7
576.734,5043.4
576.901,4880.8
577.067,4734.4
577.234,4522.8
577.401,4524.8
577.567,4433.4
577.734,4387.8
577.9,4351.8
578.067,4312.1
578.233,4383.8
578.4,4488.2
578.567,4447.9
578.733,4405.9
578.9,4406.3
579.066,4409.2
579.233,4392.6
579.399,4455.2
579.566,4456.5
579.732,4505.0
579.899,4537.2
580.065,4528.8
580.231,4518.6
580.398,4643.3
580.564,4737.1
580.731,4769.6
580.897,4903.4
581.064,4937.1
581.23,5042.9
581.397,5313.5
581.563,6233.0
581.729,8337.6
581.896,12766.5
582.062,18429.3
582.228,17900.6
582.395,10502.0
582.561,6437.2
582.728,5253.2
582.894,5042.6
583.06,4925.6
583.227,4826.2
583.393,4704.8
583.559,4803.6
583.726,4781.8
583.892,4762.2
584.058,4809.6
584.224,4833.1
584.391,4934.8
584.557,4989.2
584.723,5009.8
584.889,5207.8
585.056,5373.0
585.222,5977.4
585.388,7282.2
585.554,9659.4
585.721,11749.4
585.887,12967.8
586.053,13279.2
586.219,11381.0
586.385,9786.5
586.552,7851.7
586.718,6511.9
586.884,5567.6
587.05,5385.0
587.216,5064.3
587.382,5007.3
587.549,4924.4
587.715,4962.2
587.881,4926.0
588.047,4931.4
588.213,4851.4
588.379,4932.1
588.545,4974.7
588.711,4879.2
588.877,4932.8
589.043,4894.9
589.209,4884.7
589.375,4792.9
589.542,4850.1
589.708,4873.5
589.874,4779.5
590.04,4872.4
590.206,4820.9
590.372,4843.1
590.538,4912.7
590.704,4815.6
590.87,4783.4
591.036,4838.0
591.201,4909.5
591.367,4842.3
591.533,4898.8
591.699,4860.9
591.865,4870.1
592.031,4878.7
592.197,4914.5
592.363,4909.9
592.529,4911.6
592.695,4920.7
592.861,4862.9
593.027,4962.9
593.192,4897.5
593.358,4910.1
593.524,4856.3
593.69,4932.9
593.856,4967.5
594.022,4951.5
594.187,4877.1
594.353,4911.4
594.519,5021.4
594.685,4900.8
594.851,4931.2
595.016,5060.1
595.182,5003.1
595.348,4979.6
595.514,4928.0
595.679,5033.7
595.845,5043.8
596.011,5028.4
596.177,4992.9
596.342,5032.4
596.508,5075.2
596.674,4993.0
596.84,5024.1
597.005,5002.9
597.171,5036.6
597.337,4988.2
597.502,4992.4
597.668,5039.9
597.833,5028.9
597.999,5126.3
598.165,5025.3
598.33,5065.2
598.496,5018.9
598.662,5005.7
598.827,5099.9
598.993,5121.2
599.158,5040.9
599.324,5039.4
599.489,5096.6
599.655,5116.5
599.821,5139.5
599.986,5057.8
600.152,5095.2
600.317,5166.1
600.483,5051.5
600.648,5130.3
600.814,5148.9
600.979,5029.3
601.145,5128.5
601.31,5114.4
601.476,5167.4
601.641,5005.1
601.807,5154.9
601.972,5088.4
602.137,5082.0
602.303,5153.7
602.468,5157.6
602.634,5138.3
602.799,5189.9
602.964,5306.7
603.13,5150.5
603.295,5059.6
603.461,5134.4
603.626,5150.7
603.791,5167.4
603.957,5235.7
604.122,5068.1
604.287,5171.5
604.453,5204.0
604.618,5129.9
604.783,5122.4
604.949,5115.0
605.114,5101.9
605.279,5185.7
605.444,5202.6
605.61,5188.1
605.775,5186.4
605.94,5152.9
606.105,5212.3
606.271,5265.3
606.436,5183.5
606.601,5178.7
606.766,5168.3
606.931,5293.1
607.097,5119.8
607.262,5178.5
607.427,5228.2
607.592,5239.0
607.757,5280.0
607.922,5205.2
608.088,5173.5
608.253,5226.2
608.418,5269.0
608.583,5176.2
608.748,5188.8
608.913,5230.8
609.078,5285.7
609.243,5195.4
609.408,5214.6
609.573,5211.1
609.738,5315.7
609.903,5186.5
610.068,5295.7
610.233,5235.3
610.399,5279.4
610.564,5285.6
610.729,5223.6
610.894,5208.9
611.058,5347.3
611.223,5212.6
611.388,5246.5
611.553,5242.1
611.718,5379.7
611.883,5334.1
612.048,5261.2
612.213,5185.5
612.378,5304.2
612.543,5371.4
612.708,5255.9
612.873,5293.0
613.038,5273.0
613.202,5242.8
613.367,5276.2
613.532,5266.3
613.697,5324.4
613.862,5356.6
614.027,5417.9
614.192,5362.2
614.356,5270.6
614.521,5387.8
614.686,5388.1
614.851,5383.8
615.016,5426.0
615.18,5287.9
615.345,5325.5
615.51,5394.2
615.675,5357.9
615.839,5429.6
616.004,5388.2
616.169,5445.5
616.333,5430.6
616.498,5394.1
616.663,5444.8
616.827,5447.5
616.992,5353.8
617.157,5464.9
617.321,5462.5
617.486,5670.0
617.651,5535.8
617.815,5518.7
617.98,5610.0
618.145,5554.0
618.309,5550.4
618.474,5641.4
618.638,5591.2
618.803,5547.2
618.968,5552.9
619.132,5559.3
619.297,5602.0
619.461,5522.8
619.626,5495.5
619.79,5505.3
619.955,5386.9
620.119,5509.0
620.284,5554.0
620.448,5408.8
620.613,5443.4
620.777,5606.8
620.942,5512.9
621.106,5457.1
621.271,5506.5
621.435,5514.8
621.599,5548.3
621.764,5558.9
621.928,5488.9
622.093,5605.3
622.257,5610.9
622.421,5521.3
622.586,5508.2
622.75,5613.6
622.915,5566.3
623.079,5606.3
623.243,5724.5
623.408,5711.7
623.572,5459.2
623.736,5648.9
623.9,5678.3
624.065,5648.6
624.229,5761.1
624.393,5735.9
624.558,5647.4
624.722,5762.5
624.886,5833.2
625.05,5798.8
625.215,5790.9
625.379,5770.6
625.543,5754.9
625.707,5648.9
625.871,5859.7
626.036,5629.1
626.2,5681.5
626.364,5676.0
626.528,5818.1
626.692,5709.2
626.856,5761.1
627.02,5689.2
627.185,5854.1
627.349,5854.0
627.513,5863.2
627.677,5838.0
627.841,5791.4
628.005,5972.9
628.169,6070.7
628.333,6065.6
628.497,6134.6
628.661,6252.5
628.825,6301.2
628.989,6393.8
629.153,6451.1
629.317,6343.8
629.481,6404.1
629.645,6267.3
629.809,6236.1
629.973,6274.6
630.137,6303.4
630.301,6180.6
630.465,6356.1
630.629,6368.0
630.793,6669.8
630.957,6913.1
631.121,7564.7
631.285,8020.6
631.449,8337.4
631.612,8738.6
631.776,8709.9
631.94,8719.5
632.104,8410.3
632.268,7818.8
632.432,7608.0
632.596,7459.3
632.759,7296.6
632.923,7323.3
633.087,7326.3
633.251,7278.9
633.414,7258.3
633.578,7088.8
633.742,7063.7
633.906,6924.7
634.069,6845.5
634.233,6659.3
634.397,6596.1
634.561,6507.7
634.724,6605.6
634.888,6530.0
635.052,6591.1
635.215,6740.4
635.379,6745.3
635.543,6961.0
635.706,7271.7
635.87,7603.5
636.034,8123.2
636.197,8651.4
636.361,9005.8
636.524,9231.1
636.688,9245.3
636.852,8369.8
637.015,7732.1
637.179,7270.9
637.342,6975.1
637.506,7048.7
637.669,6876.9
637.833,6723.5
637.996,6564.1
638.16,6714.5
638.323,6608.3
638.487,6515.3
638.65,6475.3
638.814,6465.1
638.977,6653.3
639.141,6707.2
639.304,6468.9
639.468,6548.3
639.631,6623.6
639.794,6568.3
639.958,6468.3
640.121,6497.8
640.285,6549.3
640.448,6427.0
640.611,6363.2
640.775,6636.0
640.938,6366.7
641.101,6633.0
641.265,6481.8
641.428,6586.5
641.591,6688.3
641.755,6571.0
641.918,6508.3
642.081,6831.4
642.244,6837.3
642.408,6721.9
642.571,6760.6
642.734,6591.9
642.897,6514.3
643.061,6668.4
643.224,6497.0
643.387,6459.9
643.55,6607.2
643.713,6720.2
643.876,6713.3
644.04,6499.7
644.203,6569.9
644.366,6614.8
644.529,6544.2
644.692,6550.3
644.855,6539.0
645.018,6674.1
645.181,6695.4
645.345,6622.4
645.508,6505.3
645.671,6627.2
645.834,6725.9
645.997,6567.9
646.16,6430.5
646.323,6655.6
646.486,6546.9
646.649,6541.9
646.812,6496.9
646.975,6563.6
647.138,6673.2
647.301,6823.1
647.464,6624.5
647.627,6671.1
647.79,6644.2
647.953,6605.0
648.115,6534.7
648.278,6478.4
648.441,6506.9
648.604,6451.8
648.767,6646.3
648.93,6437.3
649.093,6377.1
649.256,6400.0
649.418,6458.6
649.581,6653.2
649.744,6524.3
649.907,6434.1
650.07,6452.3
650.233,6541.9
650.395,6490.8
650.558,6480.7
650.721,6500.0
650.884,6558.7
651.046,6513.2
651.209,6378.9
651.372,6277.1
651.534,6501.8
651.697,6481.4
651.86,6411.6
652.023,6482.1
652.185,6275.9
652.348,6494.1
652.511,6326.5
652.673,6247.3
652.836,6443.5
652.998,6211.8
653.161,6422.1
653.324,6363.3
653.486,6257.3
653.649,6262.8
653.811,6126.8
653.974,6225.0
654.137,6353.2
654.299,6006.1
654.462,6126.7
654.624,6363.3
654.787,6299.6
654.949,6193.1
655.112,6041.8
655.274,6180.5
655.437,6102.4
655.599,6110.8
655.761,6092.4
655.924,6064.5
656.086,6080.6
656.249,6052.0
656.411,6031.6
656.574,6023.9
656.736,6099.7
656.898,6091.4
657.061,5968.0
657.223,5995.7
657.385,5951.1
657.548,5791.0
657.71,6028.2
657.872,6006.2
658.035,5767.1
658.197,5837.3
658.359,5965.4
658.522,5791.1
658.684,5781.6
658.846,5901.6
659.008,5713.6
659.171,5819.0
659.333,5737.8
659.495,5619.3
659.657,5628.8
659.82,5630.1
659.982,5692.6
660.144,5730.5
660.306,5851.0
660.468,5627.5
660.63,5665.7
660.793,5807.7
660.955,5689.8
661.036,5611.7