File: spectra/VLFR_06-PET_bio_Raman_abd572ea.csv
nm,Intensity
528.626,1867.0
528.795,1864.9
528.963,1865.0
529.132,1865.6
529.3,1866.3
529.469,1865.3
529.637,1866.6
529.806,1866.8
529.974,1866.1
530.143,1865.7
530.311,1866.1
530.48,1868.0
530.648,1868.2
530.816,1867.2
530.985,1868.8
531.153,1868.5
531.322,1870.5
531.49,1875.2
531.658,1899.4
531.827,2292.7
531.995,4382.3
532.164,4122.5
532.332,2299.9
532.5,1875.9
532.669,1874.1
532.837,1870.0
533.006,1875.8
533.174,1882.4
533.342,1904.7
533.511,2113.7
533.679,3657.9
533.847,6943.4
534.016,8739.6
534.184,9225.3
534.352,8198.4
534.521,7523.3
534.689,6955.2
534.857,6443.2
535.025,5796.7
535.194,5296.5
535.362,4926.2
535.53,4435.0
535.699,4042.9
535.867,3681.3
536.035,3399.3
536.203,3252.4
536.372,3122.7
536.54,2997.3
536.708,2986.6
536.876,2870.4
537.044,2840.6
537.213,2813.5
537.381,2790.6
537.549,2774.3
537.717,2756.2
537.885,2739.0
538.054,2758.3
538.222,2793.0
538.39,2778.3
538.558,2804.3
538.726,2788.1
538.894,2783.4
539.063,2766.0
539.231,2808.2
539.399,2819.6
539.567,2938.3
539.735,2944.8
539.903,2971.7
540.071,2913.5
540.239,2820.3
540.408,2749.1
540.576,2647.4
540.744,2619.5
540.912,2581.1
541.08,2544.4
541.248,2525.7
541.416,2500.9
541.584,2486.5
541.752,2493.9
541.92,2501.6
542.088,2495.3
542.256,2517.7
542.424,2504.9
542.592,2506.3
542.76,2509.1
542.928,2515.1
543.096,2489.7
543.264,2507.4
543.432,2482.3
543.6,2473.1
543.768,2526.2
543.936,2564.9
544.104,2543.9
544.272,2533.5
544.44,2512.0
544.608,2531.4
544.776,2520.0
544.944,2534.1
545.112,2524.6
545.28,2554.8
545.448,2536.0
545.616,2528.6
545.784,2560.3
545.951,2550.0
546.119,2542.0
546.287,2568.8
546.455,2526.6
546.623,2568.4
546.791,2579.3
546.959,2581.8
547.127,2597.5
547.294,2562.2
547.462,2617.7
547.63,2593.9
547.798,2609.0
547.966,2596.6
548.134,2596.3
548.301,2614.1
548.469,2593.8
548.637,2599.5
548.805,2624.8
548.972,2622.6
549.14,2593.6
549.308,2626.3
549.476,2634.9
549.644,2608.5
549.811,2626.2
549.979,2644.0
550.147,2663.5
550.315,2784.5
550.482,3264.3
550.65,3907.1
550.818,3409.4
550.985,2794.0
551.153,2711.2
551.321,2693.5
551.488,2698.0
551.656,2721.8
551.824,2720.0
551.991,2737.9
552.159,2728.5
552.327,2725.7
552.494,2810.2
552.662,3066.9
552.83,3188.7
552.997,3059.7
553.165,2835.6
553.333,2788.8
553.5,2766.9
553.668,2780.7
553.835,2798.6
554.003,2761.6
554.171,2782.2
554.338,2765.7
554.506,2793.9
554.673,2790.4
554.841,2801.9
555.008,2834.5
555.176,2904.7
555.343,3024.6
555.511,3245.2
555.679,3403.6
555.846,3306.4
556.014,3331.5
556.181,3305.3
556.349,3402.1
556.516,3420.9
556.684,3490.6
556.851,3560.0
557.018,3629.2
557.186,3880.7
557.353,4432.7
557.521,4764.5
557.688,4609.5
557.856,4057.3
558.023,3640.9
558.191,3613.7
558.358,3646.3
558.525,3593.9
558.693,3483.7
558.86,3372.0
559.028,3208.9
559.195,3127.0
559.362,3015.6
559.53,2993.1
559.697,2981.7
559.864,2994.8
560.032,2973.1
560.199,2928.4
560.366,2957.3
560.534,2989.1
560.701,2996.6
560.868,2990.1
561.036,3028.2
561.203,3050.8
561.37,3075.4
561.538,3066.3
561.705,3090.0
561.872,3081.1
562.039,3202.9
562.207,3220.8
562.374,3164.0
562.541,3227.5
562.708,3252.7
562.876,3305.4
563.043,3326.4
563.21,3319.4
563.377,3307.8
563.545,3277.9
563.712,3199.3
563.879,3179.8
564.046,3162.0
564.213,3202.9
564.38,3240.9
564.548,3273.6
564.715,3434.6
564.882,3520.6
565.049,3688.0
565.216,3926.9
565.383,4087.4
565.551,4245.9
565.718,4340.9
565.885,4382.7
566.052,4235.3
566.219,3896.0
566.386,3693.9
566.553,3495.8
566.72,3359.7
566.887,3321.3
567.054,3322.4
567.221,3324.3
567.388,3504.3
567.555,3865.5
567.722,3960.1
567.889,3750.0
568.057,3548.6
568.224,3390.1
568.391,3390.3
568.558,3339.7
568.725,3345.8
568.892,3294.0
569.058,3363.7
569.225,3382.5
569.392,3442.8
569.559,3504.4
569.726,3557.6
569.893,3648.7
570.06,3759.1
570.227,3874.4
570.394,4133.2
570.561,4530.4
570.728,4938.0
570.895,5302.7
571.062,5762.0
571.229,6158.2
571.395,6337.4
571.562,5774.3
571.729,5250.8
571.896,4910.4
572.063,4677.7
572.23,4206.8
572.397,4006.2
572.563,3827.2
572.73,3711.1
572.897,3655.9
573.064,3622.6
573.231,3590.7
573.397,3650.4
573.564,3631.3
573.731,3660.5
573.898,3800.5
574.064,3839.6
574.231,3838.9
574.398,3760.0
574.565,3670.0
574.731,3726.3
574.898,3761.0
575.065,3874.3
575.232,4013.0
575.398,4154.7
575.565,3964.5
575.732,3763.3
575.898,3789.4
576.065,3835.3
576.232,4027.3
576.398,4004.8
576.565,4181.8
576.732,4097.3
576.898,4121.8
577.065,4046.3
577.232,3826.6
577.398,3827.3
577.565,3738.2
577.731,3721.2
577.898,3746.6
578.065,3705.3
578.231,3691.1
578.398,3753.2
578.564,3760.6
578.731,3716.1
578.897,3741.3
579.064,3754.9
579.23,3741.2
579.397,3763.6
579.563,3763.2
579.73,3822.0
579.896,3809.7
580.063,3798.9
580.229,3850.7
580.396,3860.3
580.562,3943.2
580.729,3953.9
580.895,4028.2
581.062,4070.5
581.228,4152.0
581.395,4320.5
581.561,4750.5
581.728,5957.8
581.894,8853.4
582.06,12550.2
582.227,13132.9
582.393,8841.1
582.56,5346.9
582.726,4382.4
582.892,4181.2
583.059,4046.9
583.225,4040.5
583.391,3979.2
583.558,3965.4
583.724,3917.1
583.89,3986.9
584.057,3985.8
584.223,4050.3
584.389,4091.4
584.556,4088.6
584.722,4148.3
584.888,4193.1
585.054,4267.7
585.221,4702.8
585.387,5425.1
585.553,6950.6
585.719,8243.8
585.886,9465.8
586.052,9222.7
586.218,8702.3
586.384,7494.0
586.55,6154.9
586.717,5132.9
586.883,4613.1
587.049,4419.9
587.215,4212.7
587.381,4026.9
587.548,4085.1
587.714,4092.9
587.88,4040.8
588.046,4053.4
588.212,4000.6
588.378,4043.4
588.544,3992.8
588.71,4014.5
588.876,4059.6
589.043,4007.3
589.209,3993.2
589.375,3967.9
589.541,3979.0
589.707,3977.8
589.873,4005.5
590.039,3959.5
590.205,3993.1
590.371,3968.9
590.537,4023.6
590.703,3973.4
590.869,4007.6
591.035,3962.3
591.201,3931.6
591.367,4050.3
591.533,4009.1
591.699,3994.2
591.865,3953.0
592.031,4027.3
592.197,4028.9
592.363,4015.8
592.529,4034.5
592.694,3947.1
592.86,4003.7
593.026,4047.1
593.192,3965.4
593.358,3971.8
593.524,4045.8
593.69,3963.4
593.856,4016.1
594.021,4042.2
594.187,4014.6
594.353,4001.0
594.519,4003.0
594.685,4002.5
594.851,4056.3
595.016,4026.8
595.182,4022.3
595.348,4119.4
595.514,4021.4
595.68,4024.6
595.845,4010.9
596.011,4065.7
596.177,4052.9
596.342,4059.4
596.508,4049.6
596.674,4077.3
596.84,4108.6
597.005,4126.9
597.171,4005.3
597.337,3998.7
597.502,4086.4
597.668,4118.6
597.834,4083.2
597.999,4097.2
598.165,4086.1
598.331,4079.1
598.496,4076.8
598.662,4102.9
598.828,4084.4
598.993,4106.5
599.159,4096.9
599.324,4131.3
599.49,4120.5
599.656,4110.9
599.821,4104.5
599.987,4129.7
600.152,4147.2
600.318,4157.3
600.483,4053.4
600.649,4136.2
600.814,4115.1
600.98,4150.7
601.145,4152.1
601.311,4126.5
601.476,4211.2
601.642,4138.5
601.807,4085.9
601.973,4165.4
602.138,4153.9
602.304,4110.5
602.469,4145.5
602.635,4234.7
602.8,4105.2
602.965,4137.7
603.131,4191.4
603.296,4127.9
603.462,4162.7
603.627,4149.5
603.792,4213.8
603.958,4151.9
604.123,4107.4
604.288,4249.2
604.454,4164.3
604.619,4133.8
604.784,4199.1
604.95,4156.4
605.115,4209.2
605.28,4103.5
605.446,4227.0
605.611,4167.1
605.776,4178.6
605.941,4190.6
606.107,4169.5
606.272,4207.2
606.437,4209.6
606.602,4212.6
606.767,4218.3
606.933,4167.1
607.098,4194.4
607.263,4167.0
607.428,4182.6
607.593,4247.8
607.759,4218.2
607.924,4193.9
608.089,4234.3
608.254,4247.2
608.419,4297.8
608.584,4161.0
608.749,4246.0
608.915,4244.8
609.08,4193.1
609.245,4236.4
609.41,4259.2
609.575,4212.7
609.74,4317.6
609.905,4192.7
610.07,4204.7
610.235,4233.2
610.4,4234.4
610.565,4359.6
610.73,4263.3
610.895,4280.4
611.06,4317.2
611.225,4268.0
611.39,4245.2
611.555,4344.9
611.72,4250.2
611.885,4213.8
612.05,4250.5
612.215,4359.8
612.38,4287.3
612.545,4192.3
612.71,4276.8
612.875,4354.7
613.04,4291.6
613.204,4286.5
613.369,4256.3
613.534,4276.2
613.699,4329.0
613.864,4332.4
614.029,4306.2
614.194,4364.5
614.358,4315.1
614.523,4331.4
614.688,4376.7
614.853,4446.1
615.018,4400.1
615.182,4309.0
615.347,4334.9
615.512,4365.1
615.677,4347.4
615.841,4390.3
616.006,4406.7
616.171,4367.4
616.336,4395.3
616.5,4361.8
616.665,4390.7
616.83,4389.9
616.994,4412.2
617.159,4422.0
617.324,4461.4
617.489,4500.8
617.653,4483.2
617.818,4514.3
617.982,4531.6
618.147,4465.1
618.312,4543.0
618.476,4451.6
618.641,4443.0
618.805,4532.2
618.97,4471.9
619.135,4511.9
619.299,4566.4
619.464,4501.5
619.628,4431.5
619.793,4475.4
619.957,4383.4
620.122,4481.2
620.286,4459.9
620.451,4536.5
620.615,4486.4
620.78,4425.4
620.944,4470.0
621.109,4499.2
621.273,4439.1
621.438,4521.3
621.602,4535.0
621.767,4526.2
621.931,4408.0
622.095,4526.4
622.26,4556.7
622.424,4524.4
622.589,4589.0
622.753,4484.3
622.917,4581.4
623.082,4484.8
623.246,4599.9
623.41,4586.7
623.575,4543.5
623.739,4638.0
623.903,4580.9
624.068,4595.3
624.232,4614.6
624.396,4665.1
624.561,4736.8
624.725,4596.2
624.889,4697.7
625.053,4685.5
625.218,4706.2
625.382,4629.1
625.546,4623.3
625.71,4769.7
625.875,4585.8
626.039,4551.2
626.203,4730.3
626.367,4695.6
626.531,4566.3
626.695,4623.5
626.86,4633.0
627.024,4665.4
627.188,4713.4
627.352,4631.8
627.516,4696.7
627.68,4759.3
627.844,4813.3
628.008,4752.3
628.172,4811.9
628.337,4881.4
628.501,4911.1
628.665,4998.2
628.829,5114.2
628.993,5138.3
629.157,5101.2
629.321,5043.7
629.485,5119.7
629.649,5194.7
629.813,4997.6
629.977,5050.2
630.141,4993.9
630.305,5067.1
630.469,5060.4
630.633,5020.6
630.797,5281.0
630.96,5499.3
631.124,5865.1
631.288,6319.5
631.452,6396.8
631.616,6761.9
631.78,6756.4
631.944,6792.4
632.108,6465.0
632.272,6289.8
632.435,6033.3
632.599,5943.7
632.763,5883.9
632.927,5661.2
633.091,5762.2
633.254,5744.9
633.418,5692.0
633.582,5649.9
633.746,5488.1
633.91,5422.4
634.073,5342.8
634.237,5289.6
634.401,5199.4
634.564,5218.7
634.728,5138.8
634.892,5155.1
635.056,5270.0
635.219,5271.2
635.383,5356.0
635.547,5363.6
635.71,5560.3
635.874,5887.6
636.038,6140.0
636.201,6399.4
636.365,6971.8
636.528,7034.8
636.692,7066.2
636.856,6704.5
637.019,5978.6
637.183,5699.3
637.346,5615.2
637.51,5505.9
637.673,5332.1
637.837,5261.5
638.0,5241.9
638.164,5112.5
638.327,5297.7
638.491,5306.7
638.654,5103.1
638.818,5262.9
638.981,5060.7
639.145,5153.0
639.308,5170.8
639.472,5108.7
639.635,5089.4
639.799,5190.5
639.962,5089.3
640.125,5078.3
640.289,5066.1
640.452,5132.8
640.616,5017.3
640.779,5140.4
640.942,5012.5
641.106,5234.8
641.269,5066.5
641.432,5119.1
641.596,5247.8
641.759,5122.6
641.922,4930.8
642.085,5247.1
642.249,5307.2
642.412,5283.4
642.575,5205.9
642.738,5248.4
642.902,5197.0
643.065,5086.1
643.228,5073.4
643.391,5121.2
643.555,5055.0
643.718,5131.7
643.881,5124.8
644.044,5236.0
644.207,5189.8
644.37,5075.3
644.534,5156.2
644.697,5093.9
644.86,5099.9
645.023,5121.2
645.186,5263.5
645.349,5088.9
645.512,5222.3
645.675,5104.9
645.838,5121.1
646.001,5150.8
646.164,5192.6
646.327,5135.3
646.49,5055.6
646.653,5076.8
646.816,5203.2
646.979,5206.7
647.142,5120.6
647.305,5041.6
647.468,5228.4
647.631,5182.9
647.794,5065.9
647.957,4962.6
648.12,5038.5
648.283,5208.9
648.446,5083.9
648.609,5159.4
648.772,5062.7
648.935,5011.8
649.098,4962.7
649.26,5026.1
649.423,5025.0
649.586,5061.8
649.749,4929.1
649.912,5076.4
650.075,5091.9
650.237,4999.8
650.4,5022.7
650.563,5027.5
650.726,4977.2
650.888,4963.3
651.051,5022.1
651.214,5128.7
651.377,5021.4
651.539,5023.1
651.702,5046.3
651.865,5041.0
652.027,4955.0
652.19,5045.0
652.353,4872.4
652.515,4849.2
652.678,4944.3
652.841,4915.0
653.003,4947.8
653.166,4855.9
653.329,4872.4
653.491,4864.3
653.654,4949.6
653.816,4909.2
653.979,4849.1
654.142,4726.6
654.304,4771.9
654.467,4849.0
654.629,4739.3
654.792,4779.3
654.954,4794.3
655.117,4804.5
655.279,4760.1
655.442,4795.7
655.604,4764.6
655.767,4783.4
655.929,4751.6
656.091,4882.0
656.254,4710.6
656.416,4783.7
656.579,4669.6
656.741,4781.8
656.904,4785.5
657.066,4722.3
657.228,4700.0
657.391,4748.8
657.553,4718.9
657.715,4595.6
657.878,4788.1
658.04,4651.7
658.202,4525.2
658.365,4549.2
658.527,4608.2
658.689,4507.3
658.851,4549.8
659.014,4596.4
659.176,4627.5
659.338,4504.4
659.5,4440.3
659.663,4573.8
659.825,4405.6
659.987,4408.9
660.149,4357.0
660.311,4511.2
660.474,4560.5
660.636,4494.3
660.798,4463.5
660.96,4414.0
661.041,4441.6