File: spectra/VLFR_08-PLA_nobio_Raman_e21059c6.csv
nm,Intensity
526.532,829.567
526.669,830.567
526.805,830.367
526.942,830.0
527.079,829.8
527.216,829.633
527.352,830.267
527.489,830.6
527.625,829.9
527.762,830.467
527.899,830.5
528.035,829.9
528.172,829.433
528.309,830.367
528.445,831.067
528.582,829.967
528.718,830.5
528.855,830.567
528.992,830.133
529.128,829.433
529.265,830.2
529.401,830.433
529.538,829.867
529.674,829.9
529.811,830.3
529.947,829.933
530.084,830.233
530.22,830.5
530.357,830.3
530.493,829.467
530.63,829.5
530.766,830.4
530.903,830.4
531.039,830.533
531.176,829.9
531.312,830.033
531.449,829.967
531.585,829.667
531.721,830.4
531.858,830.5
531.994,834.333
532.131,854.567
532.267,849.067
532.403,833.5
532.54,829.967
532.676,830.167
532.812,830.033
532.949,830.2
533.085,829.967
533.221,830.667
533.358,830.433
533.494,830.767
533.63,832.9
533.767,855.933
533.903,934.3
534.039,1026.47
534.176,1051.9
534.312,1036.4
534.448,1021.1
534.584,1007.9
534.721,995.4
534.857,989.5
534.993,976.333
535.129,966.933
535.266,964.867
535.402,961.0
535.538,956.067
535.674,950.967
535.81,943.833
535.947,939.567
536.083,935.9
536.219,932.8
536.355,935.333
536.491,939.9
536.627,941.0
536.764,944.367
536.9,937.467
537.036,931.633
537.172,926.2
537.308,920.6
537.444,921.333
537.58,925.4
537.716,924.3
537.852,921.3
537.988,922.6
538.125,921.3
538.261,917.2
538.397,916.167
538.533,912.5
538.669,910.9
538.805,909.233
538.941,908.233
539.077,906.633
539.213,909.133
539.349,907.067
539.485,904.7
539.621,906.133
539.757,901.367
539.893,898.6
540.029,895.3
540.165,900.6
540.301,903.933
540.437,911.367
540.572,916.4
540.708,921.133
540.844,920.2
540.98,921.9
541.116,921.0
541.252,920.633
541.388,916.8
541.524,914.533
541.66,910.4
541.795,906.267
541.931,903.567
542.067,902.067
542.203,903.233
542.339,902.3
542.475,902.267
542.611,902.6
542.746,904.767
542.882,903.133
543.018,906.533
543.154,912.4
543.289,920.733
543.425,931.3
543.561,939.733
543.697,947.8
543.833,947.433
543.968,945.733
544.104,944.9
544.24,932.5
544.375,920.4
544.511,912.667
544.647,904.967
544.783,905.1
544.918,904.4
545.054,900.5
545.19,899.867
545.325,898.4
545.461,897.867
545.597,896.867
545.732,896.233
545.868,895.9
546.004,896.267
546.139,894.667
546.275,896.267
546.41,897.567
546.546,897.6
546.682,898.133
546.817,899.1
546.953,900.367
547.088,899.0
547.224,901.9
547.36,900.3
547.495,900.367
547.631,899.8
547.766,898.433
547.902,899.333
548.037,898.9
548.173,898.9
548.308,898.567
548.444,900.433
548.579,900.367
548.715,901.0
548.85,900.2
548.986,900.367
549.121,902.633
549.257,902.967
549.392,903.3
549.528,903.2
549.663,902.567
549.798,902.967
549.934,905.167
550.069,900.9
550.205,901.667
550.34,902.367
550.475,903.867
550.611,905.433
550.746,906.133
550.882,903.333
551.017,907.1
551.152,904.633
551.288,906.2
551.423,909.067
551.558,908.233
551.694,910.4
551.829,910.8
551.964,911.3
552.1,912.2
552.235,910.967
552.37,914.433
552.505,913.133
552.641,916.0
552.776,916.5
552.911,917.567
553.047,914.967
553.182,915.3
553.317,910.0
553.452,908.233
553.588,907.767
553.723,913.133
553.858,920.233
553.993,924.933
554.128,920.267
554.264,917.633
554.399,916.433
554.534,911.9
554.669,910.333
554.804,911.767
554.939,908.6
555.075,906.767
555.21,905.6
555.345,906.2
555.48,902.6
555.615,904.9
555.75,899.367
555.885,903.567
556.02,901.267
556.155,901.133
556.291,903.633
556.426,902.9
556.561,903.067
556.696,903.167
556.831,904.3
556.966,906.933
557.101,910.9
557.236,910.833
557.371,916.9
557.506,922.667
557.641,936.133
557.776,964.7
557.911,1006.43
558.046,1058.97
558.181,1066.37
558.316,1023.6
558.451,967.533
558.586,937.633
558.721,927.633
558.856,924.0
558.991,920.633
559.126,920.167
559.261,919.6
559.396,918.833
559.531,918.567
559.665,918.267
559.8,917.4
559.935,913.867
560.07,912.733
560.205,912.767
560.34,913.167
560.475,912.167
560.61,910.0
560.745,910.233
560.879,911.167
561.014,907.9
561.149,907.3
561.284,906.567
561.419,903.7
561.553,906.1
561.688,907.533
561.823,908.633
561.958,907.0
562.093,907.567
562.227,907.3
562.362,907.433
562.497,910.3
562.632,913.067
562.767,916.5
562.901,919.833
563.036,924.967
563.171,932.633
563.305,945.867
563.44,959.533
563.575,958.533
563.71,949.067
563.844,940.3
563.979,930.5
564.114,924.9
564.248,918.5
564.383,921.167
564.518,922.4
564.652,925.233
564.787,934.933
564.922,943.467
565.056,948.433
565.191,949.4
565.325,943.467
565.46,941.667
565.595,938.967
565.729,941.567
565.864,950.367
565.999,965.467
566.133,975.933
566.268,975.433
566.402,963.133
566.537,949.633
566.671,934.367
566.806,923.1
566.94,918.533
567.075,916.767
567.21,916.467
567.344,914.933
567.479,915.833
567.613,917.8
567.748,923.8
567.882,930.733
568.017,929.867
568.151,926.333
568.285,924.067
568.42,922.6
568.554,923.733
568.689,922.867
568.823,922.933
568.958,924.567
569.092,924.967
569.227,925.567
569.361,922.7
569.495,919.833
569.63,922.167
569.764,921.633
569.899,920.467
570.033,921.0
570.167,919.567
570.302,919.533
570.436,920.233
570.571,918.367
570.705,920.533
570.839,925.533
570.974,923.9
571.108,924.833
571.242,929.3
571.377,935.9
571.511,951.0
571.645,955.467
571.78,952.233
571.914,947.5
572.048,942.333
572.182,938.167
572.317,936.033
572.451,934.233
572.585,935.467
572.719,934.933
572.854,934.767
572.988,935.0
573.122,936.767
573.256,937.833
573.391,938.7
573.525,939.067
573.659,942.433
573.793,941.333
573.927,938.967
574.062,941.1
574.196,935.167
574.33,941.067
574.464,947.9
574.598,952.833
574.733,947.867
574.867,939.667
575.001,931.7
575.135,926.167
575.269,926.3
575.403,924.667
575.537,925.5
575.671,928.9
575.806,927.433
575.94,928.4
576.074,929.433
576.208,936.967
576.342,951.467
576.476,971.633
576.61,995.6
576.744,1007.67
576.878,1010.63
577.012,1002.37
577.146,987.267
577.28,964.6
577.414,945.067
577.548,935.333
577.682,935.267
577.817,930.933
577.951,927.933
578.085,929.6
578.219,928.667
578.353,925.733
578.486,926.333
578.62,926.067
578.754,928.033
578.888,925.033
579.022,926.633
579.156,923.0
579.29,926.733
579.424,926.0
579.558,925.133
579.692,926.233
579.826,924.0
579.96,926.2
580.094,925.433
580.228,925.467
580.362,924.6
580.496,924.133
580.629,923.7
580.763,924.333
580.897,925.4
581.031,924.767
581.165,923.133
581.299,925.567
581.433,923.8
581.566,926.6
581.7,927.4
581.834,925.933
581.968,927.9
582.102,926.933
582.236,926.567
582.369,927.6
582.503,925.467
582.637,926.333
582.771,926.1
582.905,927.4
583.038,925.633
583.172,929.167
583.306,927.067
583.44,927.533
583.573,927.5
583.707,928.667
583.841,926.533
583.975,928.0
584.108,928.067
584.242,929.0
584.376,930.767
584.509,930.5
584.643,929.133
584.777,928.567
584.911,929.567
585.044,928.7
585.178,928.667
585.312,928.8
585.445,927.9
585.579,931.067
585.713,930.533
585.846,931.667
585.98,930.9
586.113,931.033
586.247,933.9
586.381,938.867
586.514,944.933
586.648,952.9
586.782,967.333
586.915,976.967
587.049,984.233
587.182,988.233
587.316,1002.5
587.45,1011.9
587.583,1012.67
587.717,1003.07
587.85,986.367
587.984,967.633
588.117,950.3
588.251,940.367
588.384,933.3
588.518,934.9
588.651,931.167
588.785,930.9
588.919,930.167
589.052,927.8
589.186,927.1
589.319,928.967
589.453,927.3
589.586,927.067
589.72,927.333
589.853,928.367
589.986,928.633
590.12,927.033
590.253,928.233
590.387,928.7
590.52,927.367
590.654,925.867
590.787,926.0
590.921,925.6
591.054,927.1
591.187,927.867
591.321,924.767
591.454,929.533
591.588,926.5
591.721,927.9
591.854,927.1
591.988,927.033
592.121,928.0
592.255,925.867
592.388,924.933
592.521,926.1
592.655,927.267
592.788,927.267
592.921,925.733
593.055,927.0
593.188,925.967
593.321,924.167
593.455,926.2
593.588,927.033
593.721,927.7
593.855,925.0
593.988,925.3
594.121,923.1
594.255,924.3
594.388,926.067
594.521,924.867
594.654,926.333
594.788,924.3
594.921,925.2
595.054,925.433
595.187,926.8
595.321,924.033
595.454,925.9
595.587,926.3
595.72,926.933
595.854,926.8
595.987,926.367
596.12,927.4
596.253,923.333
596.387,926.3
596.52,924.267
596.653,927.0
596.786,925.3
596.919,927.3
597.052,928.333
597.186,929.033
597.319,927.733
597.452,926.467
597.585,924.933
597.718,926.033
597.851,928.1
597.985,927.933
598.118,926.133
598.251,928.267
598.384,925.9
598.517,927.033
598.65,926.5
598.783,929.167
598.916,927.3
599.049,928.0
599.183,927.2
599.316,929.967
599.449,927.3
599.582,925.4
599.715,928.533
599.848,926.933
599.981,927.933
600.114,928.3
600.247,927.767
600.38,927.133
600.513,927.467
600.646,925.333
600.779,927.267
600.912,926.0
601.045,924.633
601.178,925.8
601.311,926.4
601.444,925.533
601.577,927.3
601.71,926.8
601.843,926.1
601.976,927.533
602.109,925.967
602.242,925.033
602.375,926.167
602.508,925.033
602.641,925.733
602.774,926.333
602.907,928.633
603.04,925.567
603.173,925.867
603.306,923.967
603.439,926.133
603.572,925.7
603.705,924.733
603.838,925.133
603.971,926.2
604.103,925.2
604.236,926.533
604.369,925.7
604.502,922.667
604.635,924.3
604.768,923.967
604.901,925.0
605.034,922.567
605.167,922.7
605.299,923.967
605.432,923.3
605.565,921.533
605.698,921.767
605.831,921.7
605.964,922.067
606.096,921.533
606.229,922.467
606.362,923.567
606.495,921.667
606.628,921.1
606.761,920.6
606.893,921.567
607.026,923.467
607.159,921.967
607.292,921.8
607.425,921.8
607.557,923.733
607.69,921.733
607.823,921.567
607.956,923.133
608.088,921.5
608.221,921.733
608.354,923.633
608.487,922.433
608.619,921.633
608.752,924.1
608.885,925.933
609.018,923.1
609.15,924.267
609.283,923.0
609.416,925.967
609.548,922.533
609.681,922.533
609.814,921.833
609.947,923.033
610.079,924.233
610.212,923.4
610.345,922.6
610.477,922.8
610.61,922.333
610.743,922.6
610.875,920.1
611.008,921.967
611.141,922.167
611.273,919.933
611.406,922.567
611.539,921.0
611.671,920.1
611.804,923.233
611.936,921.3
612.069,924.0
612.202,921.3
612.334,921.667
612.467,922.6
612.6,921.167
612.732,923.433
612.865,924.367
612.997,925.533
613.13,925.833
613.263,923.233
613.395,925.967
613.528,923.5
613.66,923.533
613.793,924.133
613.925,922.6
614.058,925.3
614.19,926.367
614.323,925.433
614.456,923.433
614.588,922.467
614.721,925.267
614.853,922.4
614.986,925.667
615.118,924.9
615.251,924.533
615.383,923.7
615.516,924.4
615.648,924.6
615.781,925.267
615.913,925.167
616.046,923.933
616.178,925.2
616.311,924.133
616.443,923.6
616.576,924.833
616.708,926.433
616.841,926.267
616.973,928.067
617.106,925.067
617.238,924.567
617.37,927.567
617.503,924.9
617.635,924.8
617.768,923.7
617.9,923.733
618.033,922.9
618.165,923.2
618.297,923.933
618.43,924.0
618.562,923.7
618.695,923.433
618.827,923.467
618.96,923.867
619.092,922.167
619.224,922.567
619.357,924.067
619.489,924.733
619.621,919.467
619.754,924.633
619.886,921.533
620.019,921.7
620.151,922.733
620.283,923.433
620.416,923.867
620.548,920.767
620.68,922.067
620.813,921.667
620.945,923.8
621.077,922.567
621.21,920.667
621.342,924.8
621.474,922.2
621.607,923.167
621.739,924.533
621.871,923.667
622.004,922.567
622.136,925.6
622.268,926.5
622.401,929.033
622.533,929.833
622.665,932.067
622.797,936.533
622.93,936.467
623.062,938.833
623.194,938.567
623.326,936.433
623.459,937.167
623.591,936.533
623.723,935.467
623.856,934.033
623.988,931.167
624.12,929.767
624.252,931.533
624.384,929.833
624.517,925.767
624.649,924.767
624.781,925.467
624.913,922.433
625.046,924.633
625.178,923.833
625.31,924.733
625.442,923.167
625.574,921.3
625.707,923.567
625.839,924.433
625.971,925.133
626.103,923.433
626.235,923.767
626.368,921.967
626.5,926.033
626.632,924.8
626.764,925.2
626.896,924.9
627.028,922.4
627.161,923.267
627.293,925.433
627.425,925.533
627.557,927.3
627.689,929.367
627.821,932.8
627.953,936.467
628.086,948.533
628.218,970.4
628.35,996.3
628.482,1017.37
628.614,1018.33
628.746,1012.23
628.878,1002.87
629.01,996.5
629.143,993.7
629.275,992.733
629.407,993.4
629.539,995.7
629.671,994.133
629.803,996.967
629.935,997.4
630.067,1002.53
630.199,1009.1
630.331,1019.5
630.463,1042.07
630.596,1075.27
630.728,1140.83
630.86,1262.47
630.992,1421.5
631.124,1519.47
631.256,1498.9
631.388,1401.7
631.52,1290.87
631.652,1205.6
631.784,1148.3
631.916,1110.67
632.048,1083.47
632.18,1067.87
632.312,1058.57
632.444,1045.97
632.576,1038.97
632.708,1045.5
632.84,1063.6
632.972,1094.53
633.104,1129.6
633.236,1151.07
633.368,1151.63
633.5,1147.9
633.632,1123.6
633.764,1104.27
633.896,1073.73
634.028,1042.57
634.16,1019.57
634.292,995.3
634.424,973.6
634.556,961.133
634.688,950.167
634.82,942.233
634.952,936.333
635.084,935.2
635.216,930.033
635.348,928.967
635.48,924.567
635.612,921.633
635.744,921.033
635.876,922.633
636.007,921.867
636.139,919.8
636.271,919.967
636.403,917.333
636.535,917.2
636.667,917.467
636.799,918.367
636.931,916.0
637.063,917.7
637.195,914.4
637.327,914.167
637.459,915.933
637.59,913.533
637.722,914.167
637.854,914.3
637.986,913.5
638.118,915.333
638.25,911.933
638.382,915.1
638.514,913.833
638.645,914.5
638.777,912.767
638.909,911.667
639.041,911.7
639.173,913.367
639.305,911.333
639.437,912.2
639.568,912.967
639.7,914.433
639.832,913.6
639.964,911.667
640.096,912.233
640.228,914.433
640.36,912.667
640.491,912.1
640.623,913.033
640.755,913.767
640.887,912.967
641.019,913.033
641.15,914.033
641.282,913.8
641.414,914.867
641.546,912.4
641.678,912.067
641.81,912.567
641.941,913.833
642.073,912.967
642.205,912.9
642.337,913.733
642.468,913.2
642.6,910.9
642.732,911.5
642.864,909.733
642.996,909.9
643.127,908.333
643.259,909.233
643.391,909.633
643.523,908.967
643.654,907.667
643.786,907.967
643.918,905.6
644.05,905.8
644.181,906.2
644.313,906.833
644.445,905.333
644.577,905.2
644.708,903.533
644.84,902.8
644.972,903.567
645.104,905.6
645.235,902.267
645.367,902.733
645.499,906.9
645.631,903.7
645.762,904.633
645.894,903.2
646.026,903.267
646.157,903.067
646.289,905.767
646.421,901.767
646.553,902.267
646.684,901.1
646.816,903.367
646.948,904.033
647.079,902.933
647.211,903.667
647.343,899.067
647.474,902.467
647.606,903.2
647.738,903.633
647.869,902.967
648.001,901.533
648.133,900.3
648.265,902.433
648.396,901.167
648.528,900.533
648.66,899.933
648.791,902.233
648.923,902.133
649.054,899.7
649.186,902.567
649.318,900.8
649.449,901.367
649.581,901.2
649.713,900.033
649.844,899.367
649.976,898.833
650.108,900.8
650.239,899.9
650.371,900.067
650.503,900.167
650.634,898.933
650.766,899.067
650.897,897.9
651.029,899.333
651.161,898.067
651.292,899.833
651.424,898.467
651.556,897.967
651.687,898.067
651.819,897.733
651.95,899.033
652.082,899.467
652.214,898.967
652.345,901.2
652.477,898.933
652.608,897.9
652.74,899.4
652.872,898.733
653.003,899.233
653.135,899.1
653.266,898.567
653.398,898.4
653.529,897.067
653.661,897.7
653.793,899.067
653.924,900.0
654.056,897.067
654.187,897.967
654.319,898.733
654.45,898.633
654.582,897.3
654.714,897.533
654.845,899.433
654.977,896.9
655.108,897.067
655.24,897.1
655.371,896.2
655.503,896.9
655.634,896.367
655.766,897.267
655.897,896.1
656.029,896.867
656.161,893.933
656.292,895.067
656.424,896.167
656.555,896.8
656.687,898.1
656.818,895.633
656.95,897.867
657.081,898.733
657.213,898.5
657.344,896.267
657.476,897.367
657.607,897.7
657.739,897.133
657.87,895.633
658.002,896.833
658.133,895.9
658.265,897.433
658.396,896.4
658.528,895.733
658.659,896.633
658.791,895.7
658.922,895.033
659.054,894.7
659.185,896.967
659.317,895.0
659.448,894.633
659.58,895.767
659.711,894.633
659.843,893.9
659.974,893.367
660.106,896.3
660.237,893.167
660.368,893.433
660.5,892.8
660.631,894.433
660.763,893.233
660.894,893.1
661.026,894.5
661.157,893.7
661.289,891.567
661.42,892.467
661.552,892.267
661.683,889.967
661.815,892.133
661.946,892.0
662.077,892.633
662.209,892.4
662.34,889.533
662.472,892.4
662.603,890.9
662.735,892.933
662.866,891.633
662.997,892.9
663.129,892.433