File: spectra/VLFR_01-LDPE_bio_Raman_cbaa2979.csv
nm,Intensity
528.625,1843.9
528.793,1844.3
528.962,1842.0
529.13,1841.3
529.299,1841.5
529.467,1843.0
529.636,1843.5
529.804,1843.5
529.973,1844.5
530.141,1843.7
530.31,1843.3
530.478,1844.1
530.646,1844.1
530.815,1842.6
530.983,1844.7
531.152,1844.4
531.32,1845.2
531.488,1849.3
531.657,1868.2
531.825,2267.0
531.994,3436.1
532.162,2978.7
532.33,1930.9
532.499,1847.1
532.667,1846.1
532.836,1845.1
533.004,1846.0
533.172,1846.2
533.341,1848.8
533.509,1872.9
533.677,2009.2
533.846,2242.2
534.014,2364.5
534.182,2350.9
534.35,2306.8
534.519,2279.4
534.687,2279.1
534.855,2264.9
535.024,2247.6
535.192,2215.3
535.36,2201.9
535.528,2167.2
535.697,2146.1
535.865,2125.7
536.033,2107.5
536.201,2102.9
536.37,2107.6
536.538,2101.8
536.706,2079.5
536.874,2093.1
537.043,2086.1
537.211,2096.3
537.379,2082.1
537.547,2092.8
537.715,2094.4
537.884,2088.9
538.052,2085.9
538.22,2069.7
538.388,2063.6
538.556,2065.7
538.724,2051.1
538.893,2055.8
539.061,2052.6
539.229,2053.3
539.397,2051.0
539.565,2038.6
539.733,2040.0
539.901,2038.7
540.069,2040.4
540.238,2034.8
540.406,2029.0
540.574,2028.1
540.742,2036.2
540.91,2028.5
541.078,2024.2
541.246,2021.3
541.414,2024.2
541.582,2020.4
541.75,2031.0
541.918,2028.2
542.086,2023.5
542.254,2025.4
542.422,2029.9
542.59,2013.8
542.758,2030.4
542.926,2025.2
543.094,2020.9
543.262,2020.9
543.43,2024.1
543.598,2026.3
543.766,2023.7
543.934,2022.1
544.102,2024.4
544.27,2022.6
544.438,2027.7
544.606,2020.0
544.774,2027.0
544.942,2024.1
545.11,2020.0
545.278,2014.7
545.446,2015.8
545.614,2013.3
545.781,2021.8
545.949,2019.4
546.117,2024.4
546.285,2017.5
546.453,2025.4
546.621,2024.1
546.789,2030.4
546.957,2021.0
547.124,2024.9
547.292,2021.4
547.46,2021.5
547.628,2016.6
547.796,2031.1
547.964,2026.0
548.131,2022.6
548.299,2029.5
548.467,2022.0
548.635,2012.8
548.803,2019.9
548.97,2014.4
549.138,2024.5
549.306,2022.1
549.474,2022.8
549.641,2023.1
549.809,2014.1
549.977,2021.0
550.145,2018.6
550.312,2024.8
550.48,2016.8
550.648,2026.4
550.816,2015.1
550.983,2028.8
551.151,2028.7
551.319,2027.3
551.486,2030.4
551.654,2031.4
551.822,2029.5
551.989,2038.8
552.157,2031.7
552.325,2034.6
552.492,2034.2
552.66,2033.7
552.828,2042.8
552.995,2041.9
553.163,2060.5
553.33,2065.3
553.498,2061.0
553.666,2072.0
553.833,2057.8
554.001,2071.6
554.168,2071.1
554.336,2066.6
554.504,2076.8
554.671,2077.8
554.839,2075.6
555.006,2078.1
555.174,2081.0
555.341,2092.9
555.509,2090.7
555.676,2098.8
555.844,2106.5
556.011,2108.2
556.179,2102.5
556.346,2100.2
556.514,2126.7
556.681,2134.2
556.849,2128.8
557.016,2140.1
557.184,2150.9
557.351,2153.6
557.519,2159.2
557.686,2178.2
557.854,2184.0
558.021,2173.6
558.188,2190.2
558.356,2190.8
558.523,2198.2
558.691,2197.1
558.858,2171.5
559.025,2156.3
559.193,2161.8
559.36,2139.8
559.528,2145.0
559.695,2144.6
559.862,2142.7
560.03,2140.2
560.197,2134.5
560.364,2132.1
560.532,2135.1
560.699,2134.6
560.866,2138.1
561.034,2136.1
561.201,2133.1
561.368,2139.8
561.536,2144.8
561.703,2159.7
561.87,2156.7
562.037,2171.1
562.205,2173.1
562.372,2191.9
562.539,2184.1
562.706,2208.2
562.874,2193.1
563.041,2216.4
563.208,2235.1
563.375,2261.6
563.543,2313.3
563.71,2465.9
563.877,2804.1
564.044,2968.4
564.211,2664.0
564.378,2451.0
564.546,2425.3
564.713,2395.9
564.88,2367.5
565.047,2344.9
565.214,2311.6
565.381,2319.6
565.549,2340.9
565.716,2438.7
565.883,2704.8
566.05,3093.3
566.217,3008.8
566.384,2595.8
566.551,2374.2
566.718,2308.3
566.885,2270.1
567.052,2272.3
567.219,2289.2
567.386,2311.0
567.554,2277.9
567.721,2261.5
567.888,2237.7
568.055,2227.2
568.222,2233.2
568.389,2241.9
568.556,2225.8
568.723,2244.8
568.89,2233.2
569.057,2242.1
569.224,2252.2
569.391,2247.9
569.558,2266.4
569.724,2262.1
569.891,2267.9
570.058,2278.6
570.225,2298.3
570.392,2319.0
570.559,2349.8
570.726,2364.1
570.893,2385.7
571.06,2451.5
571.227,2707.2
571.394,3249.7
571.56,3659.4
571.727,3122.8
571.894,2686.5
572.061,2617.4
572.228,2539.5
572.395,2463.4
572.562,2442.7
572.728,2398.9
572.895,2395.8
573.062,2380.5
573.229,2391.0
573.396,2407.0
573.562,2424.7
573.729,2461.4
573.896,2492.3
574.063,2498.5
574.23,2434.9
574.396,2455.6
574.563,2422.2
574.73,2447.1
574.897,2454.6
575.063,2518.3
575.23,2625.9
575.397,2874.3
575.563,3133.5
575.73,3039.1
575.897,3119.4
576.063,3445.5
576.23,3731.3
576.397,3635.5
576.563,3489.7
576.73,3454.9
576.897,3361.5
577.063,3329.1
577.23,3227.3
577.397,3060.8
577.563,2923.4
577.73,2875.7
577.897,2885.9
578.063,2881.9
578.23,2904.1
578.396,2930.8
578.563,2921.9
578.729,2901.3
578.896,2982.4
579.063,2992.2
579.229,3039.1
579.396,3084.4
579.562,3067.2
579.729,3094.4
579.895,3201.4
580.062,3210.4
580.228,3174.2
580.395,3196.4
580.561,3222.4
580.728,3274.0
580.894,3301.0
581.061,3339.9
581.227,3371.5
581.393,3344.2
581.56,3422.4
581.726,3410.1
581.893,3512.4
582.059,3483.7
582.226,3426.9
582.392,3397.5
582.558,3543.5
582.725,3493.5
582.891,3533.3
583.058,3564.8
583.224,3589.1
583.39,3567.0
583.557,3575.2
583.723,3616.5
583.889,3599.6
584.056,3641.9
584.222,3588.8
584.388,3651.8
584.555,3665.4
584.721,3616.6
584.887,3672.3
585.053,3645.5
585.22,3665.6
585.386,3685.6
585.552,3726.2
585.718,3721.6
585.885,3760.3
586.051,3735.7
586.217,3771.1
586.383,3799.8
586.55,3788.6
586.716,3764.5
586.882,3845.4
587.048,3937.1
587.214,3847.9
587.381,3921.2
587.547,3927.4
587.713,3945.6
587.879,3964.8
588.045,4094.3
588.211,4010.3
588.377,4067.0
588.544,4140.4
588.71,4121.5
588.876,4146.8
589.042,4133.5
589.208,4225.2
589.374,4228.5
589.54,4270.4
589.706,4307.2
589.872,4296.1
590.038,4338.9
590.204,4408.8
590.37,4402.4
590.536,4476.2
590.702,4460.6
590.869,4600.9
591.035,4508.1
591.201,4588.9
591.367,4592.9
591.532,4664.2
591.698,4718.7
591.864,4706.4
592.03,4710.4
592.196,4767.7
592.362,4766.5
592.528,4841.4
592.694,4802.0
592.86,4873.6
593.026,4856.4
593.192,4769.1
593.358,4923.3
593.524,4912.1
593.69,4931.7
593.855,5015.1
594.021,5068.5
594.187,5032.3
594.353,4965.0
594.519,5082.4
594.685,5087.2
594.851,5096.1
595.016,5063.0
595.182,5167.1
595.348,5177.3
595.514,5241.6
595.68,5235.9
595.845,5238.8
596.011,5187.0
596.177,5292.3
596.343,5395.0
596.508,5285.1
596.674,5347.1
596.84,5453.1
597.006,5360.2
597.171,5388.3
597.337,5471.0
597.503,5502.3
597.668,5505.1
597.834,5593.1
598.0,5570.3
598.165,5436.8
598.331,5604.5
598.497,5613.2
598.662,5528.8
598.828,5758.1
598.994,5687.5
599.159,5670.4
599.325,5772.8
599.49,5786.3
599.656,5764.3
599.822,5955.1
599.987,5801.1
600.153,5852.5
600.318,5909.1
600.484,5813.8
600.649,5735.8
600.815,5855.7
600.98,5774.9
601.146,5843.4
601.311,5846.3
601.477,5894.5
601.642,5802.5
601.808,5783.3
601.973,5751.2
602.139,5782.2
602.304,5794.7
602.47,5723.5
602.635,5596.2
602.801,5785.1
602.966,5740.8
603.132,5624.2
603.297,5581.7
603.462,5550.1
603.628,5520.7
603.793,5421.9
603.959,5376.4
604.124,5378.5
604.289,5396.4
604.455,5260.0
604.62,5319.0
604.785,5237.8
604.951,5096.4
605.116,5070.1
605.281,5120.3
605.447,5080.4
605.612,4988.0
605.777,4893.9
605.943,5009.4
606.108,4942.2
606.273,4733.4
606.438,4764.5
606.604,4789.7
606.769,4721.3
606.934,4677.8
607.099,4693.5
607.265,4594.7
607.43,4579.5
607.595,4603.5
607.76,4598.9
607.925,4379.7
608.09,4475.8
608.256,4371.2
608.421,4332.5
608.586,4382.1
608.751,4365.5
608.916,4324.8
609.081,4299.9
609.246,4250.2
609.412,4287.5
609.577,4223.7
609.742,4223.8
609.907,4189.6
610.072,4106.8
610.237,4152.8
610.402,4128.4
610.567,4153.3
610.732,4083.8
610.897,4128.5
611.062,4176.2
611.227,4048.5
611.392,3995.5
611.557,4097.9
611.722,4029.7
611.887,3962.5
612.052,3919.7
612.217,3945.3
612.382,3975.4
612.547,3881.4
612.712,3859.1
612.877,3857.7
613.042,3896.5
613.207,3787.1
613.372,3791.4
613.536,3816.0
613.701,3816.7
613.866,3747.8
614.031,3806.0
614.196,3748.6
614.361,3727.4
614.526,3744.2
614.691,3728.5
614.855,3688.2
615.02,3657.4
615.185,3657.1
615.35,3644.8
615.515,3683.2
615.679,3651.6
615.844,3649.1
616.009,3601.9
616.174,3609.9
616.338,3569.5
616.503,3565.0
616.668,3573.4
616.833,3547.7
616.997,3572.7
617.162,3552.0
617.327,3563.1
617.491,3574.3
617.656,3520.5
617.821,3504.4
617.985,3527.9
618.15,3519.7
618.315,3472.2
618.479,3471.5
618.644,3468.7
618.809,3456.0
618.973,3434.6
619.138,3499.0
619.302,3475.9
619.467,3468.0
619.632,3471.6
619.796,3442.6
619.961,3410.1
620.125,3399.1
620.29,3458.0
620.454,3470.0
620.619,3438.4
620.783,3420.2
620.948,3406.9
621.112,3477.6
621.277,3481.0
621.441,3516.0
621.606,3537.4
621.77,3570.6
621.935,3630.3
622.099,3649.7
622.264,3712.9
622.428,3696.8
622.592,3550.1
622.757,3541.4
622.921,3434.3
623.086,3385.0
623.25,3404.6
623.414,3328.6
623.579,3289.7
623.743,3358.3
623.907,3289.9
624.072,3273.5
624.236,3287.5
624.4,3316.8
624.565,3305.2
624.729,3323.0
624.893,3313.9
625.058,3347.6
625.222,3331.3
625.386,3324.2
625.55,3325.6
625.715,3339.8
625.879,3342.1
626.043,3440.7
626.207,3608.7
626.372,3793.2
626.536,4215.9
626.7,5134.5
626.864,6801.0
627.028,8256.4
627.192,9120.5
627.357,8683.2
627.521,7868.9
627.685,7358.1
627.849,6888.6
628.013,6928.3
628.177,7206.3
628.341,8138.6
628.505,9132.6
628.67,8572.5
628.834,7522.6
628.998,7107.0
629.162,6836.0
629.326,6777.2
629.49,6373.2
629.654,5906.3
629.818,5819.9
629.982,5621.8
630.146,5410.3
630.31,5457.1
630.474,5454.9
630.638,5113.0
630.802,4806.4
630.966,4331.2
631.13,4005.0
631.294,3821.3
631.458,3650.3
631.621,3592.8
631.785,3453.1
631.949,3399.5
632.113,3400.7
632.277,3345.6
632.441,3293.7
632.605,3293.7
632.769,3317.7
632.933,3239.5
633.096,3263.0
633.26,3197.6
633.424,3213.6
633.588,3195.0
633.752,3184.1
633.915,3224.9
634.079,3231.8
634.243,3263.6
634.407,3175.0
634.57,3165.3
634.734,3106.7
634.898,3140.1
635.062,3178.6
635.225,3148.3
635.389,3119.8
635.553,3114.6
635.716,3120.7
635.88,3113.9
636.044,3124.7
636.207,3079.8
636.371,3122.1
636.535,3115.3
636.698,3116.2
636.862,3148.1
637.026,3124.3
637.189,3068.1
637.353,3089.4
637.516,3092.6
637.68,3086.1
637.844,3093.9
638.007,3084.6
638.171,3049.3
638.334,3073.6
638.498,3137.5
638.661,3076.0
638.825,3114.6
638.988,3094.9
639.152,3074.4
639.315,3083.3
639.479,3118.1
639.642,3095.6
639.806,3128.6
639.969,3091.3
640.133,3047.3
640.296,3064.3
640.459,3101.9
640.623,3152.3
640.786,3076.1
640.95,3076.4
641.113,3109.4
641.276,3072.4
641.44,3105.2
641.603,3074.9
641.766,3122.9
641.93,3118.6
642.093,3172.9
642.256,3112.7
642.42,3075.1
642.583,3123.7
642.746,3170.8
642.909,3192.6
643.073,3099.5
643.236,3099.1
643.399,3189.7
643.562,3196.2
643.726,3135.6
643.889,3086.1
644.052,3177.2
644.215,3152.8
644.379,3139.5
644.542,3109.9
644.705,3127.7
644.868,3177.8
645.031,3143.2
645.194,3143.5
645.357,3156.7
645.521,3220.5
645.684,3191.3
645.847,3136.9
646.01,3162.8
646.173,3166.2
646.336,3181.8
646.499,3156.8
646.662,3174.0
646.825,3195.0
646.988,3153.5
647.151,3170.1
647.314,3126.8
647.477,3145.1
647.64,3165.4
647.803,3172.1
647.966,3163.0
648.129,3176.7
648.292,3149.5
648.455,3139.0
648.618,3179.1
648.781,3118.5
648.944,3168.5
649.107,3138.9
649.27,3147.0
649.433,3150.2
649.595,3142.2
649.758,3092.3
649.921,3090.1
650.084,3111.3
650.247,3139.7
650.41,3166.6
650.572,3106.9
650.735,3151.0
650.898,3082.9
651.061,3107.9
651.224,3159.5
651.386,3112.2
651.549,3137.5
651.712,3101.5
651.875,3167.6
652.037,3120.9
652.2,3104.5
652.363,3079.1
652.526,3154.4
652.688,3124.8
652.851,3099.0
653.014,3055.2
653.176,3091.6
653.339,3086.3
653.502,3106.2
653.664,3098.8
653.827,3049.6
653.989,3039.2
654.152,3082.3
654.315,3072.5
654.477,3044.1
654.64,3034.4
654.802,3068.0
654.965,3054.6
655.127,3056.8
655.29,3064.7
655.452,3092.5
655.615,3025.2
655.777,3059.3
655.94,3015.0
656.102,2981.4
656.265,3073.8
656.427,2984.2
656.59,2996.0
656.752,2996.9
656.915,2982.2
657.077,2995.4
657.24,2943.1
657.402,2950.5
657.564,2958.5
657.727,2914.9
657.889,2907.6
658.051,2856.5
658.214,2875.0
658.376,2863.4
658.538,2898.7
658.701,2841.1
658.863,2816.1
659.025,2771.5
659.188,2839.1
659.35,2821.1
659.512,2767.2
659.674,2760.0
659.837,2743.3
659.999,2785.5
660.161,2732.8
660.323,2785.4
660.486,2704.1
660.648,2688.4
660.81,2674.5
660.972,2670.9
661.053,2630.9