File: spectra/VLFR_01-LDPE_nobio_Raman_8da42f06.csv
cm-1,Intensity
-123.878,1853.8
-117.855,1852.25
-111.836,1852.5
-105.821,1850.55
-99.8104,1852.5
-93.8036,1852.75
-87.8007,1852.75
-81.8019,1851.85
-75.807,1853.15
-69.8161,1853.5
-63.8293,1852.45
-57.8464,1852.6
-51.8675,1853.1
-45.8926,1853.2
-39.9216,1852.5
-33.9547,1852.95
-27.9917,1855.45
-22.0326,1854.9
-16.0776,1871.85
-10.1265,2117.8
-4.17932,3010.5
1.76388,2929.35
7.70313,1955.05
13.6384,1854.05
19.5698,1853.05
25.4972,1853.15
31.4207,1853.7
37.3403,1852.75
43.256,1855.1
49.1677,1874.6
55.0755,1984.35
60.9794,2179.25
66.8794,2270.3
72.7754,2281.4
78.6676,2298.4
84.5559,2274.4
90.4402,2267.05
96.3207,2284.75
102.197,2253.7
108.07,2236.9
113.939,2230.7
119.804,2241.4
125.665,2202.75
131.522,2195.85
137.375,2189.6
143.225,2172.55
149.07,2173.2
154.912,2163.2
160.75,2163.75
166.584,2163.6
172.414,2156.1
178.241,2156.9
184.063,2169.05
189.882,2168.9
195.697,2175.25
201.508,2164.8
207.315,2172.6
213.119,2155.25
218.918,2155.8
224.714,2160.0
230.506,2143.55
236.294,2147.55
242.078,2149.5
247.859,2139.85
253.636,2137.2
259.409,2130.15
265.178,2129.65
270.943,2133.3
276.705,2127.05
282.463,2120.1
288.217,2113.05
293.967,2124.95
299.713,2121.0
305.456,2115.45
311.195,2114.8
316.93,2125.55
322.662,2116.1
328.389,2118.95
334.113,2119.2
339.834,2120.5
345.55,2112.85
351.263,2120.65
356.972,2121.5
362.677,2122.3
368.379,2122.4
374.077,2114.75
379.771,2115.8
385.461,2104.55
391.148,2111.25
396.831,2114.1
402.51,2112.3
408.186,2111.3
413.858,2125.15
419.526,2108.35
425.19,2105.1
430.851,2101.65
436.508,2109.3
442.162,2106.55
447.811,2103.15
453.458,2109.8
459.1,2107.9
464.739,2094.25
470.374,2111.0
476.005,2108.45
481.633,2104.55
487.257,2101.95
492.878,2100.0
498.494,2105.8
504.107,2105.05
509.717,2097.4
515.323,2104.55
520.925,2110.35
526.524,2102.55
532.119,2102.7
537.71,2101.65
543.298,2102.5
548.882,2098.45
554.462,2110.7
560.039,2110.05
565.613,2100.15
571.182,2093.3
576.748,2089.6
582.311,2099.75
587.87,2096.15
593.425,2086.7
598.977,2094.75
604.525,2097.25
610.069,2091.25
615.61,2103.5
621.148,2095.75
626.682,2087.15
632.212,2089.35
637.739,2095.05
643.262,2101.0
648.781,2102.85
654.297,2102.1
659.81,2103.8
665.319,2096.55
670.824,2107.85
676.326,2103.6
681.824,2101.75
687.319,2104.8
692.81,2086.0
698.298,2103.15
703.782,2091.45
709.262,2103.45
714.739,2116.75
720.213,2115.5
725.683,2115.35
731.15,2122.8
736.613,2119.5
742.072,2117.55
747.528,2121.05
752.981,2118.9
758.43,2117.65
763.875,2125.0
769.317,2124.1
774.756,2133.05
780.191,2128.9
785.623,2113.35
791.051,2127.05
796.475,2133.35
801.897,2139.0
807.314,2135.1
812.729,2132.45
818.139,2139.25
823.547,2141.35
828.951,2140.65
834.351,2147.55
839.748,2148.5
845.142,2157.45
850.532,2162.6
855.918,2162.8
861.302,2179.25
866.681,2180.4
872.058,2187.05
877.431,2175.8
882.8,2188.55
888.166,2178.3
893.529,2180.9
898.888,2181.7
904.244,2172.85
909.596,2160.25
914.945,2169.3
920.291,2167.55
925.633,2157.7
930.972,2164.95
936.308,2159.65
941.64,2152.7
946.968,2157.85
952.294,2163.6
957.615,2170.35
962.934,2159.55
968.249,2164.7
973.561,2178.8
978.869,2165.85
984.174,2159.9
989.476,2176.5
994.774,2183.4
1000.07,2183.55
1005.36,2187.2
1010.65,2197.7
1015.93,2187.6
1021.22,2203.05
1026.49,2219.85
1031.77,2227.3
1037.04,2222.85
1042.31,2244.1
1047.57,2262.2
1052.83,2355.7
1058.09,2536.4
1063.35,2653.5
1068.6,2484.6
1073.85,2343.35
1079.09,2340.0
1084.33,2331.15
1089.57,2316.85
1094.81,2296.8
1100.04,2264.75
1105.27,2270.3
1110.49,2297.2
1115.71,2335.9
1120.93,2462.5
1126.15,2659.85
1131.36,2647.7
1136.57,2439.15
1141.77,2312.0
1146.98,2279.25
1152.18,2261.05
1157.37,2252.7
1162.56,2257.55
1167.75,2271.8
1172.94,2263.7
1178.12,2240.15
1183.3,2234.85
1188.48,2220.55
1193.65,2221.6
1198.82,2218.3
1203.99,2212.4
1209.15,2210.45
1214.31,2217.55
1219.46,2227.55
1224.62,2219.9
1229.77,2227.25
1234.92,2221.6
1240.06,2223.3
1245.2,2228.45
1250.34,2232.65
1255.47,2256.6
1260.6,2245.65
1265.73,2265.6
1270.85,2282.35
1275.97,2283.8
1281.09,2323.8
1286.21,2473.0
1291.32,2828.1
1296.43,3068.15
1301.53,2756.55
1306.63,2487.8
1311.73,2402.7
1316.83,2358.1
1321.92,2316.95
1327.01,2298.45
1332.1,2278.25
1337.18,2266.75
1342.26,2255.85
1347.34,2259.8
1352.41,2262.3
1357.48,2278.2
1362.55,2276.05
1367.61,2295.8
1372.67,2280.3
1377.73,2267.0
1382.78,2237.9
1387.84,2228.85
1392.88,2231.3
1397.93,2247.8
1402.97,2248.7
1408.01,2296.3
1413.05,2409.35
1418.08,2499.65
1423.11,2535.65
1428.14,2597.45
1433.16,2753.9
1438.18,2923.5
1443.2,2918.9
1448.21,2789.2
1453.22,2708.4
1458.23,2694.95
1463.23,2660.65
1468.23,2568.3
1473.23,2445.85
1478.23,2344.65
1483.22,2308.05
1488.21,2292.0
1493.2,2262.4
1498.18,2256.6
1503.16,2246.75
1508.14,2240.9
1513.11,2255.25
1518.08,2252.5
1523.05,2244.3
1528.01,2237.25
1532.97,2254.85
1537.93,2249.85
1542.89,2251.9
1547.84,2241.35
1552.79,2249.5
1557.73,2259.45
1562.68,2248.2
1567.62,2248.8
1572.56,2250.9
1577.49,2251.0
1582.42,2242.45
1587.35,2256.55
1592.27,2249.1
1597.19,2258.75
1602.11,2242.15
1607.03,2253.35
1611.94,2251.5
1616.85,2247.05
1621.76,2257.85
1626.66,2263.55
1631.56,2264.0
1636.46,2256.55
1641.36,2252.3
1646.25,2263.45
1651.14,2258.3
1656.02,2271.55
1660.9,2262.45
1665.78,2269.0
1670.66,2261.2
1675.54,2269.75
1680.41,2272.55
1685.27,2258.7
1690.14,2271.95
1695.0,2272.8
1699.86,2263.8
1704.71,2278.1
1709.57,2261.7
1714.42,2271.2
1719.26,2272.7
1724.11,2271.6
1728.95,2277.0
1733.79,2270.25
1738.62,2281.55
1743.46,2281.8
1748.28,2288.05
1753.11,2276.1
1757.93,2288.55
1762.75,2299.1
1767.57,2295.95
1772.39,2294.35
1777.2,2291.35
1782.01,2291.65
1786.81,2300.4
1791.62,2300.7
1796.41,2311.35
1801.21,2302.1
1806.01,2296.8
1810.8,2283.15
1815.59,2302.2
1820.37,2286.35
1825.15,2281.8
1829.93,2295.3
1834.71,2306.75
1839.48,2298.7
1844.25,2293.25
1849.02,2296.65
1853.79,2323.55
1858.55,2331.6
1863.31,2328.25
1868.06,2327.85
1872.82,2338.35
1877.57,2337.05
1882.31,2338.4
1887.06,2346.75
1891.8,2344.2
1896.54,2345.15
1901.28,2349.25
1906.01,2358.3
1910.74,2367.9
1915.47,2374.75
1920.19,2375.95
1924.91,2390.75
1929.63,2382.5
1934.35,2397.8
1939.06,2421.0
1943.77,2406.1
1948.48,2433.7
1953.19,2425.9
1957.89,2417.05
1962.59,2438.05
1967.28,2454.45
1971.98,2458.95
1976.67,2465.25
1981.35,2461.35
1986.04,2484.3
1990.72,2512.3
1995.4,2510.45
2000.08,2512.0
2004.75,2528.2
2009.42,2554.05
2014.09,2564.2
2018.75,2567.4
2023.42,2598.75
2028.08,2610.8
2032.73,2617.8
2037.39,2620.65
2042.04,2636.85
2046.69,2651.5
2051.33,2678.2
2055.97,2679.15
2060.61,2689.15
2065.25,2716.8
2069.88,2722.4
2074.52,2731.55
2079.15,2743.05
2083.77,2743.5
2088.39,2792.0
2093.01,2782.05
2097.63,2801.85
2102.25,2821.9
2106.86,2834.65
2111.47,2815.25
2116.08,2839.75
2120.68,2874.65
2125.28,2865.7
2129.88,2859.5
2134.47,2851.45
2139.07,2857.85
2143.66,2868.9
2148.24,2873.8
2152.83,2901.45
2157.41,2896.3
2161.99,2883.3
2166.57,2897.5
2171.14,2891.55
2175.71,2887.7
2180.28,2906.7
2184.84,2893.1
2189.41,2878.45
2193.97,2868.75
2198.52,2857.1
2203.08,2871.8
2207.63,2873.2
2212.18,2856.05
2216.73,2816.5
2221.27,2854.55
2225.81,2835.3
2230.35,2844.2
2234.89,2806.5
2239.42,2822.55
2243.95,2794.05
2248.48,2787.6
2253.0,2768.55
2257.52,2772.85
2262.04,2774.25
2266.56,2740.65
2271.07,2738.35
2275.58,2723.5
2280.09,2733.85
2284.6,2712.0
2289.1,2714.2
2293.6,2686.2
2298.1,2689.45
2302.6,2674.85
2307.09,2640.0
2311.58,2650.6
2316.07,2645.65
2320.55,2627.1
2325.03,2629.35
2329.51,2620.1
2333.99,2608.8
2338.46,2607.2
2342.93,2577.75
2347.4,2587.5
2351.87,2584.7
2356.33,2592.85
2360.79,2549.45
2365.25,2573.05
2369.71,2546.05
2374.16,2540.2
2378.61,2526.7
2383.06,2521.85
2387.5,2524.05
2391.94,2543.2
2396.38,2518.15
2400.82,2508.3
2405.26,2504.05
2409.69,2515.0
2414.12,2507.05
2418.54,2515.9
2422.97,2501.9
2427.39,2496.75
2431.81,2515.65
2436.22,2492.85
2440.64,2478.5
2445.05,2495.75
2449.46,2470.3
2453.86,2473.2
2458.27,2478.6
2462.67,2466.35
2467.06,2442.45
2471.46,2456.95
2475.85,2436.3
2480.24,2439.2
2484.63,2450.5
2489.02,2448.85
2493.4,2438.75
2497.78,2424.35
2502.16,2423.55
2506.53,2423.85
2510.9,2431.4
2515.27,2434.95
2519.64,2416.55
2524.0,2412.1
2528.37,2407.55
2532.73,2408.0
2537.08,2405.85
2541.44,2401.55
2545.79,2402.7
2550.14,2400.5
2554.48,2398.15
2558.83,2408.25
2563.17,2404.4
2567.51,2406.45
2571.85,2391.85
2576.18,2403.75
2580.51,2386.75
2584.84,2409.9
2589.17,2402.95
2593.49,2412.6
2597.81,2412.45
2602.13,2408.25
2606.45,2418.2
2610.76,2405.4
2615.07,2402.4
2619.38,2397.2
2623.69,2404.7
2627.99,2384.2
2632.29,2409.65
2636.59,2400.35
2640.89,2390.05
2645.18,2391.0
2649.47,2415.7
2653.76,2419.25
2658.05,2416.55
2662.33,2406.5
2666.61,2400.85
2670.89,2418.05
2675.17,2413.9
2679.44,2398.8
2683.71,2404.45
2687.98,2427.85
2692.25,2434.45
2696.51,2438.2
2700.77,2452.9
2705.03,2514.0
2709.29,2538.5
2713.54,2568.5
2717.79,2588.1
2722.04,2603.0
2726.29,2577.65
2730.53,2539.75
2734.77,2493.2
2739.01,2445.45
2743.25,2426.4
2747.48,2389.15
2751.71,2388.7
2755.94,2374.3
2760.17,2367.3
2764.39,2365.25
2768.61,2362.85
2772.83,2356.7
2777.05,2351.5
2781.27,2359.2
2785.48,2343.4
2789.69,2360.4
2793.89,2364.35
2798.1,2372.95
2802.3,2373.65
2806.5,2402.55
2810.7,2387.7
2814.89,2405.55
2819.09,2474.0
2823.28,2536.4
2827.46,2649.6
2831.65,2932.45
2835.83,3483.95
2840.01,4445.1
2844.19,5411.1
2848.37,5928.6
2852.54,5706.5
2856.71,5206.75
2860.88,4817.45
2865.05,4542.55
2869.21,4436.6
2873.37,4784.75
2877.53,5462.7
2881.69,6072.9
2885.84,5684.05
2889.99,4912.85
2894.14,4718.1
2898.29,4512.5
2902.43,4308.05
2906.58,4182.9
2910.72,3929.3
2914.85,3792.1
2918.99,3681.0
2923.12,3639.85
2927.25,3585.55
2931.38,3517.85
2935.5,3380.1
2939.63,3232.9
2943.75,2939.55
2947.87,2753.45
2951.98,2603.45
2956.1,2534.0
2960.21,2488.3
2964.32,2445.4
2968.42,2412.55
2972.53,2372.35
2976.63,2334.85
2980.73,2322.9
2984.83,2310.25
2988.92,2306.1
2993.01,2268.5
2997.1,2277.5
3001.19,2275.25
3005.28,2255.85
3009.36,2253.5
3013.44,2245.4
3017.52,2258.4
3021.6,2241.7
3025.67,2228.8
3029.74,2234.0
3033.81,2217.3
3037.88,2217.75
3041.94,2230.1
3046.01,2228.25
3050.07,2209.2
3054.12,2210.05
3058.18,2203.15
3062.23,2198.1
3066.28,2180.9
3070.33,2203.1
3074.38,2196.95
3078.42,2205.05
3082.46,2199.55
3086.5,2192.45
3090.54,2190.1
3094.57,2182.95
3098.6,2185.2
3102.63,2185.2
3106.66,2180.95
3110.69,2178.05
3114.71,2171.85
3118.73,2172.25
3122.75,2181.75
3126.77,2171.9
3130.78,2168.0
3134.79,2177.3
3138.8,2174.1
3142.81,2165.0
3146.81,2171.7
3150.82,2164.2
3154.82,2159.25
3158.81,2156.35
3162.81,2160.95
3166.8,2156.8
3170.79,2166.7
3174.78,2159.9
3178.77,2154.95
3182.75,2160.35
3186.74,2151.85
3190.72,2167.05
3194.69,2155.2
3198.67,2159.25
3202.64,2161.45
3206.61,2160.05
3210.58,2157.95
3214.55,2149.8
3218.51,2158.9
3222.47,2161.05
3226.43,2174.85
3230.39,2160.35
3234.35,2156.35
3238.3,2148.9
3242.25,2156.65
3246.2,2161.05
3250.15,2162.4
3254.09,2159.4
3258.03,2166.1
3261.97,2152.5
3265.91,2161.65
3269.84,2156.55
3273.78,2161.85
3277.71,2162.55
3281.64,2152.75
3285.56,2164.65
3289.49,2171.3
3293.41,2170.0
3297.33,2168.6
3301.25,2163.85
3305.16,2164.75
3309.07,2161.2
3312.99,2166.9
3316.89,2162.5
3320.8,2156.4
3324.7,2171.1
3328.61,2154.15
3332.51,2168.2
3336.4,2163.2
3340.3,2157.35
3344.19,2169.45
3348.08,2167.2
3351.97,2163.85
3355.86,2179.0
3359.74,2171.75
3363.63,2167.35
3367.51,2174.15
3371.39,2171.3
3375.26,2165.1
3379.13,2177.65
3383.01,2174.8
3386.88,2181.1
3390.74,2172.1
3394.61,2163.3
3398.47,2167.85
3402.33,2190.7
3406.19,2172.1
3410.05,2177.55
3413.9,2189.7
3417.75,2187.65
3421.6,2190.25
3425.45,2187.1
3429.3,2185.85
3433.14,2202.9
3436.98,2197.5
3440.82,2194.05
3444.66,2188.5
3448.49,2184.65
3452.32,2187.9
3456.15,2198.65
3459.98,2195.3
3463.81,2192.15
3467.63,2198.2
3471.46,2202.75
3475.28,2190.3
3479.09,2204.7
3482.91,2193.15
3486.72,2193.15
3490.53,2183.1
3494.34,2188.95
3498.15,2208.2
3501.96,2201.95
3505.76,2178.25
3509.56,2190.95
3513.36,2200.8
3517.15,2186.05
3520.95,2186.95
3524.74,2182.35
3528.53,2189.5
3532.32,2182.05
3536.11,2184.9
3539.89,2186.5
3543.67,2194.5
3547.45,2179.0
3551.23,2172.15
3555.0,2157.2
3558.78,2158.5
3562.55,2189.3
3566.32,2169.5
3570.09,2166.7
3573.85,2153.25
3577.61,2153.75
3581.37,2173.55
3585.13,2150.5
3588.89,2158.3
3592.64,2164.3
3596.4,2150.75
3600.15,2151.9
3603.9,2150.75
3607.64,2138.15
3611.39,2137.05
3615.13,2149.0
3618.87,2150.25
3622.61,2132.8
3626.34,2118.8
3630.08,2130.2
3633.81,2130.7
3637.54,2122.25
3641.27,2116.05
3644.99,2119.55
3648.72,2121.75
3652.44,2124.8
3656.16,2110.75
3659.87,2117.85
3663.59,2102.15
3665.45,2099.2