File: spectra/VLFR_08-PLA_bio_Raman_18d64c87.csv
nm,Intensity
526.495,828.7
526.632,829.9
526.768,829.3
526.905,829.0
527.042,828.3
527.179,829.5
527.315,828.4
527.452,829.2
527.589,829.7
527.725,829.3
527.862,829.4
527.999,829.0
528.136,830.9
528.272,828.4
528.409,829.9
528.546,828.1
528.682,828.9
528.819,829.3
528.955,829.2
529.092,828.9
529.229,829.9
529.365,828.7
529.502,828.4
529.639,828.8
529.775,830.1
529.912,829.6
530.048,830.3
530.185,829.4
530.321,828.8
530.458,829.3
530.594,829.6
530.731,828.5
530.867,829.3
531.004,829.1
531.14,828.4
531.277,828.2
531.413,827.7
531.55,829.2
531.686,829.3
531.823,829.6
531.959,832.2
532.096,852.7
532.232,860.3
532.369,835.7
532.505,830.3
532.641,829.8
532.778,830.2
532.914,831.2
533.051,828.2
533.187,830.1
533.323,827.1
533.46,829.7
533.596,831.7
533.732,841.9
533.869,896.4
534.005,988.5
534.141,1021.4
534.278,1018.7
534.414,1005.6
534.55,992.8
534.687,984.1
534.823,972.2
534.959,965.1
535.095,957.4
535.232,946.2
535.368,944.8
535.504,940.9
535.64,941.8
535.777,936.0
535.913,934.2
536.049,930.5
536.185,929.9
536.321,930.1
536.457,933.1
536.594,931.4
536.73,935.3
536.866,934.4
537.002,928.1
537.138,926.2
537.274,921.3
537.41,924.1
537.547,926.4
537.683,929.3
537.819,923.0
537.955,922.2
538.091,919.2
538.227,916.4
538.363,915.4
538.499,914.4
538.635,913.9
538.771,911.4
538.907,913.0
539.043,914.3
539.179,912.2
539.315,912.8
539.451,913.5
539.587,909.4
539.723,909.1
539.859,903.6
539.995,905.8
540.131,908.5
540.267,904.7
540.403,914.8
540.539,914.4
540.675,922.5
540.811,916.3
540.947,921.0
541.083,917.8
541.219,919.6
541.354,920.0
541.49,919.3
541.626,918.7
541.762,910.0
541.898,909.1
542.034,909.9
542.17,910.9
542.305,910.4
542.441,910.9
542.577,911.1
542.713,912.8
542.849,914.5
542.984,914.9
543.12,920.2
543.256,922.4
543.392,927.4
543.528,933.2
543.663,939.1
543.799,936.2
543.935,938.9
544.071,936.0
544.206,928.9
544.342,927.7
544.478,920.7
544.613,916.9
544.749,915.5
544.885,912.0
545.02,910.1
545.156,908.0
545.292,905.2
545.427,907.2
545.563,910.4
545.699,908.7
545.834,909.9
545.97,908.2
546.106,909.2
546.241,911.0
546.377,908.7
546.512,913.7
546.648,906.5
546.784,911.5
546.919,912.0
547.055,908.4
547.19,912.3
547.326,912.3
547.461,911.2
547.597,911.3
547.732,909.9
547.868,912.2
548.003,908.3
548.139,910.5
548.274,912.0
548.41,912.7
548.545,916.4
548.681,913.5
548.816,909.8
548.952,913.2
549.087,909.2
549.223,917.9
549.358,914.3
549.494,915.3
549.629,915.0
549.764,916.4
549.9,914.1
550.035,915.1
550.171,913.8
550.306,919.8
550.441,919.4
550.577,918.0
550.712,919.1
550.847,917.2
550.983,919.4
551.118,919.9
551.253,917.3
551.389,920.0
551.524,918.7
551.659,924.1
551.795,924.4
551.93,921.3
552.065,926.0
552.201,925.1
552.336,922.8
552.471,924.8
552.606,922.6
552.742,924.3
552.877,924.6
553.012,925.2
553.147,922.9
553.283,922.1
553.418,924.0
553.553,919.7
553.688,920.4
553.823,925.4
553.959,930.8
554.094,928.5
554.229,927.8
554.364,930.3
554.499,924.9
554.634,926.7
554.769,925.0
554.905,926.4
555.04,920.2
555.175,922.5
555.31,924.1
555.445,916.8
555.58,915.0
555.715,920.5
555.85,916.5
555.985,916.0
556.121,918.0
556.256,919.1
556.391,920.3
556.526,920.1
556.661,921.5
556.796,922.0
556.931,921.4
557.066,923.1
557.201,925.0
557.336,929.2
557.471,932.6
557.606,950.6
557.741,962.8
557.876,996.4
558.011,1026.0
558.146,1040.9
558.281,1018.3
558.416,976.0
558.551,948.2
558.685,939.6
558.82,936.3
558.955,933.9
559.09,936.4
559.225,933.6
559.36,932.3
559.495,933.3
559.63,934.9
559.765,931.2
559.9,934.2
560.034,930.9
560.169,927.7
560.304,929.2
560.439,927.8
560.574,930.7
560.709,927.3
560.843,928.3
560.978,926.0
561.113,927.0
561.248,925.4
561.383,928.0
561.517,922.5
561.652,926.7
561.787,928.0
561.922,926.1
562.057,925.7
562.191,925.7
562.326,927.0
562.461,926.9
562.596,924.5
562.73,931.8
562.865,936.5
563.0,941.4
563.134,946.3
563.269,954.7
563.404,967.6
563.539,967.9
563.673,959.1
563.808,954.1
563.943,948.2
564.077,938.1
564.212,937.9
564.346,937.3
564.481,938.9
564.616,946.3
564.75,945.4
564.885,948.6
565.02,958.3
565.154,960.1
565.289,957.0
565.423,953.3
565.558,950.3
565.693,953.5
565.827,958.5
565.962,966.4
566.096,973.5
566.231,975.7
566.365,973.2
566.5,959.4
566.634,954.6
566.769,946.9
566.903,942.1
567.038,933.1
567.172,936.9
567.307,937.4
567.441,937.2
567.576,937.0
567.71,937.5
567.845,944.5
567.979,944.0
568.114,945.4
568.248,943.1
568.383,942.5
568.517,945.6
568.652,939.4
568.786,943.7
568.92,945.0
569.055,942.6
569.189,945.6
569.324,942.1
569.458,944.9
569.592,941.3
569.727,945.7
569.861,942.4
569.996,941.8
570.13,939.2
570.264,943.5
570.399,941.6
570.533,942.7
570.667,946.9
570.802,944.7
570.936,944.5
571.07,944.9
571.205,947.0
571.339,948.7
571.473,960.6
571.607,965.2
571.742,967.7
571.876,962.3
572.01,959.9
572.144,958.3
572.279,956.5
572.413,954.7
572.547,957.8
572.681,957.7
572.816,959.0
572.95,959.3
573.084,960.6
573.218,959.7
573.353,960.2
573.487,956.5
573.621,957.7
573.755,961.7
573.889,956.3
574.023,959.1
574.158,954.8
574.292,956.7
574.426,968.4
574.56,962.5
574.694,967.0
574.828,954.4
574.963,955.0
575.097,953.1
575.231,951.8
575.365,950.0
575.499,949.8
575.633,952.3
575.767,952.9
575.901,951.9
576.035,953.8
576.169,957.5
576.303,964.2
576.438,977.1
576.572,999.1
576.706,1009.7
576.84,1017.7
576.974,1009.3
577.108,997.2
577.242,984.5
577.376,967.7
577.51,962.2
577.644,952.7
577.778,957.0
577.912,953.1
578.046,952.9
578.18,950.1
578.314,951.9
578.448,953.1
578.582,949.5
578.716,950.8
578.85,952.0
578.984,948.3
579.117,950.9
579.251,952.9
579.385,950.3
579.519,947.3
579.653,954.2
579.787,957.5
579.921,949.1
580.055,956.4
580.189,949.8
580.323,952.1
580.456,949.0
580.59,952.6
580.724,954.2
580.858,952.1
580.992,949.7
581.126,951.6
581.26,947.1
581.393,950.3
581.527,948.9
581.661,954.0
581.795,952.5
581.929,956.0
582.063,954.7
582.196,951.1
582.33,956.8
582.464,949.8
582.598,955.1
582.731,951.9
582.865,958.2
582.999,955.1
583.133,954.5
583.267,953.8
583.4,954.9
583.534,956.2
583.668,954.2
583.801,953.3
583.935,956.8
584.069,953.7
584.203,955.6
584.336,958.7
584.47,955.2
584.604,951.7
584.737,950.0
584.871,952.6
585.005,955.8
585.138,954.1
585.272,957.7
585.406,955.2
585.539,955.4
585.673,957.2
585.807,956.9
585.94,955.0
586.074,957.6
586.208,957.5
586.341,963.9
586.475,966.3
586.608,974.8
586.742,979.8
586.876,993.5
587.009,997.9
587.143,997.1
587.276,1003.1
587.41,1003.8
587.543,1011.2
587.677,1011.1
587.811,999.3
587.944,988.3
588.078,974.8
588.211,970.4
588.345,958.6
588.478,956.9
588.612,957.7
588.745,955.5
588.879,957.8
589.012,954.8
589.146,956.6
589.279,956.7
589.413,958.0
589.546,954.3
589.68,955.0
589.813,954.2
589.947,954.5
590.08,952.9
590.214,956.7
590.347,956.6
590.48,954.7
590.614,961.4
590.747,949.6
590.881,954.2
591.014,952.9
591.148,952.8
591.281,956.1
591.414,957.1
591.548,949.6
591.681,958.4
591.815,954.2
591.948,953.9
592.081,957.5
592.215,954.6
592.348,955.9
592.481,949.1
592.615,953.2
592.748,955.5
592.881,952.1
593.015,950.6
593.148,953.7
593.281,953.7
593.415,953.3
593.548,953.6
593.681,959.5
593.815,955.3
593.948,954.0
594.081,956.2
594.215,951.5
594.348,957.2
594.481,960.0
594.614,952.6
594.748,958.4
594.881,950.1
595.014,955.0
595.147,953.3
595.281,955.7
595.414,954.6
595.547,954.3
595.68,953.5
595.814,953.7
595.947,956.4
596.08,957.4
596.213,956.7
596.347,954.6
596.48,955.8
596.613,954.6
596.746,956.1
596.879,955.6
597.012,957.0
597.146,954.1
597.279,957.6
597.412,957.0
597.545,957.4
597.678,954.2
597.811,958.3
597.945,959.3
598.078,960.2
598.211,961.2
598.344,956.5
598.477,955.7
598.61,954.4
598.743,958.1
598.876,959.3
599.009,957.8
599.143,956.7
599.276,955.1
599.409,963.9
599.542,954.7
599.675,952.2
599.808,952.6
599.941,956.4
600.074,960.2
600.207,958.8
600.34,955.5
600.473,954.6
600.606,956.2
600.739,955.4
600.872,956.7
601.005,956.8
601.138,955.9
601.271,953.1
601.404,959.4
601.537,957.5
601.67,956.6
601.803,954.5
601.936,954.3
602.069,959.3
602.202,954.7
602.335,958.9
602.468,954.4
602.601,959.2
602.734,956.6
602.867,953.7
603.0,957.4
603.133,954.0
603.266,956.8
603.399,956.6
603.532,952.5
603.665,955.2
603.798,955.5
603.931,954.3
604.064,956.9
604.196,960.6
604.329,954.9
604.462,955.7
604.595,953.0
604.728,953.6
604.861,954.7
604.994,955.5
605.127,951.2
605.259,953.2
605.392,953.3
605.525,952.1
605.658,952.9
605.791,950.5
605.924,952.4
606.057,951.8
606.189,945.1
606.322,946.8
606.455,949.9
606.588,945.8
606.721,953.6
606.853,947.4
606.986,951.6
607.119,951.9
607.252,951.1
607.385,951.0
607.517,953.2
607.65,953.5
607.783,952.2
607.916,949.1
608.049,958.1
608.181,950.8
608.314,953.2
608.447,955.4
608.58,949.0
608.712,954.8
608.845,952.4
608.978,951.0
609.111,951.6
609.243,953.7
609.376,953.4
609.509,953.5
609.641,953.6
609.774,951.3
609.907,951.3
610.039,951.0
610.172,951.2
610.305,955.1
610.438,953.5
610.57,949.3
610.703,950.6
610.836,951.4
610.968,951.2
611.101,951.4
611.234,948.4
611.366,951.6
611.499,947.1
611.631,954.8
611.764,953.4
611.897,950.5
612.029,951.4
612.162,950.7
612.295,948.2
612.427,952.1
612.56,958.3
612.692,953.5
612.825,953.5
612.958,956.0
613.09,952.2
613.223,954.0
613.355,954.2
613.488,953.6
613.621,954.8
613.753,958.2
613.886,954.2
614.018,955.8
614.151,955.4
614.283,953.2
614.416,956.1
614.548,955.6
614.681,960.4
614.814,951.6
614.946,957.3
615.079,960.5
615.211,952.3
615.344,952.9
615.476,952.1
615.609,956.0
615.741,952.3
615.874,951.0
616.006,955.1
616.139,957.9
616.271,957.3
616.404,954.7
616.536,955.5
616.669,955.8
616.801,954.6
616.933,955.1
617.066,957.1
617.198,954.9
617.331,954.8
617.463,951.7
617.596,956.9
617.728,951.4
617.861,950.8
617.993,955.9
618.125,953.6
618.258,951.2
618.39,951.8
618.523,955.8
618.655,957.5
618.788,956.2
618.92,956.2
619.052,954.8
619.185,954.8
619.317,954.1
619.45,957.6
619.582,960.0
619.714,951.5
619.847,955.3
619.979,954.0
620.111,953.1
620.244,950.7
620.376,952.1
620.509,950.4
620.641,949.8
620.773,954.4
620.906,956.3
621.038,952.5
621.17,955.9
621.303,953.0
621.435,955.8
621.567,951.0
621.7,950.2
621.832,952.7
621.964,952.8
622.096,951.0
622.229,956.3
622.361,957.1
622.493,961.3
622.626,959.5
622.758,965.0
622.89,962.7
623.022,964.2
623.155,966.6
623.287,966.3
623.419,965.1
623.552,961.0
623.684,959.4
623.816,961.8
623.948,959.7
624.081,958.0
624.213,960.0
624.345,957.7
624.477,956.2
624.61,954.6
624.742,955.7
624.874,948.9
625.006,953.5
625.138,954.7
625.271,952.5
625.403,955.1
625.535,955.2
625.667,951.7
625.799,950.9
625.932,952.2
626.064,950.4
626.196,955.1
626.328,955.4
626.46,952.7
626.593,954.7
626.725,952.6
626.857,951.0
626.989,947.4
627.121,950.5
627.253,955.2
627.386,952.6
627.518,957.9
627.65,954.7
627.782,954.7
627.914,961.7
628.046,964.3
628.178,977.3
628.311,993.5
628.443,1011.0
628.575,1016.5
628.707,1009.8
628.839,1002.2
628.971,996.0
629.103,995.4
629.235,994.1
629.367,994.2
629.5,996.3
629.632,998.2
629.764,996.7
629.896,1001.0
630.028,999.8
630.16,1002.1
630.292,1009.4
630.424,1028.3
630.556,1045.9
630.688,1081.8
630.82,1151.6
630.952,1244.5
631.084,1315.3
631.216,1325.8
631.349,1279.6
631.481,1204.9
631.613,1138.7
631.745,1093.6
631.877,1067.6
632.009,1053.2
632.141,1048.6
632.273,1042.1
632.405,1031.5
632.537,1031.1
632.669,1036.4
632.801,1038.6
632.933,1056.4
633.065,1082.1
633.197,1097.9
633.329,1093.5
633.461,1093.2
633.593,1081.7
633.725,1074.9
633.857,1055.2
633.989,1026.0
634.121,1017.7
634.253,1003.0
634.385,989.3
634.517,977.6
634.649,965.2
634.781,962.3
634.912,956.7
635.044,957.7
635.176,953.5
635.308,954.2
635.44,952.1
635.572,953.9
635.704,949.9
635.836,948.5
635.968,947.5
636.1,946.2
636.232,950.3
636.364,948.3
636.496,945.0
636.628,945.6
636.76,948.5
636.891,944.6
637.023,944.9
637.155,944.1
637.287,944.0
637.419,943.6
637.551,942.8
637.683,941.1
637.815,942.9
637.947,941.3
638.078,942.6
638.21,939.7
638.342,941.5
638.474,938.6
638.606,943.0
638.738,938.6
638.87,942.1
639.002,943.7
639.133,942.7
639.265,941.6
639.397,939.7
639.529,938.6
639.661,940.8
639.793,941.2
639.924,938.1
640.056,943.0
640.188,940.8
640.32,940.2
640.452,940.2
640.584,938.0
640.715,938.7
640.847,938.5
640.979,940.2
641.111,941.4
641.243,941.0
641.374,936.5
641.506,943.1
641.638,943.3
641.77,937.1
641.902,939.6
642.033,939.6
642.165,941.2
642.297,937.9
642.429,937.6
642.561,941.2
642.692,935.3
642.824,936.8
642.956,935.2
643.088,937.6
643.219,936.5
643.351,934.0
643.483,931.8
643.615,937.4
643.746,933.0
643.878,931.7
644.01,932.3
644.142,932.6
644.273,931.3
644.405,934.0
644.537,932.9
644.669,930.6
644.8,932.9
644.932,930.5
645.064,927.8
645.195,932.5
645.327,929.2
645.459,928.4
645.591,926.3
645.722,930.4
645.854,928.7
645.986,929.2
646.117,928.4
646.249,927.8
646.381,932.0
646.512,931.4
646.644,927.6
646.776,929.2
646.908,928.8
647.039,928.4
647.171,926.9
647.303,930.7
647.434,931.0
647.566,928.4
647.698,926.9
647.829,928.2
647.961,928.1
648.093,929.1
648.224,931.2
648.356,924.3
648.488,927.8
648.619,925.2
648.751,929.8
648.883,927.0
649.014,924.6
649.146,925.4
649.277,927.2
649.409,928.4
649.541,923.0
649.672,925.8
649.804,926.6
649.936,928.9
650.067,925.7
650.199,922.2
650.33,925.7
650.462,925.1
650.594,923.1
650.725,925.9
650.857,924.8
650.988,924.4
651.12,923.3
651.252,926.4
651.383,921.7
651.515,922.9
651.646,924.0
651.778,923.9
651.91,920.2
652.041,922.8
652.173,921.2
652.304,922.5
652.436,922.5
652.568,921.3
652.699,926.0
652.831,922.2
652.962,922.9
653.094,924.3
653.225,921.5
653.357,918.0
653.489,922.1
653.62,924.0
653.752,924.6
653.883,921.6
654.015,919.6
654.146,924.4
654.278,924.1
654.409,920.7
654.541,921.3
654.672,919.6
654.804,922.0
654.935,921.0
655.067,920.8
655.199,919.4
655.33,921.5
655.462,919.8
655.593,919.4
655.725,920.6
655.856,920.9
655.988,918.1
656.119,919.8
656.251,917.8
656.382,920.7
656.514,921.2
656.645,918.8
656.777,919.9
656.908,922.4
657.04,919.6
657.171,917.6
657.303,916.9
657.434,918.1
657.566,919.7
657.697,919.2
657.829,916.3
657.96,920.2
658.092,919.8
658.223,918.0
658.355,917.9
658.486,918.4
658.617,916.5
658.749,921.8
658.88,919.5
659.012,917.5
659.143,914.6
659.275,920.1
659.406,919.0
659.538,915.1
659.669,915.9
659.801,916.4
659.932,917.8
660.064,918.1
660.195,918.4
660.326,915.4
660.458,919.1
660.589,914.1
660.721,915.0
660.852,914.1
660.984,913.0
661.115,917.8
661.246,914.7
661.378,915.0
661.509,914.6
661.641,915.1
661.772,914.0
661.904,913.0
662.035,915.1
662.166,913.0
662.298,919.0
662.429,915.9
662.561,912.7
662.692,914.7
662.823,913.6
662.955,913.7
663.086,911.7