File: spectra/VLFR_08-PLA_nobio_Raman_73e0efda.csv
cm-1,Intensity
-123.878,1855.45
-117.855,1855.25
-111.836,1854.95
-105.821,1855.55
-99.8104,1857.45
-93.8036,1856.5
-87.8007,1856.35
-81.8019,1855.25
-75.807,1855.75
-69.8161,1857.0
-63.8293,1854.8
-57.8464,1856.65
-51.8675,1855.9
-45.8926,1857.6
-39.9216,1856.1
-33.9547,1857.0
-27.9917,1858.55
-22.0326,1862.4
-16.0776,1895.95
-10.1265,2376.55
-4.17932,3647.75
1.76388,3212.35
7.70313,1972.7
13.6384,1860.3
19.5698,1858.25
25.4972,1857.05
31.4207,1856.7
37.3403,1858.9
43.256,1859.45
49.1677,1884.0
55.0755,2048.65
60.9794,2337.9
66.8794,2493.45
72.7754,2517.7
78.6676,2469.0
84.5559,2410.65
90.4402,2388.9
96.3207,2390.1
102.197,2355.7
108.07,2351.0
113.939,2319.95
119.804,2315.95
125.665,2292.25
131.522,2260.15
137.375,2264.3
143.225,2273.05
149.07,2287.9
154.912,2299.45
160.75,2290.8
166.584,2271.0
172.414,2253.05
178.241,2245.5
184.063,2259.25
189.882,2267.5
195.697,2267.25
201.508,2268.4
207.315,2247.15
213.119,2233.3
218.918,2229.8
224.714,2238.65
230.506,2242.35
236.294,2254.25
242.078,2257.95
247.859,2268.45
253.636,2250.35
259.409,2234.75
265.178,2211.45
270.943,2222.25
276.705,2237.0
282.463,2248.75
288.217,2274.9
293.967,2289.4
299.713,2290.15
305.456,2290.05
311.195,2279.85
316.93,2283.8
322.662,2291.15
328.389,2276.7
334.113,2249.85
339.834,2267.7
345.55,2261.7
351.263,2259.9
356.972,2265.3
362.677,2272.5
368.379,2277.1
374.077,2292.5
379.771,2320.85
385.461,2323.15
391.148,2354.65
396.831,2363.75
402.51,2371.3
408.186,2377.65
413.858,2356.55
419.526,2315.95
425.19,2282.1
430.851,2265.3
436.508,2272.4
442.162,2270.75
447.811,2273.65
453.458,2257.15
459.1,2266.9
464.739,2254.7
470.374,2264.8
476.005,2257.2
481.633,2265.85
487.257,2252.35
492.878,2268.9
498.494,2250.0
504.107,2271.8
509.717,2274.35
515.323,2275.5
520.925,2277.55
526.524,2275.8
532.119,2292.0
537.71,2274.55
543.298,2293.2
548.882,2288.5
554.462,2282.15
560.039,2282.75
565.613,2284.65
571.182,2300.4
576.748,2302.65
582.311,2304.8
587.87,2301.75
593.425,2295.1
598.977,2321.4
604.525,2303.1
610.069,2298.1
615.61,2294.0
621.148,2309.25
626.682,2332.25
632.212,2322.75
637.739,2320.45
643.262,2328.35
648.781,2351.75
654.297,2338.4
659.81,2356.75
665.319,2361.65
670.824,2369.55
676.326,2365.95
681.824,2358.0
687.319,2360.15
692.81,2352.35
698.298,2352.25
703.782,2364.6
709.262,2350.3
714.739,2354.0
720.213,2341.45
725.683,2355.2
731.15,2368.5
736.613,2373.8
742.072,2390.55
747.528,2387.9
752.981,2360.65
758.43,2370.05
763.875,2363.05
769.317,2363.05
774.756,2347.7
780.191,2353.6
785.623,2341.8
791.051,2329.5
796.475,2341.8
801.897,2336.5
807.314,2340.55
812.729,2354.4
818.139,2343.45
823.547,2348.3
828.951,2348.7
834.351,2360.05
839.748,2372.35
845.142,2396.1
850.532,2433.2
855.918,2482.8
861.302,2598.35
866.681,2775.65
872.058,2851.8
877.431,2816.15
882.8,2629.35
888.166,2496.95
893.529,2467.95
898.888,2423.75
904.244,2413.65
909.596,2429.95
914.945,2428.8
920.291,2412.3
925.633,2395.0
930.972,2403.95
936.308,2403.15
941.64,2399.8
946.968,2403.7
952.294,2385.45
957.615,2395.1
962.934,2386.6
968.249,2406.3
973.561,2384.6
978.869,2399.45
984.174,2383.95
989.476,2395.6
994.774,2411.05
1000.07,2396.15
1005.36,2393.05
1010.65,2411.2
1015.93,2423.55
1021.22,2449.6
1026.49,2459.7
1031.77,2484.05
1037.04,2502.9
1042.31,2547.2
1047.57,2545.35
1052.83,2502.2
1058.09,2489.6
1063.35,2445.8
1068.6,2451.15
1073.85,2453.1
1079.09,2460.65
1084.33,2489.8
1089.57,2501.7
1094.81,2545.3
1100.04,2525.85
1105.27,2524.25
1110.49,2510.65
1115.71,2570.4
1120.93,2579.75
1126.15,2601.45
1131.36,2589.6
1136.57,2544.95
1141.77,2499.55
1146.98,2460.9
1152.18,2441.05
1157.37,2445.25
1162.56,2429.75
1167.75,2454.7
1172.94,2449.2
1178.12,2466.8
1183.3,2472.3
1188.48,2473.75
1193.65,2448.05
1198.82,2458.45
1203.99,2467.2
1209.15,2459.8
1214.31,2458.5
1219.46,2453.45
1224.62,2484.25
1229.77,2448.1
1234.92,2455.9
1240.06,2465.4
1245.2,2461.4
1250.34,2461.15
1255.47,2462.3
1260.6,2458.8
1265.73,2477.1
1270.85,2480.3
1275.97,2471.75
1281.09,2491.45
1286.21,2507.05
1291.32,2571.3
1296.43,2572.65
1301.53,2574.8
1306.63,2578.65
1311.73,2549.4
1316.83,2521.05
1321.92,2519.6
1327.01,2538.1
1332.1,2538.25
1337.18,2533.4
1342.26,2539.9
1347.34,2555.25
1352.41,2554.5
1357.48,2540.1
1362.55,2521.9
1367.61,2550.7
1372.67,2503.25
1377.73,2528.15
1382.78,2554.05
1387.84,2566.75
1392.88,2528.05
1397.93,2484.8
1402.97,2497.1
1408.01,2485.6
1413.05,2474.75
1418.08,2481.8
1423.11,2482.6
1428.14,2518.35
1433.16,2524.55
1438.18,2576.85
1443.2,2648.25
1448.21,2724.95
1453.22,2737.75
1458.23,2721.95
1463.23,2689.25
1468.23,2603.15
1473.23,2556.15
1478.23,2535.1
1483.22,2498.95
1488.21,2504.0
1493.2,2487.9
1498.18,2475.8
1503.16,2479.15
1508.14,2486.2
1513.11,2493.6
1518.08,2477.2
1523.05,2504.4
1528.01,2483.95
1532.97,2485.85
1537.93,2486.45
1542.89,2490.5
1547.84,2499.95
1552.79,2488.25
1557.73,2481.45
1562.68,2500.2
1567.62,2498.3
1572.56,2483.8
1577.49,2520.95
1582.42,2509.2
1587.35,2488.85
1592.27,2509.4
1597.19,2498.25
1602.11,2509.8
1607.03,2494.25
1611.94,2504.75
1616.85,2496.25
1621.76,2509.55
1626.66,2509.35
1631.56,2512.55
1636.46,2502.2
1641.36,2483.35
1646.25,2514.45
1651.14,2521.65
1656.02,2494.5
1660.9,2511.2
1665.78,2503.05
1670.66,2503.3
1675.54,2517.8
1680.41,2508.1
1685.27,2507.15
1690.14,2498.9
1695.0,2503.15
1699.86,2499.7
1704.71,2510.65
1709.57,2509.75
1714.42,2499.8
1719.26,2523.65
1724.11,2519.5
1728.95,2530.1
1733.79,2519.5
1738.62,2574.8
1743.46,2577.7
1748.28,2652.6
1753.11,2688.5
1757.93,2719.15
1762.75,2725.9
1767.57,2781.6
1772.39,2795.8
1777.2,2722.7
1782.01,2690.75
1786.81,2607.05
1791.62,2551.85
1796.41,2545.65
1801.21,2523.3
1806.01,2515.25
1810.8,2531.45
1815.59,2532.65
1820.37,2522.55
1825.15,2508.25
1829.93,2509.1
1834.71,2509.25
1839.48,2511.85
1844.25,2513.65
1849.02,2512.3
1853.79,2491.25
1858.55,2517.25
1863.31,2511.35
1868.06,2505.95
1872.82,2518.2
1877.57,2507.75
1882.31,2496.15
1887.06,2528.8
1891.8,2495.15
1896.54,2510.65
1901.28,2521.05
1906.01,2500.2
1910.74,2521.6
1915.47,2511.6
1920.19,2508.35
1924.91,2525.05
1929.63,2513.0
1934.35,2484.45
1939.06,2508.8
1943.77,2503.95
1948.48,2501.75
1953.19,2519.05
1957.89,2508.75
1962.59,2501.6
1967.28,2512.6
1971.98,2499.75
1976.67,2503.5
1981.35,2507.2
1986.04,2522.8
1990.72,2491.7
1995.4,2522.8
2000.08,2516.2
2004.75,2532.6
2009.42,2520.4
2014.09,2494.85
2018.75,2496.4
2023.42,2522.35
2028.08,2518.95
2032.73,2512.35
2037.39,2501.65
2042.04,2517.75
2046.69,2507.95
2051.33,2533.65
2055.97,2520.3
2060.61,2520.1
2065.25,2514.35
2069.88,2517.45
2074.52,2504.8
2079.15,2517.5
2083.77,2515.35
2088.39,2508.5
2093.01,2515.5
2097.63,2505.05
2102.25,2522.85
2106.86,2511.35
2111.47,2500.7
2116.08,2503.3
2120.68,2504.9
2125.28,2514.9
2129.88,2503.65
2134.47,2506.25
2139.07,2504.75
2143.66,2498.15
2148.24,2505.65
2152.83,2515.65
2157.41,2518.75
2161.99,2503.95
2166.57,2480.8
2171.14,2498.8
2175.71,2508.85
2180.28,2495.5
2184.84,2507.2
2189.41,2509.05
2193.97,2504.1
2198.52,2494.7
2203.08,2501.2
2207.63,2490.0
2212.18,2512.1
2216.73,2496.9
2221.27,2489.0
2225.81,2498.6
2230.35,2485.95
2234.89,2513.8
2239.42,2501.35
2243.95,2506.5
2248.48,2488.05
2253.0,2482.9
2257.52,2499.7
2262.04,2488.85
2266.56,2498.95
2271.07,2483.55
2275.58,2493.85
2280.09,2481.0
2284.6,2486.1
2289.1,2486.5
2293.6,2483.75
2298.1,2471.05
2302.6,2507.0
2307.09,2473.0
2311.58,2481.55
2316.07,2498.0
2320.55,2495.9
2325.03,2474.3
2329.51,2487.85
2333.99,2477.4
2338.46,2490.15
2342.93,2478.0
2347.4,2471.55
2351.87,2495.5
2356.33,2474.4
2360.79,2472.45
2365.25,2464.65
2369.71,2483.3
2374.16,2467.4
2378.61,2483.15
2383.06,2489.35
2387.5,2476.15
2391.94,2465.45
2396.38,2469.25
2400.82,2480.9
2405.26,2480.45
2409.69,2473.85
2414.12,2471.8
2418.54,2465.65
2422.97,2479.0
2427.39,2477.0
2431.81,2465.35
2436.22,2463.05
2440.64,2467.6
2445.05,2466.3
2449.46,2473.3
2453.86,2458.9
2458.27,2460.25
2462.67,2467.1
2467.06,2459.95
2471.46,2456.2
2475.85,2462.0
2480.24,2468.15
2484.63,2457.75
2489.02,2457.8
2493.4,2449.85
2497.78,2463.1
2502.16,2459.9
2506.53,2444.4
2510.9,2451.8
2515.27,2460.45
2519.64,2477.6
2524.0,2454.7
2528.37,2455.5
2532.73,2461.95
2537.08,2433.7
2541.44,2462.45
2545.79,2458.0
2550.14,2460.2
2554.48,2444.85
2558.83,2460.0
2563.17,2454.65
2567.51,2432.85
2571.85,2470.8
2576.18,2468.65
2580.51,2440.35
2584.84,2440.35
2589.17,2442.85
2593.49,2434.8
2597.81,2458.85
2602.13,2445.2
2606.45,2449.1
2610.76,2444.6
2615.07,2449.15
2619.38,2419.65
2623.69,2437.6
2627.99,2452.1
2632.29,2445.2
2636.59,2436.15
2640.89,2441.75
2645.18,2441.55
2649.47,2441.5
2653.76,2441.3
2658.05,2449.8
2662.33,2433.75
2666.61,2450.55
2670.89,2435.75
2675.17,2431.7
2679.44,2447.0
2683.71,2454.25
2687.98,2418.1
2692.25,2423.45
2696.51,2440.1
2700.77,2443.6
2705.03,2435.55
2709.29,2438.4
2713.54,2443.05
2717.79,2440.5
2722.04,2451.1
2726.29,2454.3
2730.53,2467.5
2734.77,2476.9
2739.01,2484.0
2743.25,2485.3
2747.48,2481.7
2751.71,2475.95
2755.94,2462.35
2760.17,2466.3
2764.39,2463.25
2768.61,2449.85
2772.83,2438.3
2777.05,2415.15
2781.27,2443.75
2785.48,2434.9
2789.69,2431.8
2793.89,2416.85
2798.1,2434.55
2802.3,2414.8
2806.5,2429.95
2810.7,2406.9
2814.89,2410.8
2819.09,2414.55
2823.28,2420.3
2827.46,2429.25
2831.65,2422.6
2835.83,2421.3
2840.01,2438.6
2844.19,2422.95
2848.37,2414.1
2852.54,2428.65
2856.71,2444.7
2860.88,2449.6
2865.05,2468.35
2869.21,2534.85
2873.37,2625.3
2877.53,2704.6
2881.69,2714.9
2885.84,2710.15
2889.99,2678.2
2894.14,2679.4
2898.29,2649.4
2902.43,2645.0
2906.58,2669.4
2910.72,2671.85
2914.85,2660.6
2918.99,2690.65
2923.12,2736.5
2927.25,2802.65
2931.38,2974.0
2935.5,3315.05
2939.63,3850.3
2943.75,4301.9
2947.87,4373.75
2951.98,4022.9
2956.1,3657.45
2960.21,3286.4
2964.32,3107.9
2968.42,2980.1
2972.53,2927.05
2976.63,2869.85
2980.73,2883.1
2984.83,2865.7
2988.92,2934.15
2993.01,3098.45
2997.1,3225.7
3001.19,3229.1
3005.28,3207.85
3009.36,3121.25
3013.44,2989.4
3017.52,2863.1
3021.6,2735.2
3025.67,2643.35
3029.74,2579.95
3033.81,2517.4
3037.88,2485.05
3041.94,2451.4
3046.01,2440.95
3050.07,2414.95
3054.12,2392.2
3058.18,2404.65
3062.23,2401.25
3066.28,2395.6
3070.33,2384.45
3074.38,2373.95
3078.42,2374.7
3082.46,2375.65
3086.5,2378.85
3090.54,2380.6
3094.57,2358.05
3098.6,2358.55
3102.63,2374.75
3106.66,2342.55
3110.69,2355.95
3114.71,2366.3
3118.73,2358.2
3122.75,2355.5
3126.77,2345.95
3130.78,2353.0
3134.79,2368.55
3138.8,2340.75
3142.81,2353.1
3146.81,2351.6
3150.82,2338.65
3154.82,2332.1
3158.81,2354.2
3162.81,2343.05
3166.8,2341.45
3170.79,2345.9
3174.78,2351.9
3178.77,2338.95
3182.75,2333.05
3186.74,2341.1
3190.72,2324.75
3194.69,2321.4
3198.67,2348.85
3202.64,2345.45
3206.61,2336.25
3210.58,2330.2
3214.55,2327.6
3218.51,2348.2
3222.47,2319.75
3226.43,2337.9
3230.39,2354.2
3234.35,2327.05
3238.3,2328.25
3242.25,2317.1
3246.2,2336.1
3250.15,2310.85
3254.09,2319.5
3258.03,2315.95
3261.97,2301.9
3265.91,2308.0
3269.84,2314.95
3273.78,2294.3
3277.71,2304.15
3281.64,2305.75
3285.56,2289.35
3289.49,2314.05
3293.41,2307.35
3297.33,2310.75
3301.25,2288.35
3305.16,2295.4
3309.07,2293.8
3312.99,2284.5
3316.89,2281.15
3320.8,2292.55
3324.7,2284.95
3328.61,2280.4
3332.51,2285.05
3336.4,2277.6
3340.3,2282.65
3344.19,2293.5
3348.08,2272.95
3351.97,2274.8
3355.86,2281.7
3359.74,2282.3
3363.63,2278.25
3367.51,2257.2
3371.39,2253.7
3375.26,2263.85
3379.13,2266.75
3383.01,2257.15
3386.88,2265.8
3390.74,2263.05
3394.61,2243.85
3398.47,2247.8
3402.33,2266.55
3406.19,2262.2
3410.05,2253.2
3413.9,2261.55
3417.75,2261.65
3421.6,2245.35
3425.45,2253.65
3429.3,2252.45
3433.14,2253.6
3436.98,2237.8
3440.82,2245.55
3444.66,2239.45
3448.49,2245.7
3452.32,2238.3
3456.15,2223.5
3459.98,2241.85
3463.81,2242.25
3467.63,2243.8
3471.46,2226.2
3475.28,2243.15
3479.09,2231.3
3482.91,2224.35
3486.72,2214.25
3490.53,2221.2
3494.34,2221.5
3498.15,2222.35
3501.96,2217.85
3505.76,2220.2
3509.56,2224.3
3513.36,2207.65
3517.15,2208.0
3520.95,2204.35
3524.74,2205.6
3528.53,2208.1
3532.32,2206.45
3536.11,2190.0
3539.89,2216.3
3543.67,2195.15
3547.45,2196.2
3551.23,2202.3
3555.0,2200.65
3558.78,2189.6
3562.55,2197.45
3566.32,2201.85
3570.09,2189.1
3573.85,2186.55
3577.61,2192.05
3581.37,2195.7
3585.13,2179.3
3588.89,2182.05
3592.64,2175.45
3596.4,2188.3
3600.15,2170.7
3603.9,2174.5
3607.64,2169.65
3611.39,2167.65
3615.13,2179.35
3618.87,2176.3
3622.61,2163.7
3626.34,2166.95
3630.08,2170.55
3633.81,2170.55
3637.54,2166.65
3641.27,2145.6
3644.99,2157.75
3648.72,2159.15
3652.44,2153.35
3656.16,2160.7
3659.87,2161.55
3663.59,2158.2
3665.45,2154.3