File: spectra/VLFR_06-PET_bio_Raman_9468c16d.csv
nm,Intensity
528.626,1865.2
528.795,1866.6
528.963,1865.1
529.132,1867.0
529.3,1865.5
529.469,1866.4
529.637,1866.3
529.806,1868.5
529.974,1865.0
530.143,1867.4
530.311,1865.4
530.48,1865.7
530.648,1866.8
530.816,1867.3
530.985,1868.5
531.153,1869.7
531.322,1871.4
531.49,1878.0
531.658,1925.5
531.827,2663.8
531.995,5720.3
532.164,4897.7
532.332,2263.0
532.5,1878.4
532.669,1873.7
532.837,1872.4
533.006,1875.4
533.174,1882.3
533.342,1912.1
533.511,2161.7
533.679,3631.2
533.847,6483.2
534.016,8374.1
534.184,8351.5
534.352,7738.7
534.521,7195.4
534.689,6582.2
534.857,6179.6
535.025,5603.9
535.194,5147.6
535.362,4726.4
535.53,4398.3
535.699,4022.4
535.867,3752.4
536.035,3489.3
536.203,3382.5
536.372,3217.7
536.54,3131.7
536.708,3071.9
536.876,3031.6
537.044,2963.1
537.213,2984.3
537.381,2952.7
537.549,2972.0
537.717,2959.8
537.885,2907.6
538.054,2967.5
538.222,2976.9
538.39,2982.9
538.558,2989.8
538.726,2971.6
538.894,2945.9
539.063,2987.1
539.231,3005.4
539.399,3044.0
539.567,3170.7
539.735,3170.6
539.903,3142.0
540.071,3088.6
540.239,3048.3
540.408,2940.0
540.576,2921.4
540.744,2899.1
540.912,2845.5
541.08,2842.0
541.248,2808.8
541.416,2793.6
541.584,2783.9
541.752,2804.2
541.92,2803.3
542.088,2802.9
542.256,2853.4
542.424,2817.9
542.592,2820.5
542.76,2838.3
542.928,2821.0
543.096,2806.9
543.264,2831.0
543.432,2821.6
543.6,2825.2
543.768,2883.3
543.936,2897.5
544.104,2871.6
544.272,2863.2
544.44,2846.1
544.608,2872.5
544.776,2869.5
544.944,2889.0
545.112,2890.1
545.28,2876.1
545.448,2879.7
545.616,2873.0
545.784,2877.8
545.951,2887.4
546.119,2874.8
546.287,2894.0
546.455,2905.6
546.623,2922.3
546.791,2909.5
546.959,2880.8
547.127,2906.5
547.294,2942.3
547.462,2953.0
547.63,2922.1
547.798,2934.7
547.966,2910.1
548.134,2927.1
548.301,2930.9
548.469,2962.1
548.637,2957.9
548.805,2965.5
548.972,2958.7
549.14,2923.6
549.308,2939.9
549.476,2929.6
549.644,2943.7
549.811,2976.9
549.979,2981.2
550.147,2969.3
550.315,3097.0
550.482,3572.9
550.65,3996.5
550.818,3577.3
550.985,3091.1
551.153,3055.5
551.321,3038.5
551.488,3029.1
551.656,3035.4
551.824,3048.9
551.991,3075.8
552.159,3085.9
552.327,3044.6
552.494,3126.1
552.662,3327.9
552.83,3464.4
552.997,3308.9
553.165,3147.0
553.333,3096.9
553.5,3122.4
553.668,3126.2
553.835,3114.2
554.003,3097.0
554.171,3122.1
554.338,3150.2
554.506,3149.2
554.673,3135.2
554.841,3171.6
555.008,3199.5
555.176,3233.3
555.343,3387.5
555.511,3586.1
555.679,3668.6
555.846,3599.7
556.014,3612.7
556.181,3649.9
556.349,3645.5
556.516,3732.4
556.684,3781.9
556.851,3730.5
557.018,3915.1
557.186,4160.4
557.353,4555.6
557.521,4905.1
557.688,4641.9
557.856,4207.4
558.023,3916.9
558.191,3874.6
558.358,3888.2
558.525,3862.7
558.693,3792.7
558.86,3710.5
559.028,3557.9
559.195,3459.0
559.362,3379.1
559.53,3365.8
559.697,3389.4
559.864,3372.7
560.032,3367.9
560.199,3346.7
560.366,3358.4
560.534,3386.6
560.701,3370.2
560.868,3423.3
561.036,3469.5
561.203,3432.7
561.37,3459.1
561.538,3448.1
561.705,3508.4
561.872,3535.7
562.039,3622.7
562.207,3626.0
562.374,3618.3
562.541,3628.6
562.708,3687.9
562.876,3720.0
563.043,3709.4
563.21,3697.1
563.377,3694.1
563.545,3639.5
563.712,3666.5
563.879,3586.8
564.046,3567.7
564.213,3612.9
564.38,3697.9
564.548,3753.7
564.715,3790.2
564.882,3926.3
565.049,4161.2
565.216,4320.0
565.383,4441.7
565.551,4597.6
565.718,4706.3
565.885,4675.0
566.052,4538.9
566.219,4233.0
566.386,4000.3
566.553,3895.1
566.72,3808.0
566.887,3776.8
567.054,3751.5
567.221,3855.5
567.388,3999.8
567.555,4254.1
567.722,4319.9
567.889,4190.8
568.057,3935.4
568.224,3858.3
568.391,3794.2
568.558,3812.6
568.725,3841.3
568.892,3807.1
569.058,3805.2
569.225,3832.4
569.392,3885.3
569.559,3920.6
569.726,4046.8
569.893,4148.4
570.06,4223.2
570.227,4285.6
570.394,4561.4
570.561,4919.5
570.728,5244.3
570.895,5517.9
571.062,5885.5
571.229,6333.8
571.395,6416.2
571.562,5971.1
571.729,5376.4
571.896,5163.3
572.063,5048.1
572.23,4629.3
572.397,4362.1
572.563,4227.6
572.73,4180.8
572.897,4135.6
573.064,4133.0
573.231,4087.5
573.397,4091.4
573.564,4135.8
573.731,4172.2
573.898,4195.1
574.064,4276.9
574.231,4232.9
574.398,4181.7
574.565,4172.1
574.731,4191.6
574.898,4278.5
575.065,4375.2
575.232,4479.0
575.398,4563.5
575.565,4428.2
575.732,4242.9
575.898,4265.4
576.065,4374.8
576.232,4491.9
576.398,4517.4
576.565,4601.9
576.732,4676.7
576.898,4533.1
577.065,4478.7
577.232,4442.5
577.398,4260.3
577.565,4202.6
577.731,4258.2
577.898,4291.8
578.065,4273.1
578.231,4223.4
578.398,4257.4
578.564,4306.0
578.731,4266.9
578.897,4317.2
579.064,4289.1
579.23,4380.0
579.397,4305.2
579.563,4363.9
579.73,4341.8
579.896,4360.9
580.063,4430.2
580.229,4449.5
580.396,4423.9
580.562,4488.3
580.729,4543.7
580.895,4583.3
581.062,4629.7
581.228,4708.2
581.395,4868.8
581.561,5322.1
581.728,6356.3
581.894,8847.6
582.06,12003.2
582.227,12317.7
582.393,8423.6
582.56,5648.4
582.726,4870.5
582.892,4653.0
583.059,4643.2
583.225,4591.4
583.391,4599.0
583.558,4525.9
583.724,4654.0
583.89,4588.9
584.057,4659.6
584.223,4624.3
584.389,4685.3
584.556,4711.4
584.722,4775.6
584.888,4845.2
585.054,4904.6
585.221,5162.5
585.387,5842.8
585.553,7056.6
585.719,8425.1
585.886,9091.8
586.052,9124.8
586.218,8530.4
586.384,7478.8
586.55,6452.0
586.717,5647.1
586.883,5203.8
587.049,4946.8
587.215,4892.5
587.381,4805.9
587.548,4792.9
587.714,4709.8
587.88,4727.6
588.046,4745.3
588.212,4738.9
588.378,4691.2
588.544,4737.2
588.71,4770.0
588.876,4747.8
589.043,4671.8
589.209,4681.4
589.375,4722.4
589.541,4697.8
589.707,4698.3
589.873,4669.8
590.039,4737.9
590.205,4667.5
590.371,4661.0
590.537,4732.1
590.703,4735.0
590.869,4664.7
591.035,4731.0
591.201,4695.5
591.367,4805.2
591.533,4770.9
591.699,4751.4
591.865,4809.7
592.031,4784.8
592.197,4794.4
592.363,4778.9
592.529,4803.4
592.694,4806.5
592.86,4815.4
593.026,4797.9
593.192,4788.3
593.358,4752.2
593.524,4807.3
593.69,4769.2
593.856,4826.8
594.021,4775.0
594.187,4840.2
594.353,4774.8
594.519,4791.2
594.685,4801.4
594.851,4897.2
595.016,4874.2
595.182,4940.3
595.348,4936.7
595.514,4861.3
595.68,4819.9
595.845,4947.6
596.011,4906.5
596.177,4896.0
596.342,4965.8
596.508,4903.6
596.674,4919.0
596.84,5013.0
597.005,4962.1
597.171,4843.4
597.337,4929.1
597.502,5009.9
597.668,4931.9
597.834,5000.4
597.999,4980.5
598.165,5024.1
598.331,5009.2
598.496,5058.7
598.662,4991.7
598.828,5060.0
598.993,4988.7
599.159,5000.7
599.324,5037.9
599.49,5065.8
599.656,4997.4
599.821,5037.3
599.987,5169.7
600.152,5108.0
600.318,5123.9
600.483,5136.8
600.649,5104.5
600.814,5075.8
600.98,5157.2
601.145,5137.3
601.311,5150.7
601.476,5142.8
601.642,5180.7
601.807,5148.5
601.973,5248.7
602.138,5203.2
602.304,5124.2
602.469,5188.9
602.635,5187.9
602.8,5253.2
602.965,5268.3
603.131,5264.8
603.296,5200.5
603.462,5278.1
603.627,5202.9
603.792,5216.1
603.958,5387.0
604.123,5324.8
604.288,5295.9
604.454,5345.5
604.619,5372.6
604.784,5238.1
604.95,5338.2
605.115,5384.5
605.28,5312.8
605.446,5341.2
605.611,5378.9
605.776,5346.9
605.941,5439.7
606.107,5333.3
606.272,5423.4
606.437,5354.7
606.602,5490.3
606.767,5497.4
606.933,5536.3
607.098,5423.8
607.263,5428.1
607.428,5474.2
607.593,5474.2
607.759,5645.9
607.924,5503.1
608.089,5399.0
608.254,5621.9
608.419,5473.6
608.584,5393.7
608.749,5622.4
608.915,5520.7
609.08,5564.3
609.245,5591.4
609.41,5587.0
609.575,5544.4
609.74,5508.2
609.905,5637.9
610.07,5606.6
610.235,5619.3
610.4,5599.6
610.565,5586.6
610.73,5674.8
610.895,5651.0
611.06,5679.5
611.225,5685.1
611.39,5592.3
611.555,5592.0
611.72,5659.1
611.885,5675.6
612.05,5746.0
612.215,5614.8
612.38,5708.3
612.545,5644.8
612.71,5751.6
612.875,5769.8
613.04,5683.6
613.204,5658.9
613.369,5730.9
613.534,5723.1
613.699,5704.1
613.864,5787.4
614.029,5772.8
614.194,5760.3
614.358,5822.6
614.523,5799.8
614.688,5790.4
614.853,5728.2
615.018,5782.9
615.182,5865.5
615.347,5769.2
615.512,5810.1
615.677,5867.9
615.841,5856.4
616.006,5806.9
616.171,5747.7
616.336,5815.3
616.5,5829.7
616.665,5786.5
616.83,5784.5
616.994,5879.6
617.159,5809.4
617.324,5951.3
617.489,5879.4
617.653,5799.1
617.818,5894.5
617.982,5902.2
618.147,5883.7
618.312,6013.0
618.476,5992.5
618.641,5836.4
618.805,5831.5
618.97,5895.1
619.135,5929.3
619.299,5929.7
619.464,5955.5
619.628,5755.8
619.793,5935.5
619.957,5921.2
620.122,5948.9
620.286,5850.3
620.451,5757.4
620.615,5835.1
620.78,5912.6
620.944,5853.6
621.109,5798.6
621.273,5765.7
621.438,5968.3
621.602,5828.7
621.767,5855.9
621.931,5873.6
622.095,5877.7
622.26,5711.1
622.424,5844.7
622.589,5901.8
622.753,5882.9
622.917,5872.4
623.082,5859.8
623.246,5848.1
623.41,5876.2
623.575,5935.6
623.739,5888.9
623.903,5864.2
624.068,5873.6
624.232,5851.2
624.396,5926.8
624.561,6057.1
624.725,5906.7
624.889,5868.8
625.053,5861.7
625.218,5876.9
625.382,5934.4
625.546,5921.4
625.71,5835.0
625.875,5885.0
626.039,5985.1
626.203,5802.3
626.367,5806.0
626.531,5891.7
626.695,5914.4
626.86,5846.2
627.024,5829.5
627.188,5887.5
627.352,5827.8
627.516,5911.4
627.68,5953.2
627.844,5976.2
628.008,5949.5
628.172,6019.4
628.337,6119.7
628.501,6097.4
628.665,6121.4
628.829,6136.7
628.993,6173.8
629.157,6242.4
629.321,6206.2
629.485,6156.7
629.649,6198.0
629.813,6125.0
629.977,6148.8
630.141,6094.7
630.305,6053.2
630.469,6199.0
630.633,6142.6
630.797,6298.7
630.96,6589.3
631.124,6713.0
631.288,6953.3
631.452,7138.2
631.616,7488.1
631.78,7350.1
631.944,7293.5
632.108,7175.4
632.272,6915.1
632.435,6840.5
632.599,6764.9
632.763,6780.7
632.927,6561.6
633.091,6530.9
633.254,6616.8
633.418,6660.2
633.582,6483.1
633.746,6588.6
633.91,6394.9
634.073,6298.5
634.237,6232.2
634.401,6233.1
634.564,6225.1
634.728,6178.2
634.892,6228.1
635.056,6166.2
635.219,6183.7
635.383,6327.5
635.547,6362.5
635.71,6382.2
635.874,6719.8
636.038,6953.0
636.201,7287.3
636.365,7567.5
636.528,7669.2
636.692,7536.2
636.856,7208.8
637.019,6853.1
637.183,6631.5
637.346,6440.4
637.51,6340.7
637.673,6168.7
637.837,6295.0
638.0,6263.3
638.164,6245.8
638.327,6162.6
638.491,6229.7
638.654,6067.5
638.818,6080.4
638.981,6045.0
639.145,6151.8
639.308,6176.1
639.472,6122.8
639.635,6117.3
639.799,6075.4
639.962,6037.6
640.125,6114.7
640.289,6106.6
640.452,6220.1
640.616,5966.2
640.779,5835.3
640.942,6109.2
641.106,6107.9
641.269,6033.1
641.432,6117.5
641.596,6099.2
641.759,6044.7
641.922,5992.2
642.085,6129.7
642.249,6133.4
642.412,6189.8
642.575,6086.0
642.738,6212.6
642.902,6155.3
643.065,5991.0
643.228,6075.3
643.391,6151.9
643.555,6097.1
643.718,6109.9
643.881,6012.6
644.044,6073.7
644.207,6109.7
644.37,6021.5
644.534,5960.2
644.697,6122.2
644.86,6050.9
645.023,5973.1
645.186,6020.5
645.349,6094.7
645.512,6113.0
645.675,6121.0
645.838,6004.6
646.001,6046.5
646.164,6054.6
646.327,6007.4
646.49,5934.2
646.653,5953.7
646.816,5924.8
646.979,6057.7
647.142,6018.2
647.305,6022.0
647.468,5988.2
647.631,6069.0
647.794,6061.1
647.957,5890.9
648.12,5939.8
648.283,6035.0
648.446,6142.8
648.609,5887.2
648.772,5931.7
648.935,5933.2
649.098,5986.4
649.26,5873.1
649.423,5940.6
649.586,5857.6
649.749,5909.2
649.912,6095.4
650.075,5865.3
650.237,5826.0
650.4,6045.1
650.563,5838.6
650.726,5856.3
650.888,5873.9
651.051,5923.7
651.214,5955.7
651.377,5882.8
651.539,5882.3
651.702,5994.5
651.865,5711.9
652.027,5714.1
652.19,5819.4
652.353,5905.5
652.515,5787.7
652.678,5810.8
652.841,5841.2
653.003,5830.4
653.166,5716.0
653.329,5722.4
653.491,5605.9
653.654,5780.7
653.816,5691.2
653.979,5781.4
654.142,5691.3
654.304,5595.1
654.467,5745.4
654.629,5603.7
654.792,5610.4
654.954,5576.5
655.117,5463.9
655.279,5748.2
655.442,5654.9
655.604,5657.8
655.767,5716.9
655.929,5710.8
656.091,5535.6
656.254,5652.4
656.416,5570.9
656.579,5437.4
656.741,5456.3
656.904,5692.5
657.066,5524.4
657.228,5496.4
657.391,5477.1
657.553,5505.0
657.715,5434.6
657.878,5402.4
658.04,5390.2
658.202,5419.1
658.365,5428.8
658.527,5300.1
658.689,5461.5
658.851,5446.0
659.014,5459.2
659.176,5113.7
659.338,5235.8
659.5,5314.4
659.663,5379.1
659.825,5257.8
659.987,5190.8
660.149,5282.0
660.311,5192.4
660.474,5215.4
660.636,5232.2
660.798,5269.9
660.96,5235.2
661.041,5244.7