File: spectra/VLFR_06-PET_bio_Raman_c0ad7885.csv
nm,Intensity
528.65,1883.5
528.819,1887.25
528.987,1886.45
529.155,1887.45
529.324,1889.9
529.492,1888.45
529.66,1885.55
529.829,1886.65
529.997,1886.05
530.165,1889.8
530.334,1892.8
530.502,1891.45
530.67,1888.75
530.839,1889.3
531.007,1896.4
531.175,1898.15
531.344,1899.95
531.512,1907.25
531.68,1941.45
531.848,2507.05
532.017,4492.2
532.185,4118.95
532.353,2156.0
532.521,1923.3
532.69,1922.3
532.858,1931.95
533.026,1944.8
533.194,1981.4
533.363,2105.25
533.531,3170.3
533.699,10317.1
533.867,25248.6
534.036,33798.8
534.204,36434.4
534.372,37078.9
534.54,37615.1
534.708,38928.1
534.877,40079.4
535.045,39515.4
535.213,40208.7
535.381,41213.1
535.549,42018.6
535.717,41425.5
535.886,41463.4
536.054,40291.6
536.222,40727.1
536.39,41865.9
536.558,41313.1
536.726,41784.8
536.894,42215.3
537.062,42510.3
537.231,42876.6
537.399,43139.9
537.567,43817.0
537.735,43566.0
537.903,43982.7
538.071,44313.1
538.239,43694.3
538.407,43545.3
538.575,44838.1
538.743,44717.7
538.911,44757.1
539.079,45621.4
539.247,45760.8
539.415,45965.9
539.583,46719.5
539.751,47242.0
539.919,46853.1
540.087,47730.1
540.255,47598.5
540.423,48003.1
540.591,48680.1
540.759,47795.2
540.927,48119.6
541.095,48424.1
541.263,48309.8
541.431,49626.6
541.599,49383.2
541.767,49322.3
541.935,49317.3
542.103,50347.1
542.271,49750.9
542.439,50928.6
542.607,51368.1
542.775,51298.3
542.943,51677.9
543.111,51647.6
543.279,51623.2
543.446,51949.2
543.614,52047.4
543.782,52230.4
543.95,52429.3
544.118,52956.9
544.286,52705.8
544.454,52677.3
544.622,53605.1
544.789,53112.8
544.957,53654.9
545.125,53687.0
545.293,53864.0
545.461,53566.1
545.629,54104.3
545.796,54207.9
545.964,54780.6
546.132,54742.6
546.3,55147.2
546.468,55284.9
546.635,55386.3
546.803,55880.6
546.971,55327.1
547.139,55558.3
547.306,55990.9
547.474,56593.1
547.642,56592.9
547.81,56114.9
547.977,57025.9
548.145,56812.4
548.313,57225.7
548.481,57090.1
548.648,57343.1
548.816,57521.6
548.984,57352.8
549.151,57998.9
549.319,57595.3
549.487,57777.7
549.655,58010.2
549.822,57911.9
549.99,57875.8
550.158,58371.7
550.325,58487.2
550.493,58526.4
550.66,58951.1
550.828,59283.9
550.996,59599.3
551.163,59644.2
551.331,59151.3
551.499,60206.5
551.666,60123.8
551.834,60322.5
552.001,60630.1
552.169,60196.1
552.337,60581.6
552.504,60681.4
552.672,60547.6
552.839,60503.1
553.007,60241.6
553.174,60842.6
553.342,61177.1
553.509,60976.7
553.677,61501.4
553.844,61154.4
554.012,61386.3
554.179,61615.6
554.347,61972.8
554.514,61904.8
554.682,62190.4
554.849,62367.4
555.017,62529.0
555.184,62801.6
555.352,62402.4
555.519,62508.4
555.687,62731.2
555.854,62830.8
556.022,63114.2
556.189,62852.3
556.357,63079.8
556.524,63154.0
556.691,63048.4
556.859,63397.8
557.026,63373.1
557.194,63695.6
557.361,63258.1
557.528,63326.8
557.696,63501.3
557.863,63564.9
558.031,63814.1
558.198,64008.1
558.365,63906.6
558.533,63756.6
558.7,64143.4
558.867,64227.7
559.035,64224.2
559.202,64355.4
559.369,64432.6
559.537,64119.4
559.704,64355.9
559.871,64753.5
560.038,64287.6
560.206,64749.1
560.373,64597.1
560.54,64703.4
560.708,64937.9
560.875,64706.1
561.042,64849.6
561.209,64868.3
561.377,65057.8
561.544,64975.6
561.711,65131.9
561.878,65085.1
562.045,65192.4
562.213,65149.3
562.38,65050.1
562.547,65160.4
562.714,65224.6
562.881,65245.1
563.049,65185.2
563.216,65138.6
563.383,65307.9
563.55,65338.1
563.717,65283.1
563.884,65330.6
564.052,65316.9
564.219,65361.0
564.386,65474.6
564.553,65436.8
564.72,65377.8
564.887,65478.7
565.054,65498.4
565.221,65467.1
565.388,65508.6
565.556,65522.9
565.723,65508.8
565.89,65529.6
566.057,65535.0
566.224,65535.0
566.391,65508.6
566.558,65529.9
566.725,65535.0
566.892,65512.9
567.059,65535.0
567.226,65535.0
567.393,65535.0
567.56,65524.2
567.727,65535.0
567.894,65535.0
568.061,65535.0
568.228,65535.0
568.395,65535.0
568.562,65535.0
568.729,65535.0
568.896,65535.0
569.063,65535.0
569.23,65535.0
569.396,65535.0
569.563,65535.0
569.73,65535.0
569.897,65535.0
570.064,65535.0
570.231,65535.0
570.398,65535.0
570.565,65535.0
570.732,65535.0
570.898,65535.0
571.065,65535.0
571.232,65535.0
571.399,65535.0
571.566,65535.0
571.733,65535.0
571.9,65535.0
572.066,65535.0
572.233,65535.0
572.4,65535.0
572.567,65535.0
572.734,65535.0
572.9,65535.0
573.067,65535.0
573.234,65535.0
573.401,65535.0
573.567,65535.0
573.734,65535.0
573.901,65535.0
574.068,65535.0
574.234,65535.0
574.401,65535.0
574.568,65535.0
574.734,65535.0
574.901,65535.0
575.068,65535.0
575.235,65535.0
575.401,65535.0
575.568,65535.0
575.735,65535.0
575.901,65535.0
576.068,65535.0
576.235,65535.0
576.401,65535.0
576.568,65535.0
576.734,65535.0
576.901,65535.0
577.068,65535.0
577.234,65535.0
577.401,65535.0
577.567,65535.0
577.734,65535.0
577.901,65535.0
578.067,65535.0
578.234,65535.0
578.4,65535.0
578.567,65535.0
578.733,65535.0
578.9,65535.0
579.066,65535.0
579.233,65535.0
579.399,65535.0
579.566,65535.0
579.732,65535.0
579.899,65535.0
580.065,65535.0
580.232,65535.0
580.398,65535.0
580.565,65535.0
580.731,65535.0
580.898,65535.0
581.064,65535.0
581.231,65535.0
581.397,65535.0
581.563,65535.0
581.73,65535.0
581.896,65535.0
582.063,65535.0
582.229,65535.0
582.395,65535.0
582.562,65535.0
582.728,65535.0
582.895,65535.0
583.061,65535.0
583.227,65535.0
583.394,65535.0
583.56,65535.0
583.726,65535.0
583.893,65535.0
584.059,65535.0
584.225,65535.0
584.391,65535.0
584.558,65535.0
584.724,65535.0
584.89,65535.0
585.057,65535.0
585.223,65535.0
585.389,65535.0
585.555,65535.0
585.722,65535.0
585.888,65535.0
586.054,65535.0
586.22,65535.0
586.386,65535.0
586.553,65535.0
586.719,65535.0
586.885,65535.0
587.051,65535.0
587.217,65535.0
587.384,65535.0
587.55,65535.0
587.716,65535.0
587.882,65535.0
588.048,65535.0
588.214,65535.0
588.38,65535.0
588.546,65535.0
588.713,65535.0
588.879,65535.0
589.045,65535.0
589.211,65535.0
589.377,65535.0
589.543,65535.0
589.709,65535.0
589.875,65535.0
590.041,65535.0
590.207,65535.0
590.373,65535.0
590.539,65535.0
590.705,65535.0
590.871,65535.0
591.037,65535.0
591.203,65535.0
591.369,65535.0
591.535,65535.0
591.701,65535.0
591.867,65535.0
592.033,65535.0
592.199,65535.0
592.365,65535.0
592.531,65535.0
592.697,65535.0
592.863,65535.0
593.029,65535.0
593.195,65535.0
593.361,65535.0
593.526,65535.0
593.692,65535.0
593.858,65535.0
594.024,65535.0
594.19,65535.0
594.356,65535.0
594.522,65535.0
594.687,65535.0
594.853,65535.0
595.019,65535.0
595.185,65535.0
595.351,65535.0
595.516,65535.0
595.682,65535.0
595.848,65535.0
596.014,65535.0
596.18,65535.0
596.345,65535.0
596.511,65535.0
596.677,65535.0
596.843,65535.0
597.008,65535.0
597.174,65535.0
597.34,65535.0
597.505,65535.0
597.671,65535.0
597.837,65535.0
598.002,65535.0
598.168,65535.0
598.334,65535.0
598.499,65535.0
598.665,65535.0
598.831,65535.0
598.996,65535.0
599.162,65535.0
599.328,65535.0
599.493,65535.0
599.659,65535.0
599.824,65535.0
599.99,65535.0
600.156,65535.0
600.321,65535.0
600.487,65535.0
600.652,65535.0
600.818,65535.0
600.983,65535.0
601.149,65535.0
601.314,65535.0
601.48,65535.0
601.645,65535.0
601.811,65535.0
601.976,65535.0
602.142,65535.0
602.307,65535.0
602.473,65535.0
602.638,65535.0
602.804,65535.0
602.969,65535.0
603.135,65535.0
603.3,65535.0
603.466,65535.0
603.631,65535.0
603.796,65535.0
603.962,65535.0
604.127,65535.0
604.293,65535.0
604.458,65535.0
604.623,65535.0
604.789,65535.0
604.954,65535.0
605.119,65535.0
605.285,65535.0
605.45,65535.0
605.615,65535.0
605.781,65535.0
605.946,65535.0
606.111,65535.0
606.277,65535.0
606.442,65535.0
606.607,65535.0
606.772,65535.0
606.938,65535.0
607.103,65535.0
607.268,65535.0
607.433,65535.0
607.599,65535.0
607.764,65535.0
607.929,65535.0
608.094,65535.0
608.259,65535.0
608.425,65535.0
608.59,65535.0
608.755,65535.0
608.92,65535.0
609.085,65535.0
609.25,65535.0
609.415,65535.0
609.581,65535.0
609.746,65535.0
609.911,65535.0
610.076,65535.0
610.241,65535.0
610.406,65535.0
610.571,65535.0
610.736,65535.0
610.901,65535.0
611.066,65535.0
611.231,65535.0
611.396,65535.0
611.561,65535.0
611.727,65535.0
611.892,65535.0
612.057,65535.0
612.222,65535.0
612.386,65535.0
612.551,65535.0
612.716,65535.0
612.881,65535.0
613.046,65535.0
613.211,65535.0
613.376,65535.0
613.541,65535.0
613.706,65535.0
613.871,65535.0
614.036,65535.0
614.201,65535.0
614.366,65535.0
614.531,65535.0
614.695,65535.0
614.86,65535.0
615.025,65535.0
615.19,65535.0
615.355,65535.0
615.52,65535.0
615.684,65535.0
615.849,65535.0
616.014,65535.0
616.179,65535.0
616.344,65535.0
616.508,65535.0
616.673,65535.0
616.838,65535.0
617.003,65535.0
617.168,65535.0
617.332,65535.0
617.497,65535.0
617.662,65535.0
617.826,65535.0
617.991,65535.0
618.156,65535.0
618.32,65535.0
618.485,65535.0
618.65,65535.0
618.814,65535.0
618.979,65535.0
619.144,65535.0
619.308,65535.0
619.473,65535.0
619.638,65535.0
619.802,65535.0
619.967,65535.0
620.131,65535.0
620.296,65535.0
620.461,65535.0
620.625,65535.0
620.79,65535.0
620.954,65535.0
621.119,65535.0
621.283,65535.0
621.448,65535.0
621.612,65535.0
621.777,65535.0
621.941,65535.0
622.106,65535.0
622.27,65535.0
622.435,65535.0
622.599,65535.0
622.764,65535.0
622.928,65535.0
623.093,65535.0
623.257,65535.0
623.422,65535.0
623.586,65535.0
623.75,65535.0
623.915,65535.0
624.079,65535.0
624.244,65535.0
624.408,65535.0
624.572,65535.0
624.737,65535.0
624.901,65535.0
625.065,65535.0
625.23,65535.0
625.394,65535.0
625.558,65535.0
625.723,65535.0
625.887,65535.0
626.051,65535.0
626.215,65535.0
626.38,65535.0
626.544,65535.0
626.708,65535.0
626.872,65535.0
627.037,65535.0
627.201,65535.0
627.365,65535.0
627.529,65535.0
627.693,65535.0
627.858,65535.0
628.022,65535.0
628.186,65535.0
628.35,65535.0
628.514,65535.0
628.678,65535.0
628.843,65535.0
629.007,65535.0
629.171,65535.0
629.335,65535.0
629.499,65535.0
629.663,65535.0
629.827,65535.0
629.991,65535.0
630.155,65535.0
630.319,65535.0
630.483,65535.0
630.647,65535.0
630.812,65535.0
630.976,65535.0
631.14,65535.0
631.304,65535.0
631.468,65535.0
631.632,65535.0
631.796,65535.0
631.959,65535.0
632.123,65535.0
632.287,65535.0
632.451,65535.0
632.615,65535.0
632.779,65535.0
632.943,65535.0
633.107,65535.0
633.271,65535.0
633.435,65535.0
633.599,65535.0
633.763,65535.0
633.926,65535.0
634.09,65535.0
634.254,65535.0
634.418,65535.0
634.582,65535.0
634.746,65535.0
634.909,65535.0
635.073,65535.0
635.237,65535.0
635.401,65535.0
635.564,65535.0
635.728,65535.0
635.892,65535.0
636.056,65535.0
636.219,65535.0
636.383,65535.0
636.547,65535.0
636.711,65535.0
636.874,65535.0
637.038,65535.0
637.202,65535.0
637.365,65535.0
637.529,65535.0
637.693,65535.0
637.856,65535.0
638.02,65535.0
638.184,65535.0
638.347,65535.0
638.511,65535.0
638.674,65535.0
638.838,65535.0
639.002,65535.0
639.165,65535.0
639.329,65535.0
639.492,65535.0
639.656,65535.0
639.819,65535.0
639.983,65535.0
640.146,65535.0
640.31,65535.0
640.473,65535.0
640.637,65529.9
640.8,65515.2
640.964,65535.0
641.127,65535.0
641.291,65535.0
641.454,65535.0
641.618,65447.6
641.781,65531.3
641.944,65477.7
642.108,65510.1
642.271,65535.0
642.435,65516.4
642.598,65460.2
642.761,65475.3
642.925,65390.6
643.088,65503.2
643.251,65442.5
643.415,65474.3
643.578,65503.4
643.741,65486.1
643.905,65478.5
644.068,65191.5
644.231,65459.1
644.394,65535.0
644.558,65224.8
644.721,65135.3
644.884,65218.8
645.047,65288.6
645.211,65476.4
645.374,65316.2
645.537,65299.3
645.7,65307.0
645.863,65232.4
646.027,65157.8
646.19,65204.4
646.353,65097.1
646.516,65086.8
646.679,65356.3
646.842,64782.6
647.005,65136.4
647.169,65117.1
647.332,65101.5
647.495,64899.1
647.658,64877.1
647.821,64884.9
647.984,64611.8
648.147,64941.1
648.31,64869.7
648.473,64729.3
648.636,64662.6
648.799,64615.3
648.962,64429.8
649.125,64353.5
649.288,64382.8
649.451,64281.7
649.614,64501.5
649.777,64782.4
649.94,64268.5
650.103,64418.3
650.266,64168.6
650.429,64237.3
650.592,63920.0
650.755,63864.3
650.918,64262.9
651.08,64114.3
651.243,64001.3
651.406,63966.7
651.569,63180.6
651.732,63991.8
651.895,63860.8
652.058,63558.4
652.22,63788.9
652.383,63983.4
652.546,62936.9
652.709,63027.6
652.872,62835.5
653.034,63149.4
653.197,63288.3
653.36,62918.3
653.523,63346.9
653.685,62628.3
653.848,62265.6
654.011,62332.9
654.173,61701.5
654.336,62120.9
654.499,61843.9
654.662,62032.1
654.824,62314.6
654.987,62063.8
655.149,62099.4
655.312,62153.3
655.475,62031.8
655.637,62386.0
655.8,60462.1
655.963,61579.1
656.125,61699.1
656.288,61439.4
656.45,61900.2
656.613,60820.3
656.775,60191.7
656.938,61045.7
657.1,61154.7
657.263,60355.4
657.425,61539.3
657.588,60567.4
657.75,60233.1
657.913,60006.9
658.075,60446.0
658.238,59968.6
658.4,60235.3
658.563,59885.4
658.725,58941.2
658.888,59086.9
659.05,58818.9
659.212,58794.9
659.375,58146.9
659.537,58055.7
659.7,58911.4
659.862,58420.4
660.024,58209.3
660.187,57676.6
660.349,57959.5
660.511,59081.1
660.674,58355.3
660.836,58019.1
660.998,58756.4
661.079,57964.2