File: spectra/VLFR_08-PLA_bio_Raman_a4d97f0f.csv
nm,Intensity
526.495,829.65
526.632,828.67
526.768,829.3
526.905,829.0
527.042,829.42
527.179,829.11
527.315,828.71
527.452,829.09
527.589,829.09
527.725,828.83
527.862,829.56
527.999,829.2
528.136,828.79
528.272,829.12
528.409,829.09
528.546,829.07
528.682,829.07
528.819,828.93
528.955,829.06
529.092,829.13
529.229,829.06
529.365,828.78
529.502,829.27
529.639,829.11
529.775,828.87
529.912,828.86
530.048,829.05
530.185,828.98
530.321,828.84
530.458,828.88
530.594,829.16
530.731,829.38
530.867,828.78
531.004,829.08
531.14,828.78
531.277,828.98
531.413,829.62
531.55,828.66
531.686,829.09
531.823,829.4
531.959,838.19
532.096,900.07
532.232,920.09
532.369,849.88
532.505,830.4
532.641,828.89
532.778,829.0
532.914,829.42
533.051,828.91
533.187,829.01
533.323,828.99
533.46,829.21
533.596,830.09
533.732,838.54
533.869,876.45
534.005,940.23
534.141,973.05
534.278,974.95
534.414,973.54
534.55,971.99
534.687,972.37
534.823,971.64
534.959,965.12
535.095,961.93
535.232,959.7
535.368,957.92
535.504,959.15
535.64,957.12
535.777,954.83
535.913,952.89
536.049,951.24
536.185,948.16
536.321,946.31
536.457,946.24
536.594,944.95
536.73,944.82
536.866,942.24
537.002,943.09
537.138,940.86
537.274,940.36
537.41,939.65
537.547,939.78
537.683,939.79
537.819,939.97
537.955,940.52
538.091,940.51
538.227,940.79
538.363,939.3
538.499,940.62
538.635,940.68
538.771,941.1
538.907,940.24
539.043,940.22
539.179,941.07
539.315,941.03
539.451,943.46
539.587,944.32
539.723,944.9
539.859,942.83
539.995,944.75
540.131,947.44
540.267,949.28
540.403,948.8
540.539,949.71
540.675,952.83
540.811,954.54
540.947,954.05
541.083,955.38
541.219,955.73
541.354,955.61
541.49,955.42
541.626,956.13
541.762,955.2
541.898,954.87
542.034,955.1
542.17,956.85
542.305,959.14
542.441,960.97
542.577,961.82
542.713,963.23
542.849,961.47
542.984,959.9
543.12,958.45
543.256,956.73
543.392,955.32
543.528,956.44
543.663,957.84
543.799,960.98
543.935,961.71
544.071,963.59
544.206,964.91
544.342,964.71
544.478,965.03
544.613,965.6
544.749,967.22
544.885,969.94
545.02,970.74
545.156,970.03
545.292,967.36
545.427,965.27
545.563,964.9
545.699,969.85
545.834,985.19
545.97,1005.86
546.106,1012.57
546.241,1000.69
546.377,987.11
546.512,978.85
546.648,976.26
546.784,971.13
546.919,971.11
547.055,971.53
547.19,974.13
547.326,974.85
547.461,975.74
547.597,973.67
547.732,971.76
547.868,970.06
548.003,968.07
548.139,967.59
548.274,965.93
548.41,964.38
548.545,965.98
548.681,967.29
548.816,967.75
548.952,971.84
549.087,972.0
549.223,971.07
549.358,971.33
549.494,969.08
549.629,967.85
549.764,970.07
549.9,969.96
550.035,968.8
550.171,970.32
550.306,971.4
550.441,969.69
550.577,970.97
550.712,969.5
550.847,968.51
550.983,967.9
551.118,965.65
551.253,965.54
551.389,965.91
551.524,966.72
551.659,964.7
551.795,967.3
551.93,965.69
552.065,966.62
552.201,965.34
552.336,965.12
552.471,965.55
552.606,966.69
552.742,967.56
552.877,968.7
553.012,967.88
553.147,968.82
553.283,967.92
553.418,969.32
553.553,968.13
553.688,970.04
553.823,968.11
553.959,969.65
554.094,969.76
554.229,971.01
554.364,970.54
554.499,970.77
554.634,972.5
554.769,971.95
554.905,972.81
555.04,971.9
555.175,971.66
555.31,970.43
555.445,970.37
555.58,967.84
555.715,968.07
555.85,968.41
555.985,969.76
556.121,969.9
556.256,970.93
556.391,973.08
556.526,974.2
556.661,976.35
556.796,980.1
556.931,984.01
557.066,988.46
557.201,990.47
557.336,994.33
557.471,997.95
557.606,998.38
557.741,1007.41
557.876,1013.77
558.011,1011.06
558.146,999.85
558.281,989.3
558.416,981.78
558.551,979.58
558.685,978.59
558.82,978.89
558.955,980.83
559.09,982.51
559.225,985.57
559.36,986.4
559.495,988.63
559.63,991.44
559.765,995.55
559.9,997.29
560.034,1000.04
560.169,1005.94
560.304,1005.25
560.439,995.96
560.574,987.58
560.709,981.77
560.843,980.79
560.978,981.53
561.113,981.08
561.248,980.85
561.383,981.61
561.517,979.71
561.652,981.99
561.787,983.29
561.922,985.44
562.057,990.24
562.191,991.04
562.326,994.61
562.461,996.79
562.596,995.73
562.73,997.21
562.865,998.88
563.0,999.5
563.134,1000.94
563.269,1003.72
563.404,1008.15
563.539,1011.63
563.673,1014.93
563.808,1015.77
563.943,1014.8
564.077,1012.26
564.212,1011.73
564.346,1016.09
564.481,1021.66
564.616,1028.06
564.75,1026.87
564.885,1022.97
565.02,1020.46
565.154,1019.36
565.289,1023.53
565.423,1027.76
565.558,1027.29
565.693,1025.28
565.827,1025.51
565.962,1028.35
566.096,1030.48
566.231,1028.25
566.365,1025.37
566.5,1020.37
566.634,1017.92
566.769,1015.89
566.903,1015.95
567.038,1015.66
567.172,1012.32
567.307,1006.92
567.441,1000.93
567.576,996.64
567.71,995.35
567.845,993.44
567.979,994.17
568.114,994.41
568.248,996.15
568.383,996.68
568.517,998.49
568.652,1000.99
568.786,998.95
568.92,1000.06
569.055,999.13
569.189,1001.32
569.324,1002.06
569.458,1002.85
569.592,1004.1
569.727,1007.9
569.861,1008.34
569.996,1011.09
570.13,1013.04
570.264,1013.73
570.399,1014.36
570.533,1014.75
570.667,1015.56
570.802,1012.13
570.936,1009.98
571.07,1009.73
571.205,1008.99
571.339,1006.59
571.473,1006.03
571.607,1008.14
571.742,1008.08
571.876,1010.49
572.01,1010.54
572.144,1013.37
572.279,1016.46
572.413,1020.09
572.547,1022.4
572.681,1026.48
572.816,1029.2
572.95,1032.64
573.084,1032.55
573.218,1032.22
573.353,1030.69
573.487,1029.87
573.621,1030.01
573.755,1029.79
573.889,1028.95
574.023,1029.93
574.158,1030.71
574.292,1032.43
574.426,1033.09
574.56,1032.3
574.694,1030.62
574.828,1030.84
574.963,1032.27
575.097,1029.9
575.231,1028.64
575.365,1026.28
575.499,1022.77
575.633,1022.04
575.767,1020.25
575.901,1018.22
576.035,1016.05
576.169,1017.3
576.303,1014.61
576.438,1016.48
576.572,1020.92
576.706,1023.8
576.84,1032.13
576.974,1034.29
577.108,1032.84
577.242,1028.85
577.376,1021.02
577.51,1015.76
577.644,1012.01
577.778,1009.18
577.912,1008.43
578.046,1006.23
578.18,1006.18
578.314,1005.07
578.448,1005.99
578.582,1007.29
578.716,1009.76
578.85,1009.57
578.984,1010.78
579.117,1011.34
579.251,1011.96
579.385,1011.05
579.519,1009.17
579.653,1007.34
579.787,1008.34
579.921,1006.3
580.055,1005.09
580.189,1006.07
580.323,1006.12
580.456,1005.96
580.59,1005.8
580.724,1004.68
580.858,1005.66
580.992,1006.95
581.126,1006.66
581.26,1007.7
581.393,1007.45
581.527,1007.68
581.661,1009.44
581.795,1010.55
581.929,1010.91
582.063,1010.43
582.196,1009.76
582.33,1009.92
582.464,1008.85
582.598,1008.78
582.731,1009.22
582.865,1012.96
582.999,1011.37
583.133,1010.18
583.267,1012.09
583.4,1010.92
583.534,1009.87
583.668,1012.05
583.801,1007.72
583.935,1010.08
584.069,1009.12
584.203,1010.12
584.336,1006.86
584.47,1007.69
584.604,1008.24
584.737,1006.39
584.871,1008.05
585.005,1008.88
585.138,1008.05
585.272,1007.54
585.406,1006.99
585.539,1007.9
585.673,1006.72
585.807,1006.9
585.94,1008.27
586.074,1007.53
586.208,1010.05
586.341,1009.01
586.475,1009.57
586.608,1009.27
586.742,1010.43
586.876,1010.85
587.009,1011.22
587.143,1012.27
587.276,1010.77
587.41,1011.51
587.543,1010.84
587.677,1011.68
587.811,1010.29
587.944,1011.91
588.078,1009.23
588.211,1009.39
588.345,1008.8
588.478,1009.62
588.612,1008.23
588.745,1007.97
588.879,1007.91
589.012,1006.66
589.146,1007.94
589.279,1007.93
589.413,1008.01
589.546,1007.87
589.68,1007.33
589.813,1009.16
589.947,1007.71
590.08,1007.41
590.214,1008.24
590.347,1009.92
590.48,1009.64
590.614,1009.58
590.747,1008.92
590.881,1008.46
591.014,1009.57
591.148,1010.68
591.281,1009.69
591.414,1011.43
591.548,1011.03
591.681,1010.39
591.815,1010.19
591.948,1010.33
592.081,1010.13
592.215,1009.67
592.348,1009.28
592.481,1008.84
592.615,1008.75
592.748,1009.05
592.881,1008.48
593.015,1008.46
593.148,1009.12
593.281,1010.14
593.415,1007.52
593.548,1008.78
593.681,1007.88
593.815,1009.48
593.948,1009.01
594.081,1009.19
594.215,1008.56
594.348,1009.35
594.481,1010.23
594.614,1010.63
594.748,1011.03
594.881,1010.84
595.014,1010.76
595.147,1011.6
595.281,1011.68
595.414,1012.59
595.547,1011.22
595.68,1012.96
595.814,1012.85
595.947,1013.31
596.08,1013.28
596.213,1012.19
596.347,1011.9
596.48,1011.88
596.613,1013.57
596.746,1013.3
596.879,1013.36
597.012,1011.46
597.146,1013.43
597.279,1014.35
597.412,1013.01
597.545,1012.51
597.678,1013.94
597.811,1013.48
597.945,1014.37
598.078,1014.81
598.211,1016.17
598.344,1016.25
598.477,1014.89
598.61,1015.74
598.743,1016.52
598.876,1017.13
599.009,1016.58
599.143,1017.7
599.276,1016.52
599.409,1015.54
599.542,1015.36
599.675,1017.19
599.808,1014.59
599.941,1014.91
600.074,1017.22
600.207,1014.68
600.34,1013.49
600.473,1015.27
600.606,1014.8
600.739,1015.01
600.872,1014.45
601.005,1014.52
601.138,1013.52
601.271,1013.97
601.404,1014.24
601.537,1013.87
601.67,1015.17
601.803,1013.14
601.936,1014.04
602.069,1015.17
602.202,1013.91
602.335,1014.22
602.468,1014.42
602.601,1014.43
602.734,1015.87
602.867,1014.73
603.0,1016.18
603.133,1015.56
603.266,1017.27
603.399,1016.15
603.532,1015.76
603.665,1015.55
603.798,1017.49
603.931,1016.52
604.064,1015.84
604.196,1015.11
604.329,1015.2
604.462,1014.45
604.595,1015.69
604.728,1013.4
604.861,1013.75
604.994,1013.15
605.127,1014.59
605.259,1012.0
605.392,1013.0
605.525,1011.89
605.658,1010.77
605.791,1011.22
605.924,1011.28
606.057,1010.41
606.189,1012.29
606.322,1010.1
606.455,1009.55
606.588,1011.98
606.721,1010.05
606.853,1011.44
606.986,1009.29
607.119,1010.91
607.252,1011.93
607.385,1011.54
607.517,1009.57
607.65,1011.91
607.783,1012.07
607.916,1012.09
608.049,1012.82
608.181,1013.7
608.314,1013.65
608.447,1013.68
608.58,1014.26
608.712,1014.06
608.845,1015.57
608.978,1013.73
609.111,1014.3
609.243,1015.11
609.376,1014.33
609.509,1014.62
609.641,1014.38
609.774,1012.79
609.907,1014.51
610.039,1013.86
610.172,1014.88
610.305,1012.89
610.438,1014.37
610.57,1014.5
610.703,1013.36
610.836,1013.76
610.968,1012.85
611.101,1013.82
611.234,1013.69
611.366,1013.31
611.499,1014.51
611.631,1014.7
611.764,1013.5
611.897,1016.01
612.029,1015.25
612.162,1017.3
612.295,1016.92
612.427,1017.49
612.56,1017.54
612.692,1018.76
612.825,1018.16
612.958,1019.21
613.09,1020.47
613.223,1020.93
613.355,1021.17
613.488,1019.59
613.621,1021.68
613.753,1020.57
613.886,1022.18
614.018,1021.2
614.151,1020.71
614.283,1022.22
614.416,1022.45
614.548,1022.66
614.681,1021.8
614.814,1021.08
614.946,1021.42
615.079,1023.37
615.211,1020.57
615.344,1020.2
615.476,1019.04
615.609,1020.08
615.741,1019.03
615.874,1018.79
616.006,1020.74
616.139,1020.22
616.271,1019.63
616.404,1019.89
616.536,1019.19
616.669,1020.34
616.801,1020.88
616.933,1021.35
617.066,1020.23
617.198,1023.71
617.331,1022.36
617.463,1022.65
617.596,1022.05
617.728,1021.59
617.861,1023.64
617.993,1021.46
618.125,1024.6
618.258,1023.89
618.39,1022.71
618.523,1023.48
618.655,1023.82
618.788,1025.12
618.92,1023.84
619.052,1023.81
619.185,1023.76
619.317,1023.76
619.45,1023.83
619.582,1024.48
619.714,1026.12
619.847,1023.94
619.979,1023.98
620.111,1026.01
620.244,1025.07
620.376,1023.76
620.509,1025.53
620.641,1024.8
620.773,1023.16
620.906,1025.12
621.038,1024.94
621.17,1026.69
621.303,1025.69
621.435,1026.0
621.567,1026.79
621.7,1027.28
621.832,1025.49
621.964,1026.65
622.096,1028.83
622.229,1027.87
622.361,1027.75
622.493,1028.57
622.626,1029.36
622.758,1031.18
622.89,1031.11
623.022,1030.99
623.155,1033.29
623.287,1031.15
623.419,1031.97
623.552,1031.62
623.684,1032.92
623.816,1033.53
623.948,1030.67
624.081,1033.64
624.213,1032.46
624.345,1033.94
624.477,1033.21
624.61,1032.61
624.742,1033.78
624.874,1034.29
625.006,1032.45
625.138,1033.23
625.271,1033.42
625.403,1033.39
625.535,1033.86
625.667,1034.03
625.799,1035.37
625.932,1034.69
626.064,1035.61
626.196,1034.36
626.328,1036.63
626.46,1037.88
626.593,1039.06
626.725,1041.32
626.857,1041.45
626.989,1043.87
627.121,1045.95
627.253,1047.87
627.386,1049.78
627.518,1051.97
627.65,1055.11
627.782,1057.98
627.914,1062.08
628.046,1067.35
628.178,1075.84
628.311,1082.14
628.443,1092.51
628.575,1102.21
628.707,1116.62
628.839,1126.2
628.971,1137.8
629.103,1146.49
629.235,1153.17
629.367,1159.75
629.5,1165.85
629.632,1168.76
629.764,1169.74
629.896,1168.21
630.028,1168.56
630.16,1164.13
630.292,1162.42
630.424,1163.07
630.556,1164.25
630.688,1161.01
630.82,1162.52
630.952,1164.42
631.084,1161.41
631.216,1157.44
631.349,1151.92
631.481,1142.32
631.613,1132.92
631.745,1127.03
631.877,1120.97
632.009,1111.53
632.141,1106.78
632.273,1101.67
632.405,1097.98
632.537,1092.52
632.669,1088.99
632.801,1083.92
632.933,1077.99
633.065,1075.02
633.197,1068.37
633.329,1062.4
633.461,1057.49
633.593,1053.47
633.725,1047.25
633.857,1043.37
633.989,1039.95
634.121,1037.13
634.253,1035.1
634.385,1032.95
634.517,1030.95
634.649,1028.37
634.781,1026.86
634.912,1026.18
635.044,1026.04
635.176,1025.8
635.308,1024.46
635.44,1025.2
635.572,1024.09
635.704,1024.85
635.836,1023.83
635.968,1023.05
636.1,1023.24
636.232,1024.56
636.364,1022.28
636.496,1021.92
636.628,1022.83
636.76,1023.07
636.891,1023.17
637.023,1022.88
637.155,1021.71
637.287,1023.3
637.419,1022.38
637.551,1021.83
637.683,1021.99
637.815,1021.75
637.947,1023.86
638.078,1022.34
638.21,1022.2
638.342,1023.7
638.474,1024.23
638.606,1023.52
638.738,1023.19
638.87,1025.2
639.002,1024.01
639.133,1025.74
639.265,1025.51
639.397,1022.68
639.529,1025.66
639.661,1023.8
639.793,1024.82
639.924,1025.21
640.056,1026.0
640.188,1024.16
640.32,1027.31
640.452,1024.18
640.584,1027.25
640.715,1028.63
640.847,1026.12
640.979,1026.1
641.111,1027.51
641.243,1028.68
641.374,1028.37
641.506,1028.36
641.638,1028.42
641.77,1027.67
641.902,1027.78
642.033,1029.53
642.165,1029.85
642.297,1029.65
642.429,1029.32
642.561,1028.69
642.692,1030.58
642.824,1029.82
642.956,1029.0
643.088,1030.25
643.219,1027.48
643.351,1028.74
643.483,1026.64
643.615,1027.92
643.746,1028.29
643.878,1028.82
644.01,1027.85
644.142,1027.33
644.273,1027.16
644.405,1027.54
644.537,1027.72
644.669,1027.56
644.8,1027.9
644.932,1026.21
645.064,1027.78
645.195,1027.9
645.327,1027.57
645.459,1028.22
645.591,1028.16
645.722,1028.29
645.854,1026.79
645.986,1028.93
646.117,1027.76
646.249,1028.36
646.381,1029.01
646.512,1029.87
646.644,1029.25
646.776,1029.21
646.908,1030.47
647.039,1029.81
647.171,1029.38
647.303,1028.42
647.434,1029.7
647.566,1030.55
647.698,1030.37
647.829,1029.41
647.961,1030.04
648.093,1029.94
648.224,1028.96
648.356,1028.15
648.488,1030.14
648.619,1030.18
648.751,1030.11
648.883,1029.69
649.014,1028.74
649.146,1028.38
649.277,1028.01
649.409,1027.09
649.541,1027.56
649.672,1027.53
649.804,1026.07
649.936,1028.26
650.067,1026.55
650.199,1024.52
650.33,1024.28
650.462,1025.75
650.594,1025.2
650.725,1023.38
650.857,1023.75
650.988,1024.42
651.12,1022.5
651.252,1024.11
651.383,1021.79
651.515,1023.45
651.646,1023.24
651.778,1020.68
651.91,1022.21
652.041,1022.92
652.173,1023.81
652.304,1022.55
652.436,1022.88
652.568,1021.99
652.699,1022.21
652.831,1021.39
652.962,1020.88
653.094,1021.23
653.225,1019.9
653.357,1017.29
653.489,1018.08
653.62,1017.98
653.752,1017.56
653.883,1017.31
654.015,1016.31
654.146,1017.29
654.278,1016.98
654.409,1015.06
654.541,1013.24
654.672,1013.22
654.804,1012.41
654.935,1013.81
655.067,1013.54
655.199,1011.94
655.33,1011.74
655.462,1009.72
655.593,1009.87
655.725,1009.47
655.856,1010.02
655.988,1008.05
656.119,1007.21
656.251,1007.33
656.382,1008.09
656.514,1007.4
656.645,1005.58
656.777,1006.51
656.908,1006.12
657.04,1005.0
657.171,1005.29
657.303,1003.61
657.434,1005.26
657.566,1004.95
657.697,1004.89
657.829,1002.66
657.96,1001.64
658.092,1003.73
658.223,1002.6
658.355,1002.0
658.486,1003.9
658.617,1003.48
658.749,1001.87
658.88,1001.25
659.012,999.87
659.143,1000.49
659.275,1002.33
659.406,1001.09
659.538,998.66
659.669,999.33
659.801,998.46
659.932,999.81
660.064,998.31
660.195,998.68
660.326,997.75
660.458,996.92
660.589,998.68
660.721,997.51
660.852,996.02
660.984,996.2
661.115,995.63
661.246,995.69
661.378,996.4
661.509,994.69
661.641,994.88
661.772,996.95
661.904,994.55
662.035,995.83
662.166,992.29
662.298,995.46
662.429,994.5
662.561,993.76
662.692,993.9
662.823,993.87
662.955,993.8
663.086,991.78