File: spectra/VLFR_06-PET_bio_Raman_a6118dbe.csv
nm,Intensity
528.65,1846.9
528.819,1848.05
528.987,1847.25
529.155,1846.45
529.324,1846.35
529.492,1847.4
529.66,1846.45
529.829,1845.85
529.997,1847.65
530.165,1847.55
530.334,1845.95
530.502,1847.05
530.67,1848.0
530.839,1846.5
531.007,1850.8
531.175,1849.45
531.344,1851.4
531.512,1855.1
531.68,1882.4
531.848,2318.45
532.017,3884.9
532.185,3568.35
532.353,2077.45
532.521,1855.55
532.69,1851.45
532.858,1854.2
533.026,1854.9
533.194,1860.7
533.363,1887.3
533.531,2152.7
533.699,3813.85
533.867,6954.6
534.036,8284.5
534.204,8116.9
534.372,7726.6
534.54,7107.65
534.708,6664.65
534.877,6287.6
535.045,5755.1
535.213,5394.95
535.381,4937.0
535.549,4628.85
535.717,4245.05
535.886,3926.3
536.054,3774.85
536.222,3632.3
536.39,3519.15
536.558,3407.0
536.726,3328.7
536.894,3305.0
537.062,3301.5
537.231,3267.85
537.399,3241.2
537.567,3240.15
537.735,3243.25
537.903,3217.75
538.071,3235.15
538.239,3302.25
538.407,3265.15
538.575,3283.35
538.743,3284.3
538.911,3334.45
539.079,3324.45
539.247,3384.85
539.415,3387.45
539.583,3461.7
539.751,3505.35
539.919,3475.1
540.087,3420.1
540.255,3369.6
540.423,3331.6
540.591,3249.0
540.759,3259.55
540.927,3233.7
541.095,3224.65
541.263,3198.2
541.431,3181.2
541.599,3175.25
541.767,3211.25
541.935,3209.95
542.103,3201.3
542.271,3259.9
542.439,3249.3
542.607,3276.05
542.775,3292.95
542.943,3270.9
543.111,3267.05
543.279,3281.7
543.446,3252.5
543.614,3291.4
543.782,3302.75
543.95,3322.35
544.118,3355.85
544.286,3319.5
544.454,3313.9
544.622,3333.65
544.789,3329.85
544.957,3328.2
545.125,3313.85
545.293,3373.05
545.461,3340.05
545.629,3362.85
545.796,3373.95
545.964,3390.7
546.132,3396.7
546.3,3401.0
546.468,3421.8
546.635,3428.55
546.803,3459.2
546.971,3463.55
547.139,3466.45
547.306,3494.6
547.474,3441.1
547.642,3477.95
547.81,3507.9
547.977,3494.55
548.145,3530.25
548.313,3529.15
548.481,3537.7
548.648,3550.35
548.816,3546.95
548.984,3521.15
549.151,3586.1
549.319,3546.15
549.487,3585.35
549.655,3597.85
549.822,3563.1
549.99,3587.9
550.158,3638.0
550.325,3729.85
550.493,4231.65
550.66,4684.0
550.828,4152.7
550.996,3753.75
551.163,3693.4
551.331,3765.7
551.499,3770.1
551.666,3725.45
551.834,3783.9
552.001,3747.95
552.169,3743.7
552.337,3856.95
552.504,3863.65
552.672,4047.7
552.839,4217.6
553.007,4073.55
553.174,3894.25
553.342,3849.25
553.509,3895.95
553.677,3894.05
553.844,3854.7
554.012,3889.95
554.179,3916.55
554.347,3897.8
554.514,3928.7
554.682,3955.65
554.849,4020.55
555.017,4015.35
555.184,4029.05
555.352,4160.05
555.519,4361.0
555.687,4478.85
555.854,4509.05
556.022,4481.7
556.189,4600.1
556.357,4572.65
556.524,4586.3
556.691,4623.1
556.859,4670.45
557.026,4755.3
557.194,5132.55
557.361,5500.85
557.528,5900.2
557.696,5775.45
557.863,5088.3
558.031,4871.6
558.198,4843.2
558.365,4821.55
558.533,4871.15
558.7,4744.15
558.867,4656.85
559.035,4519.35
559.202,4492.4
559.369,4396.0
559.537,4351.35
559.704,4376.65
559.871,4413.25
560.038,4347.75
560.206,4313.55
560.373,4363.35
560.54,4453.25
560.708,4424.5
560.875,4465.45
561.042,4449.55
561.209,4536.6
561.377,4582.05
561.544,4570.65
561.711,4561.75
561.878,4644.75
562.045,4767.3
562.213,4752.75
562.38,4723.5
562.547,4734.1
562.714,4813.15
562.881,4890.25
563.049,4856.45
563.216,4878.8
563.383,4811.25
563.55,4860.4
563.717,4847.3
563.884,4779.1
564.052,4750.15
564.219,4799.65
564.386,4920.3
564.553,4942.55
564.72,5031.1
564.887,5222.4
565.054,5328.85
565.221,5557.1
565.388,5598.15
565.556,5848.9
565.723,5928.55
565.89,5999.8
566.057,5692.6
566.224,5363.85
566.391,5343.55
566.558,5194.0
566.725,5015.2
566.892,5032.95
567.059,5061.15
567.226,5132.35
567.393,5308.7
567.56,5492.8
567.727,5588.8
567.894,5532.25
568.061,5301.15
568.228,5166.3
568.395,5160.7
568.562,5232.5
568.729,5142.15
568.896,5271.2
569.063,5171.8
569.23,5279.2
569.396,5291.65
569.563,5381.45
569.73,5377.8
569.897,5513.75
570.064,5600.5
570.231,5778.5
570.398,6002.35
570.565,6274.5
570.732,6614.65
570.898,6922.15
571.065,7455.15
571.232,7640.1
571.399,7655.4
571.566,7291.0
571.733,6763.6
571.9,6492.2
572.066,6381.05
572.233,6093.2
572.4,5948.75
572.567,5793.5
572.734,5619.05
572.9,5606.4
573.067,5603.25
573.234,5582.4
573.401,5583.15
573.567,5611.7
573.734,5617.2
573.901,5805.45
574.068,5875.65
574.234,5686.45
574.401,5743.5
574.568,5790.65
574.734,5642.1
574.901,5784.3
575.068,5920.3
575.235,6030.65
575.401,6050.0
575.568,5894.5
575.735,5874.4
575.901,5825.25
576.068,5956.05
576.235,6044.55
576.401,6153.05
576.568,6226.55
576.734,6164.25
576.901,6162.45
577.068,6035.7
577.234,6023.0
577.401,5922.15
577.567,5954.2
577.734,5842.75
577.901,5748.1
578.067,5870.75
578.234,5931.6
578.4,5919.4
578.567,5853.7
578.733,5818.6
578.9,5948.85
579.066,5870.1
579.233,5947.35
579.399,6017.1
579.566,6068.95
579.732,5914.95
579.899,6089.65
580.065,6194.55
580.232,6134.7
580.398,6064.5
580.565,6166.35
580.731,6295.5
580.898,6317.3
581.064,6317.45
581.231,6399.2
581.397,6525.45
581.563,6946.85
581.73,8109.1
581.896,10540.3
582.063,13788.7
582.229,14139.0
582.395,10036.5
582.562,7284.7
582.728,6567.85
582.895,6352.65
583.061,6325.6
583.227,6371.15
583.394,6330.45
583.56,6460.35
583.726,6310.6
583.893,6358.45
584.059,6327.85
584.225,6457.0
584.391,6386.75
584.558,6414.7
584.724,6476.35
584.89,6621.75
585.057,6724.25
585.223,7052.2
585.389,7693.4
585.555,9108.35
585.722,10565.4
585.888,11375.9
586.054,11122.4
586.22,10693.0
586.386,9687.2
586.553,8402.55
586.719,7430.35
586.885,6935.3
587.051,6823.2
587.217,6682.4
587.384,6572.4
587.55,6575.35
587.716,6665.25
587.882,6596.25
588.048,6525.9
588.214,6650.7
588.38,6625.8
588.546,6423.2
588.713,6573.15
588.879,6557.8
589.045,6650.6
589.211,6568.75
589.377,6566.6
589.543,6539.35
589.709,6490.45
589.875,6490.55
590.041,6463.35
590.207,6506.3
590.373,6686.7
590.539,6527.45
590.705,6548.35
590.871,6534.1
591.037,6569.2
591.203,6528.1
591.369,6642.8
591.535,6632.15
591.701,6651.35
591.867,6669.45
592.033,6642.9
592.199,6708.65
592.365,6610.95
592.531,6750.4
592.697,6670.95
592.863,6675.25
593.029,6590.45
593.195,6706.2
593.361,6663.25
593.526,6761.7
593.692,6664.5
593.858,6675.65
594.024,6602.1
594.19,6727.85
594.356,6725.3
594.522,6797.1
594.687,6666.75
594.853,6740.45
595.019,6748.5
595.185,6831.25
595.351,6801.2
595.516,6771.55
595.682,6777.15
595.848,6824.55
596.014,6795.4
596.18,6749.7
596.345,6933.05
596.511,6855.25
596.677,6773.5
596.843,6932.65
597.008,6921.35
597.174,6821.8
597.34,6744.0
597.505,6812.55
597.671,6841.6
597.837,6879.45
598.002,6790.1
598.168,6850.85
598.334,6852.95
598.499,6804.0
598.665,6877.65
598.831,6869.1
598.996,7000.2
599.162,6872.85
599.328,6891.1
599.493,6901.0
599.659,6818.6
599.824,6994.95
599.99,6985.9
600.156,6828.0
600.321,7021.2
600.487,6788.55
600.652,7024.05
600.818,6889.6
600.983,6916.6
601.149,6864.25
601.314,7007.3
601.48,7017.55
601.645,6979.05
601.811,6845.3
601.976,6998.2
602.142,6888.55
602.307,6932.5
602.473,6917.65
602.638,6911.0
602.804,7042.5
602.969,6806.8
603.135,7049.15
603.3,7164.35
603.466,6996.75
603.631,7040.5
603.796,6946.05
603.962,6960.75
604.127,7120.45
604.293,6925.1
604.458,6826.65
604.623,7103.5
604.789,6951.8
604.954,6968.4
605.119,6853.75
605.285,7086.3
605.45,7033.5
605.615,6920.45
605.781,6839.45
605.946,7011.5
606.111,7021.35
606.277,6952.3
606.442,7023.2
606.607,6946.75
606.772,6986.1
606.938,6954.4
607.103,6982.65
607.268,7274.05
607.433,6886.1
607.599,6888.1
607.764,7016.25
607.929,7106.0
608.094,6914.75
608.259,7026.45
608.425,7089.95
608.59,6967.55
608.755,6934.95
608.92,6978.2
609.085,6914.15
609.25,6932.3
609.415,7097.2
609.581,7053.05
609.746,7031.85
609.911,7029.7
610.076,6882.7
610.241,6975.8
610.406,6963.4
610.571,7029.9
610.736,7035.85
610.901,7050.3
611.066,7172.6
611.231,6909.45
611.396,6955.05
611.561,7077.0
611.727,7006.05
611.892,7049.75
612.057,6838.8
612.222,6973.75
612.386,6974.55
612.551,6943.0
612.716,7091.0
612.881,6817.25
613.046,7001.5
613.211,7107.95
613.376,7006.95
613.541,6993.9
613.706,7063.0
613.871,6972.55
614.036,7142.8
614.201,6955.3
614.366,7015.9
614.531,7069.6
614.695,6944.35
614.86,7055.2
615.025,7151.55
615.19,7058.7
615.355,6944.2
615.52,7111.1
615.684,7068.5
615.849,7106.1
616.014,7181.3
616.179,7048.15
616.344,6946.4
616.508,7168.85
616.673,7009.7
616.838,7132.45
617.003,7029.55
617.168,7157.6
617.332,7029.3
617.497,7043.7
617.662,7185.65
617.826,7333.15
617.991,7135.2
618.156,7024.05
618.32,7144.95
618.485,7123.05
618.65,7221.4
618.814,7181.0
618.979,7076.3
619.144,7036.2
619.308,7174.9
619.473,7042.65
619.638,7129.4
619.802,7069.15
619.967,7171.0
620.131,7095.0
620.296,7168.8
620.461,6964.1
620.625,7035.3
620.79,7228.8
620.954,7205.85
621.119,7080.1
621.283,7122.55
621.448,7090.75
621.612,7039.8
621.777,7166.8
621.941,7114.25
622.106,7174.75
622.27,7096.35
622.435,7196.05
622.599,7152.6
622.764,7232.05
622.928,7179.75
623.093,7101.55
623.257,7299.95
623.422,7189.25
623.586,7306.9
623.75,7143.3
623.915,7083.8
624.079,7270.45
624.244,7253.5
624.408,7217.9
624.572,7337.8
624.737,7232.1
624.901,7452.3
625.065,7269.8
625.23,7360.05
625.394,7281.6
625.558,7326.45
625.723,7163.4
625.887,7306.75
626.051,7367.2
626.215,7228.4
626.38,7253.95
626.544,7262.4
626.708,7228.35
626.872,7304.4
627.037,7325.3
627.201,7314.85
627.365,7372.0
627.529,7410.95
627.693,7427.85
627.858,7451.9
628.022,7439.5
628.186,7520.25
628.35,7693.45
628.514,7563.85
628.678,7553.7
628.843,7696.15
629.007,7669.2
629.171,7753.4
629.335,7870.9
629.499,7968.15
629.663,7531.8
629.827,7771.8
629.991,7779.6
630.155,7540.75
630.319,7728.6
630.483,7875.95
630.647,7810.9
630.812,7748.85
630.976,8122.6
631.14,8535.55
631.304,8855.15
631.468,9110.4
631.632,9402.2
631.796,9470.1
631.959,9205.85
632.123,9096.6
632.287,8858.6
632.451,8725.15
632.615,8669.25
632.779,8461.85
632.943,8424.95
633.107,8393.75
633.271,8528.5
633.435,8502.25
633.599,8172.75
633.763,8338.95
633.926,8212.6
634.09,8115.8
634.254,8052.9
634.418,8077.1
634.582,7884.4
634.746,7822.05
634.909,8081.45
635.073,8013.45
635.237,8154.3
635.401,8058.75
635.564,7976.0
635.728,8421.6
635.892,8655.1
636.056,8957.4
636.219,9277.25
636.383,9791.75
636.547,9783.95
636.711,9854.25
636.874,9312.0
637.038,8899.1
637.202,8425.55
637.365,8415.2
637.529,8332.65
637.693,8218.1
637.856,8088.6
638.02,8044.0
638.184,8201.25
638.347,8021.0
638.511,8170.2
638.674,7934.55
638.838,7856.65
639.002,8086.45
639.165,8079.0
639.329,7904.05
639.492,8083.25
639.656,8164.85
639.819,7856.8
639.983,7916.6
640.146,8111.65
640.31,7923.95
640.473,7897.75
640.637,7882.4
640.8,7896.5
640.964,7942.0
641.127,8238.95
641.291,8192.6
641.454,7854.8
641.618,7946.3
641.781,7859.95
641.944,8090.4
642.108,8085.85
642.271,8207.55
642.435,8048.4
642.598,8109.65
642.761,8020.7
642.925,7950.25
643.088,8237.45
643.251,7978.95
643.415,8016.95
643.578,8182.7
643.741,7944.8
643.905,8035.35
644.068,7937.0
644.231,8148.0
644.394,8092.15
644.558,7774.8
644.721,8134.15
644.884,7914.8
645.047,8033.45
645.211,7838.7
645.374,8221.8
645.537,8224.1
645.7,7999.55
645.863,8046.8
646.027,7955.3
646.19,8143.9
646.353,8008.15
646.516,7974.15
646.679,8153.35
646.842,7942.4
647.005,8083.3
647.169,7935.9
647.332,8044.1
647.495,8211.1
647.658,8036.2
647.821,7760.0
647.984,7944.05
648.147,8144.6
648.31,7930.7
648.473,7712.05
648.636,7927.65
648.799,7941.8
648.962,8004.3
649.125,7803.45
649.288,7961.2
649.451,7762.55
649.614,7822.55
649.777,7897.45
649.94,7882.1
650.103,7721.45
650.266,7718.0
650.429,7990.9
650.592,7773.45
650.755,7747.75
650.918,7708.05
651.08,7966.1
651.243,7743.55
651.406,7771.65
651.569,7607.3
651.732,7858.8
651.895,7803.85
652.058,7657.25
652.22,7709.3
652.383,7814.7
652.546,7533.55
652.709,7474.6
652.872,7482.8
653.034,7554.2
653.197,7299.15
653.36,7646.1
653.523,7501.85
653.685,7403.5
653.848,7585.5
654.011,7366.2
654.173,7243.2
654.336,7447.35
654.499,7322.55
654.662,7276.7
654.824,7455.35
654.987,7603.9
655.149,7254.2
655.312,7419.7
655.475,7289.3
655.637,7379.2
655.8,7298.15
655.963,7144.15
656.125,7350.25
656.288,7348.5
656.45,6976.75
656.613,7178.0
656.775,7272.3
656.938,7030.3
657.1,7131.15
657.263,7304.0
657.425,7039.7
657.588,6932.6
657.75,7072.65
657.913,7101.55
658.075,7079.4
658.238,7080.2
658.4,6846.2
658.563,6994.2
658.725,6773.55
658.888,6858.95
659.05,6784.55
659.212,7010.3
659.375,6824.4
659.537,6597.1
659.7,6894.75
659.862,6912.2
660.024,6887.25
660.187,6836.1
660.349,6846.55
660.511,6560.65
660.674,6470.5
660.836,6551.85
660.998,6840.45
661.079,6754.45