File: spectra/VLFR_07-PET_bio_Raman_e7fd8492.csv
nm,Intensity
791.377,9219.36
791.652,9039.2
791.927,8983.24
792.202,8812.6
792.477,8612.26
792.752,8442.06
793.027,8363.62
793.301,8380.04
793.576,8265.56
793.851,8208.46
794.126,8119.84
794.401,8094.02
794.676,8073.8
794.951,8013.3
795.225,7963.56
795.5,7940.92
795.775,7912.36
796.05,7940.92
796.325,7977.0
796.599,7945.26
796.874,7939.28
797.149,7922.86
797.424,7913.72
797.698,7943.48
797.973,7908.14
798.248,7897.06
798.523,7884.58
798.797,7904.7
799.072,7939.36
799.347,7885.36
799.622,7889.2
799.896,7888.14
800.171,7888.94
800.446,7875.62
800.72,7927.7
800.995,7888.34
801.27,7867.04
801.544,7893.46
801.819,7929.28
802.094,7874.44
802.368,7885.54
802.643,7819.82
802.918,7832.48
803.192,7862.12
803.467,7807.3
803.742,7730.92
804.016,7785.24
804.291,7728.86
804.565,7693.96
804.84,7681.7
805.114,7623.12
805.389,7671.16
805.664,7654.6
805.938,7670.02
806.213,7664.08
806.487,7569.6
806.762,7548.48
807.036,7583.8
807.311,7619.06
807.585,7604.24
807.86,7541.84
808.134,7631.26
808.409,7596.54
808.683,7538.86
808.958,7477.9
809.232,7463.74
809.507,7433.88
809.781,7428.46
810.056,7471.68
810.33,7472.02
810.605,7415.44
810.879,7452.54
811.153,7431.1
811.428,7422.18
811.702,7409.06
811.977,7457.82
812.251,7365.32
812.525,7344.08
812.8,7378.66
813.074,7279.84
813.349,7275.92
813.623,7233.36
813.897,7305.0
814.172,7266.8
814.446,7222.12
814.72,7242.82
814.995,7231.02
815.269,7201.36
815.543,7132.82
815.818,7107.8
816.092,7204.1
816.366,7275.84
816.64,7176.3
816.915,7160.04
817.189,7088.02
817.463,7075.22
817.737,7099.74
818.012,7107.04
818.286,6965.64
818.56,6991.4
818.834,7014.44
819.109,7037.98
819.383,6981.72
819.657,6960.18
819.931,6956.7
820.205,6951.1
820.48,6934.4
820.754,6949.38
821.028,6952.28
821.302,6925.3
821.576,6951.62
821.85,6889.36
822.125,6871.22
822.399,6846.8
822.673,6843.62
822.947,6827.64
823.221,6843.94
823.495,6804.66
823.769,6838.8
824.043,6804.44
824.317,6788.2
824.591,6762.1
824.865,6779.38
825.14,6779.02
825.414,6820.54
825.688,6884.96
825.962,6871.5
826.236,6917.68
826.51,6897.62
826.784,6733.22
827.058,6723.0
827.332,6686.9
827.606,6635.94
827.88,6625.34
828.154,6680.66
828.428,6661.96
828.702,6668.64
828.976,6649.4
829.249,6690.9
829.523,6659.84
829.797,6604.04
830.071,6599.32
830.345,6604.92
830.619,6637.7
830.893,6676.92
831.167,6669.68
831.441,6611.84
831.715,6535.68
831.988,6519.94
832.262,6554.88
832.536,6471.24
832.81,6506.4
833.084,6538.74
833.358,6454.24
833.632,6448.16
833.905,6496.28
834.179,6514.88
834.453,6439.7
834.727,6430.16
835.001,6450.36
835.274,6407.48
835.548,6412.48
835.822,6352.16
836.096,6385.22
836.369,6430.22
836.643,6443.48
836.917,6472.7
837.191,6481.9
837.464,6485.34
837.738,6480.16
838.012,6451.28
838.285,6468.84
838.559,6410.92
838.833,6401.06
839.106,6461.94
839.38,6443.48
839.654,6406.2
839.927,6438.18
840.201,6464.96
840.475,6479.38
840.748,6522.08
841.022,6516.0
841.295,6625.2
841.569,6640.26
841.843,6585.18
842.116,6506.82
842.39,6430.5
842.663,6426.78
842.937,6412.5
843.211,6414.62
843.484,6319.2
843.758,6336.6
844.031,6350.8
844.305,6303.9
844.578,6239.04
844.852,6208.8
845.125,6176.46
845.399,6117.88
845.672,6149.92
845.946,6160.94
846.219,6139.46
846.493,6118.66
846.766,6119.42
847.039,6146.4
847.313,6117.8
847.586,6079.26
847.86,6062.02
848.133,6050.2
848.407,6052.26
848.68,6065.04
848.953,6097.84
849.227,6046.14
849.5,5974.98
849.773,5995.94
850.047,5966.48
850.32,6021.4
850.593,6055.7
850.867,6014.98
851.14,6012.36
851.413,6027.38
851.687,6069.84
851.96,6146.96
852.233,6255.46
852.507,6289.74
852.78,6144.78
853.053,6074.48
853.326,6064.0
853.6,5978.98
853.873,5976.7
854.146,5974.14
854.419,5973.56
854.693,5995.96
854.966,5943.24
855.239,5889.42
855.512,5908.52
855.785,5883.24
856.059,5887.26
856.332,5892.84
856.605,5907.34
856.878,5881.1
857.151,5809.28
857.424,5831.6
857.698,5854.9
857.971,5903.06
858.244,5911.5
858.517,5920.62
858.79,5929.34
859.063,5945.7
859.336,5991.8
859.609,6016.68
859.882,6017.62
860.155,5978.16
860.428,5960.6
860.701,5962.74
860.974,5925.68
861.247,5928.24
861.52,5914.78
861.793,5846.88
862.066,5808.76
862.339,5764.26
862.612,5766.98
862.885,5776.9
863.158,5777.96
863.431,5779.84
863.704,5788.64
863.977,5794.16
864.25,5792.68
864.523,5794.38
864.796,5762.82
865.069,5731.14
865.342,5755.64
865.615,5763.2
865.888,5724.04
866.16,5696.3
866.433,5694.66
866.706,5695.7
866.979,5637.96
867.252,5665.96
867.525,5689.76
867.798,5658.38
868.07,5654.02
868.343,5657.58
868.616,5644.8
868.889,5593.0
869.162,5611.16
869.434,5674.82
869.707,5661.68
869.98,5678.38
870.253,5684.72
870.525,5694.46
870.798,5705.18
871.071,5704.52
871.344,5760.22
871.616,5722.44
871.889,5781.56
872.162,5830.72
872.434,5857.42
872.707,5891.28
872.98,5897.02
873.252,5913.56
873.525,5900.22
873.798,5859.48
874.07,5839.92
874.343,5792.96
874.615,5736.24
874.888,5702.34
875.161,5734.44
875.433,5683.38
875.706,5640.06
875.978,5582.52
876.251,5551.12
876.524,5563.32
876.796,5551.5
877.069,5545.36
877.341,5533.1
877.614,5506.44
877.886,5507.16
878.159,5521.12
878.431,5539.62
878.704,5499.24
878.976,5481.36
879.249,5497.98
879.521,5514.96
879.794,5504.92
880.066,5466.98
880.338,5454.22
880.611,5482.24
880.883,5494.94
881.156,5490.36
881.428,5475.18
881.7,5455.14
881.973,5404.54
882.245,5398.26
882.518,5439.02
882.79,5452.82
883.062,5465.76
883.335,5456.2
883.607,5419.02
883.879,5393.94
884.152,5411.78
884.424,5461.82
884.696,5462.96
884.968,5458.0
885.241,5427.68
885.513,5378.08
885.785,5372.54
886.058,5376.12
886.33,5373.16
886.602,5407.82
886.874,5385.44
887.146,5363.56
887.419,5348.8
887.691,5347.76
887.963,5346.84
888.235,5302.56
888.507,5285.12
888.78,5320.92
889.052,5308.62
889.324,5287.2
889.596,5296.94
889.868,5266.82
890.14,5240.26
890.412,5273.6
890.684,5289.86
890.957,5276.38
891.229,5289.82
891.501,5283.72
891.773,5243.9
892.045,5227.36
892.317,5254.82
892.589,5279.74
892.861,5275.26
893.133,5253.7
893.405,5217.7
893.677,5194.42
893.949,5199.06
894.221,5168.52
894.493,5177.42
894.765,5165.74
895.037,5131.54
895.309,5162.84
895.581,5196.58
895.853,5158.64
896.125,5158.3
896.397,5164.76
896.668,5160.42
896.94,5190.82
897.212,5246.22
897.484,5293.2
897.756,5389.46
898.028,5504.16
898.3,5628.22
898.571,5719.92
898.843,5711.24
899.115,5633.58
899.387,5554.58
899.659,5464.8
899.931,5352.2
900.202,5226.74
900.474,5129.82
900.746,5084.46
901.018,5046.64
901.289,5010.78
901.561,4992.02
901.833,4999.08
902.105,4993.26
902.376,4996.58
902.648,4998.66
902.92,5005.36
903.191,4991.46
903.463,5009.48
903.735,4983.2
904.006,4997.42
904.278,4980.34
904.55,4981.26
904.821,4964.04
905.093,4947.26
905.365,4959.1
905.636,5000.2
905.908,5039.02
906.179,5059.14
906.451,5076.68
906.722,5120.7
906.994,5193.1
907.266,5284.38
907.537,5277.12
907.809,5312.12
908.08,5348.14
908.352,5370.96
908.623,5325.34
908.895,5248.38
909.166,5166.42
909.438,5105.0
909.709,5066.02
909.981,5004.2
910.252,4933.9
910.523,4893.5
910.795,4876.38
911.066,4854.5
911.338,4814.18
911.609,4807.52
911.881,4830.98
912.152,4813.22
912.423,4801.72
912.695,4780.98
912.966,4763.28
913.237,4756.44
913.509,4762.42
913.78,4776.16
914.051,4734.52
914.323,4735.0
914.594,4710.82
914.865,4710.36
915.136,4717.62
915.408,4712.78
915.679,4713.9
915.95,4731.36
916.221,4714.54
916.493,4697.4
916.764,4700.36
917.035,4674.38
917.306,4654.84
917.578,4640.44
917.849,4645.24
918.12,4659.3
918.391,4664.42
918.662,4651.94
918.933,4651.72
919.204,4650.36
919.476,4646.22
919.747,4645.42
920.018,4628.3
920.289,4622.86
920.56,4623.8
920.831,4605.36
921.102,4572.62
921.373,4575.96
921.644,4572.08
921.915,4589.08
922.186,4559.88
922.457,4564.78
922.728,4574.64
922.999,4565.8
923.27,4547.82
923.541,4546.6
923.812,4542.82
924.083,4542.4
924.354,4533.54
924.625,4522.24
924.896,4510.16
925.167,4500.34
925.438,4495.94
925.709,4494.46
925.98,4487.76
926.251,4490.52
926.522,4501.86
926.792,4492.08
927.063,4483.94
927.334,4484.42
927.605,4467.9
927.876,4463.24
928.147,4457.82
928.417,4444.78
928.688,4436.52
928.959,4426.92
929.23,4412.94
929.501,4426.3
929.771,4427.34
930.042,4424.54
930.313,4413.9
930.584,4404.98
930.854,4394.1
931.125,4400.66
931.396,4407.7
931.666,4387.98
931.937,4373.98
932.208,4366.82
932.478,4379.64
932.749,4381.7
933.02,4374.5
933.29,4365.92
933.561,4365.82
933.832,4359.54
934.102,4348.1
934.373,4342.64
934.643,4345.26
934.914,4324.06
935.184,4308.34
935.455,4313.4
935.726,4296.5
935.996,4309.16
936.267,4329.08
936.537,4320.0
936.808,4320.56
937.078,4302.06
937.349,4302.74
937.619,4299.42
937.89,4285.28
938.16,4273.38
938.43,4267.54
938.701,4281.66
938.971,4292.18
939.242,4279.64
939.512,4259.98
939.782,4256.42
940.053,4246.14
940.323,4245.24
940.594,4249.42
940.864,4250.74
941.134,4237.96
941.405,4235.74
941.675,4236.94
941.945,4242.26
942.216,4232.32
942.486,4223.02
942.756,4217.28
943.026,4221.84
943.297,4226.56
943.567,4228.04
943.837,4214.8
944.107,4193.92
944.378,4185.0
944.648,4189.12
944.918,4183.48
945.188,4182.64
945.458,4180.9
945.729,4180.4
945.999,4175.28
946.269,4176.5
946.539,4176.82
946.809,4173.76
947.079,4159.82
947.349,4157.02
947.62,4158.24
947.89,4154.18
948.16,4147.22
948.43,4145.3
948.7,4159.1
948.97,4159.24
949.24,4148.5
949.51,4147.52
949.78,4135.12
950.05,4129.76
950.32,4129.2
950.59,4126.04
950.86,4130.82
951.13,4128.44
951.4,4123.46
951.67,4109.08
951.94,4107.86
952.21,4116.34
952.48,4112.62
952.75,4103.94
953.02,4107.6
953.289,4092.14
953.559,4088.26
953.829,4096.52
954.099,4094.64
954.369,4091.68
954.639,4088.86
954.909,4088.68
955.178,4090.9
955.448,4085.62
955.718,4081.58
955.988,4079.58
956.257,4061.04
956.527,4061.82
956.797,4061.9
957.067,4055.8
957.336,4061.24
957.606,4064.02
957.876,4059.8
958.146,4057.32
958.415,4056.58
958.685,4048.84
958.955,4048.66
959.224,4056.72
959.494,4049.12
959.764,4042.76
960.033,4042.1
960.303,4038.4
960.572,4041.66
960.842,4039.28
961.112,4032.54
961.381,4026.34
961.651,4032.32
961.92,4025.1
962.19,4028.4
962.459,4026.3
962.729,4021.12
962.998,4019.78
963.268,4020.0
963.537,4015.76
963.807,4010.66
964.076,4008.08
964.346,4002.46
964.615,4002.38
964.885,4010.9
965.154,4009.52
965.424,4004.12
965.693,4000.76
965.962,3996.78
966.232,3988.94
966.501,3993.5
966.771,3991.94
967.04,3989.2
967.309,3990.66
967.579,3986.28
967.848,3984.22
968.117,3982.7
968.387,3981.28
968.656,3987.16
968.925,3987.3
969.194,3980.2
969.464,3977.36
969.733,3977.7
970.002,3978.64
970.271,3973.2
970.541,3971.58
970.81,3972.74
971.079,3964.38
971.348,3966.44
971.617,3960.72
971.887,3958.86
972.156,3957.14
972.425,3956.54
972.694,3956.48
972.963,3962.96
973.232,3962.96
973.501,3961.72
973.77,3953.22
974.04,3955.08
974.309,3949.84
974.578,3946.74
974.847,3942.22
975.116,3940.04
975.385,3943.78
975.654,3943.18
975.923,3944.8
976.192,3945.88
976.461,3943.24
976.73,3938.54
976.999,3935.24
977.268,3931.12
977.537,3936.24
977.806,3936.1
978.074,3932.5
978.343,3931.5
978.612,3928.48
978.881,3927.04
979.15,3924.76
979.419,3925.44
979.688,3924.28
979.957,3921.66
980.225,3921.86
980.494,3918.26
980.763,3926.46
981.032,3927.64
981.301,3922.74
981.569,3916.36
981.838,3916.26
982.107,3915.24
982.376,3915.26
982.644,3912.94
982.913,3910.28
983.182,3908.18
983.451,3909.86
983.719,3906.2
983.988,3906.3
984.257,3906.12
984.525,3907.66
984.794,3905.6
985.063,3904.0
985.331,3903.68
985.6,3899.38
985.868,3900.72
986.137,3896.9
986.406,3896.56
986.674,3901.1
986.943,3901.06
987.211,3900.96
987.48,3895.0
987.748,3892.38
988.017,3893.06
988.285,3892.5
988.554,3891.3
988.822,3887.4
989.091,3888.0
989.359,3891.14
989.628,3890.24
989.896,3887.3
990.164,3884.76
990.433,3885.48
990.701,3883.48
990.97,3882.5
991.238,3883.58
991.506,3880.24
991.775,3878.66
992.043,3875.92
992.311,3874.54
992.58,3875.44
992.848,3874.98
993.116,3874.52
993.385,3875.0
993.653,3872.02
993.921,3870.2
994.19,3871.74
994.458,3872.38
994.726,3869.96
994.994,3869.2
995.262,3868.52
995.531,3866.0
995.799,3868.04
996.067,3867.12
996.335,3865.68
996.603,3864.04
996.872,3863.76
997.14,3866.38
997.408,3863.06
997.676,3862.38
997.944,3861.02
998.212,3860.98
998.48,3858.1
998.748,3856.14
999.016,3856.46
999.284,3856.66
999.552,3855.52
999.82,3856.02
1000.09,3855.64
1000.36,3852.3
1000.62,3851.98
1000.89,3850.28
1001.16,3848.76
1001.43,3852.0
1001.7,3850.16
1001.96,3852.82
1002.23,3853.16
1002.5,3848.78
1002.77,3847.16
1003.04,3844.84
1003.3,3847.56
1003.57,3846.52
1003.84,3846.54
1004.11,3845.56
1004.38,3844.8
1004.64,3845.26
1004.91,3847.78
1005.18,3844.8
1005.45,3842.86
1005.71,3839.28
1005.98,3839.96
1006.25,3837.78
1006.52,3839.42
1006.79,3838.72
1007.05,3839.92
1007.32,3837.38
1007.59,3837.1
1007.86,3836.14
1008.12,3836.84
1008.39,3834.04
1008.66,3834.58
1008.93,3833.18
1009.19,3835.9
1009.46,3832.5
1009.73,3832.54
1010.0,3831.24
1010.26,3830.34
1010.53,3829.26
1010.8,3827.52
1011.07,3829.58
1011.33,3828.14
1011.6,3828.72
1011.87,3828.46
1012.14,3828.76
1012.4,3827.06
1012.67,3828.2
1012.94,3826.76
1013.21,3826.5
1013.47,3827.44
1013.74,3827.88
1014.01,3825.86
1014.28,3825.64
1014.54,3824.28
1014.81,3826.72
1015.08,3824.66
1015.35,3823.34
1015.61,3825.68
1015.88,3825.36
1016.15,3824.1
1016.42,3822.94
1016.68,3823.28
1016.95,3823.16
1017.22,3821.24
1017.48,3822.22
1017.75,3821.74
1018.02,3820.42
1018.29,3818.16
1018.55,3817.82
1018.82,3819.88
1019.09,3819.5
1019.36,3819.24
1019.62,3818.76
1019.89,3817.8
1020.16,3816.96
1020.42,3817.84
1020.69,3817.92
1020.96,3821.12
1021.23,3822.42
1021.49,3823.14
1021.76,3822.56
1022.03,3824.16
1022.29,3824.74
1022.56,3824.88
1022.83,3825.5
1023.09,3826.38
1023.36,3824.84
1023.63,3821.66
1023.9,3821.84
1024.16,3819.54
1024.43,3820.52
1024.7,3820.34
1024.96,3818.32
1025.23,3815.12
1025.5,3815.92
1025.76,3816.4
1026.03,3814.1
1026.3,3811.76
1026.56,3810.34
1026.83,3809.4
1027.1,3810.06
1027.37,3810.28
1027.63,3808.5
1027.9,3807.94
1028.17,3806.86
1028.43,3806.56
1028.7,3805.56
1028.97,3804.92
1029.23,3805.06
1029.5,3803.04
1029.77,3803.14
1030.03,3803.02
1030.3,3800.4
1030.57,3803.02
1030.83,3801.26
1031.1,3800.76
1031.37,3800.32
1031.63,3800.18
1031.9,3800.48
1032.17,3800.96
1032.43,3799.84
1032.7,3799.3
1032.97,3800.38
1033.23,3800.28
1033.5,3800.7
1033.77,3802.18
1034.03,3802.88
1034.3,3805.6
1034.57,3805.32
1034.83,3805.26
1035.1,3806.9
1035.36,3806.94
1035.63,3805.36
1035.9,3804.84
1036.16,3804.84
1036.43,3802.64
1036.7,3801.6
1036.96,3801.28
1037.23,3799.6
1037.5,3800.36
1037.76,3799.62
1038.03,3796.94
1038.3,3797.22
1038.56,3795.42
1038.83,3795.76
1039.09,3795.5
1039.36,3794.54
1039.63,3794.46
1039.89,3794.54
1040.16,3793.48
1040.43,3792.18
1040.69,3793.48
1040.96,3791.84
1041.22,3791.0
1041.49,3791.3
1041.76,3791.26
1042.02,3791.38
1042.29,3791.7
1042.55,3789.76
1042.82,3791.14
1043.09,3788.9
1043.35,3790.2
1043.62,3790.68
1043.89,3789.42
1044.15,3789.22
1044.42,3790.44
1044.68,3789.54
1044.95,3789.24
1045.22,3789.36
1045.48,3789.1
1045.75,3788.4
1046.01,3787.74
1046.28,3787.4
1046.55,3788.46
1046.81,3787.74
1047.08,3789.0
1047.34,3788.56
1047.61,3787.56
1047.88,3787.32
1048.14,3788.38
1048.41,3786.82
1048.67,3787.28
1048.94,3788.44
1049.2,3787.26
1049.47,3787.06
1049.74,3787.08
1050.0,3786.54
1050.27,3787.08
1050.53,3787.38
1050.8,3786.5
1051.06,3786.5
1051.33,3787.48
1051.6,3786.88
1051.86,3787.36
1052.13,3787.1
1052.39,3787.32
1052.66,3786.76
1052.92,3786.36
1053.19,3786.16
1053.46,3786.1
1053.72,3785.88
1053.99,3787.58
1054.25,3785.8
1054.52,3785.52
1054.78,3785.82
1055.05,3784.62
1055.32,3786.7
1055.58,3785.52
1055.85,3786.04
1056.11,3785.96
1056.38,3784.58
1056.64,3785.28
1056.91,3784.9
1057.17,3784.02
1057.44,3785.34
1057.7,3785.02
1057.97,3785.04
1058.24,3783.98
1058.5,3784.04
1058.77,3784.62
1059.03,3784.44
1059.3,3783.98
1059.56,3784.12
1059.83,3784.22
1060.09,3784.52
1060.36,3785.4
1060.62,3784.92
1060.89,3783.84
1061.15,3784.86
1061.42,3784.84
1061.68,3783.86
1061.95,3784.68
1062.22,3784.68
1062.48,3783.56
1062.75,3783.3
1063.01,3784.04
1063.28,3783.16
1063.54,3784.56
1063.81,3784.5
1064.07,3783.54
1064.34,3783.6
1064.6,3784.52
1064.87,3782.8
1065.13,3783.42
1065.4,3783.42
1065.66,3783.7
1065.93,3782.86
1066.19,3782.66
1066.46,3783.38
1066.72,3783.96
1066.99,3782.44
1067.25,3783.5
1067.52,3782.52
1067.78,3781.72
1068.05,3782.34