File: spectra/VLFR_02-HDPE_bio_Raman_d53ac120.csv
nm,Intensity
526.547,832.55
526.684,832.85
526.821,832.15
526.958,833.05
527.095,832.15
527.232,831.85
527.368,833.05
527.505,833.25
527.642,832.25
527.779,831.4
527.916,832.45
528.052,831.9
528.189,832.05
528.326,832.4
528.463,832.6
528.599,832.3
528.736,831.6
528.873,832.0
529.009,832.0
529.146,833.1
529.283,832.35
529.419,831.55
529.556,831.5
529.693,831.25
529.829,832.1
529.966,831.45
530.103,832.6
530.239,832.4
530.376,831.75
530.512,832.2
530.649,831.6
530.785,831.2
530.922,832.95
531.059,831.25
531.195,832.45
531.332,832.25
531.468,832.2
531.605,832.15
531.741,832.45
531.878,833.9
532.014,843.15
532.151,891.85
532.287,883.65
532.423,840.3
532.56,832.85
532.696,832.4
532.833,832.85
532.969,831.95
533.106,832.55
533.242,832.55
533.378,832.75
533.515,832.85
533.651,834.4
533.787,839.9
533.924,869.25
534.06,899.5
534.196,908.55
534.333,908.0
534.469,903.0
534.605,904.05
534.742,902.65
534.878,904.25
535.014,903.95
535.15,901.55
535.287,896.15
535.423,890.2
535.559,885.0
535.695,878.1
535.832,873.55
535.968,870.2
536.104,868.3
536.24,868.35
536.376,866.1
536.513,866.25
536.649,863.45
536.785,862.8
536.921,864.3
537.057,862.75
537.193,862.35
537.329,863.8
537.465,861.25
537.602,863.95
537.738,862.2
537.874,861.95
538.01,863.65
538.146,863.5
538.282,861.3
538.418,860.35
538.554,861.65
538.69,859.3
538.826,860.05
538.962,858.75
539.098,857.75
539.234,858.1
539.37,855.15
539.506,856.55
539.642,856.45
539.778,856.2
539.914,855.4
540.05,854.0
540.186,853.75
540.322,855.95
540.458,853.95
540.594,854.5
540.729,854.5
540.865,854.4
541.001,855.0
541.137,854.4
541.273,856.35
541.409,854.55
541.545,855.05
541.68,854.55
541.816,854.45
541.952,856.95
542.088,854.85
542.224,854.15
542.36,856.15
542.495,855.1
542.631,856.3
542.767,855.4
542.903,855.6
543.038,855.05
543.174,855.8
543.31,854.75
543.446,855.2
543.581,855.7
543.717,856.6
543.853,855.25
543.988,854.0
544.124,856.65
544.26,856.65
544.395,856.1
544.531,857.0
544.667,856.35
544.802,856.35
544.938,855.85
545.074,856.6
545.209,857.95
545.345,856.25
545.481,857.85
545.616,856.85
545.752,856.7
545.887,856.05
546.023,857.5
546.158,856.9
546.294,855.5
546.43,857.4
546.565,857.9
546.701,858.25
546.836,857.65
546.972,856.45
547.107,857.3
547.243,857.2
547.378,858.65
547.514,858.3
547.649,858.15
547.785,857.75
547.92,859.1
548.056,858.8
548.191,860.25
548.326,857.35
548.462,858.45
548.597,857.5
548.733,858.55
548.868,857.7
549.004,858.3
549.139,857.8
549.274,858.0
549.41,858.85
549.545,856.85
549.68,860.2
549.816,859.75
549.951,857.8
550.086,857.4
550.222,857.25
550.357,857.35
550.492,858.25
550.628,857.7
550.763,857.45
550.898,858.2
551.034,858.25
551.169,859.5
551.304,858.4
551.439,859.5
551.575,858.8
551.71,859.15
551.845,859.75
551.98,857.15
552.116,858.35
552.251,858.55
552.386,859.2
552.521,858.2
552.656,859.25
552.792,857.75
552.927,860.1
553.062,860.7
553.197,860.5
553.332,861.6
553.467,860.15
553.603,863.5
553.738,861.6
553.873,861.85
554.008,860.45
554.143,862.75
554.278,863.25
554.413,862.25
554.548,861.9
554.683,863.85
554.819,861.65
554.954,863.1
555.089,860.4
555.224,862.75
555.359,862.45
555.494,862.7
555.629,863.4
555.764,861.75
555.899,863.55
556.034,864.3
556.169,863.6
556.304,863.15
556.439,863.4
556.574,864.05
556.709,863.9
556.844,865.05
556.979,867.0
557.114,867.4
557.249,864.35
557.384,866.1
557.519,866.0
557.653,867.5
557.788,868.15
557.923,867.7
558.058,867.45
558.193,869.4
558.328,869.35
558.463,869.45
558.598,869.0
558.733,870.8
558.867,868.3
559.002,867.25
559.137,866.7
559.272,868.0
559.407,868.55
559.542,865.35
559.677,864.25
559.811,866.7
559.946,868.6
560.081,866.6
560.216,866.5
560.351,866.35
560.485,865.45
560.62,865.25
560.755,865.3
560.89,864.85
561.024,866.95
561.159,864.75
561.294,865.7
561.429,865.9
561.563,865.15
561.698,865.25
561.833,866.85
561.967,867.55
562.102,867.4
562.237,869.9
562.371,868.5
562.506,869.35
562.641,869.95
562.775,871.6
562.91,869.45
563.045,871.05
563.179,872.55
563.314,874.4
563.449,874.2
563.583,877.5
563.718,885.45
563.853,909.65
563.987,984.65
564.122,1028.95
564.256,954.7
564.391,899.9
564.525,893.75
564.66,894.5
564.795,892.95
564.929,888.4
565.064,886.7
565.198,885.05
565.333,880.45
565.467,881.95
565.602,884.3
565.736,886.9
565.871,894.05
566.005,923.85
566.14,1003.85
566.274,1040.1
566.409,951.5
566.543,895.9
566.678,882.15
566.812,878.1
566.947,875.15
567.081,876.0
567.216,877.45
567.35,883.3
567.484,898.45
567.619,895.95
567.753,880.05
567.888,874.85
568.022,874.3
568.156,871.7
568.291,872.95
568.425,872.65
568.56,872.95
568.694,872.5
568.828,874.75
568.963,874.1
569.097,874.55
569.231,874.25
569.366,874.55
569.5,876.65
569.634,875.25
569.769,876.45
569.903,878.7
570.037,874.55
570.172,877.75
570.306,878.75
570.44,881.15
570.575,883.05
570.709,887.0
570.843,887.65
570.977,888.4
571.112,889.85
571.246,896.65
571.38,935.2
571.514,1078.05
571.649,1137.05
571.783,978.15
571.917,921.8
572.051,907.95
572.185,900.95
572.32,894.35
572.454,889.85
572.588,887.15
572.722,886.3
572.856,880.0
572.991,881.15
573.125,882.35
573.259,882.3
573.393,882.2
573.527,884.0
573.661,884.5
573.795,889.55
573.93,896.8
574.064,900.05
574.198,894.95
574.332,888.8
574.466,883.7
574.6,885.85
574.734,884.15
574.868,884.85
575.002,889.5
575.136,888.75
575.271,896.1
575.405,919.1
575.539,978.35
575.673,983.05
575.807,944.8
575.941,937.1
576.075,964.15
576.209,1020.35
576.343,1073.95
576.477,1049.3
576.611,998.9
576.745,987.5
576.879,991.95
577.013,997.65
577.147,995.6
577.281,979.9
577.415,954.95
577.549,932.1
577.683,922.9
577.817,912.65
577.951,911.0
578.085,909.1
578.218,907.35
578.352,905.25
578.486,906.25
578.62,906.75
578.754,905.9
578.888,909.4
579.022,907.45
579.156,910.05
579.29,908.75
579.424,908.75
579.557,913.75
579.691,911.75
579.825,912.5
579.959,910.75
580.093,911.65
580.227,913.5
580.361,914.1
580.494,916.05
580.628,917.45
580.762,918.25
580.896,919.95
581.03,917.3
581.164,918.1
581.297,920.05
581.431,921.3
581.565,921.0
581.699,921.6
581.832,923.1
581.966,924.2
582.1,924.2
582.234,928.15
582.368,926.85
582.501,927.95
582.635,929.75
582.769,926.75
582.903,934.75
583.036,930.75
583.17,931.55
583.304,933.45
583.437,938.9
583.571,933.45
583.705,936.1
583.838,936.65
583.972,937.6
584.106,939.55
584.24,940.25
584.373,944.65
584.507,942.8
584.641,947.4
584.774,945.35
584.908,944.95
585.041,948.15
585.175,947.85
585.309,951.9
585.442,953.25
585.576,951.65
585.71,954.5
585.843,956.1
585.977,956.95
586.11,955.15
586.244,960.75
586.378,959.65
586.511,965.2
586.645,962.85
586.778,965.4
586.912,968.05
587.045,969.9
587.179,973.1
587.313,973.3
587.446,972.6
587.58,977.5
587.713,977.0
587.847,979.8
587.98,979.0
588.114,980.1
588.247,982.65
588.381,986.25
588.514,988.75
588.648,988.4
588.781,992.15
588.915,994.55
589.048,994.4
589.182,994.65
589.315,996.05
589.449,1002.2
589.582,1001.1
589.715,1000.05
589.849,1004.35
589.982,1007.2
590.116,1010.25
590.249,1011.55
590.383,1010.5
590.516,1012.55
590.649,1016.8
590.783,1019.2
590.916,1019.3
591.05,1022.85
591.183,1020.7
591.316,1025.0
591.45,1029.1
591.583,1031.5
591.717,1034.85
591.85,1036.8
591.983,1031.75
592.117,1035.3
592.25,1039.6
592.383,1041.15
592.517,1041.7
592.65,1041.3
592.783,1038.85
592.917,1047.95
593.05,1045.55
593.183,1047.45
593.317,1047.45
593.45,1045.75
593.583,1051.75
593.717,1054.5
593.85,1054.2
593.983,1055.35
594.116,1056.35
594.25,1060.7
594.383,1060.35
594.516,1060.7
594.649,1064.0
594.783,1070.0
594.916,1067.8
595.049,1069.2
595.182,1068.25
595.316,1073.3
595.449,1075.55
595.582,1076.5
595.715,1079.55
595.849,1081.55
595.982,1082.4
596.115,1084.9
596.248,1086.2
596.381,1086.35
596.514,1089.85
596.648,1086.45
596.781,1091.9
596.914,1094.4
597.047,1099.65
597.18,1096.5
597.313,1099.35
597.447,1100.4
597.58,1103.7
597.713,1108.85
597.846,1107.05
597.979,1110.7
598.112,1111.7
598.245,1111.75
598.379,1117.15
598.512,1121.95
598.645,1117.45
598.778,1126.3
598.911,1125.8
599.044,1123.65
599.177,1130.2
599.31,1129.15
599.443,1130.25
599.576,1136.0
599.709,1131.9
599.842,1140.15
599.975,1137.05
600.109,1138.8
600.242,1137.9
600.375,1138.45
600.508,1140.6
600.641,1134.5
600.774,1131.8
600.907,1137.25
601.04,1141.4
601.173,1139.1
601.306,1139.05
601.439,1137.7
601.572,1135.6
601.705,1138.35
601.838,1139.45
601.971,1142.55
602.104,1143.45
602.237,1136.6
602.37,1137.9
602.503,1131.7
602.636,1133.35
602.768,1136.5
602.901,1131.95
603.034,1128.65
603.167,1127.75
603.3,1126.1
603.433,1126.1
603.566,1122.95
603.699,1119.5
603.832,1121.0
603.965,1116.85
604.098,1114.4
604.231,1111.1
604.364,1109.95
604.496,1104.1
604.629,1103.5
604.762,1104.2
604.895,1098.05
605.028,1095.65
605.161,1092.5
605.294,1092.45
605.427,1084.3
605.559,1084.05
605.692,1082.25
605.825,1077.9
605.958,1078.3
606.091,1071.35
606.224,1075.6
606.356,1068.0
606.489,1062.75
606.622,1064.95
606.755,1062.0
606.888,1058.1
607.02,1055.75
607.153,1057.9
607.286,1053.65
607.419,1052.05
607.552,1049.75
607.684,1042.1
607.817,1046.0
607.95,1044.5
608.083,1045.55
608.215,1044.6
608.348,1043.75
608.481,1041.6
608.614,1043.4
608.746,1033.95
608.879,1034.7
609.012,1035.05
609.145,1035.85
609.277,1033.8
609.41,1028.8
609.543,1027.95
609.675,1034.45
609.808,1028.7
609.941,1025.0
610.074,1023.75
610.206,1023.1
610.339,1022.5
610.472,1020.8
610.604,1018.6
610.737,1018.15
610.87,1019.3
611.002,1017.35
611.135,1017.3
611.268,1015.55
611.4,1012.55
611.533,1012.15
611.666,1015.3
611.798,1011.45
611.931,1009.45
612.063,1009.2
612.196,1008.25
612.329,1007.1
612.461,1012.5
612.594,1005.6
612.727,1007.8
612.859,1007.15
612.992,1010.25
613.124,1006.55
613.257,1008.15
613.39,1010.25
613.522,1006.25
613.655,1002.2
613.787,1002.6
613.92,1000.65
614.052,1004.5
614.185,1003.25
614.317,1003.4
614.45,999.0
614.583,1001.55
614.715,994.25
614.848,996.55
614.98,997.15
615.113,995.05
615.245,996.25
615.378,997.4
615.51,991.65
615.643,992.85
615.775,990.75
615.908,991.5
616.04,993.5
616.173,992.65
616.305,986.7
616.438,992.55
616.57,989.75
616.703,994.0
616.835,991.75
616.968,987.8
617.1,993.85
617.233,995.05
617.365,997.7
617.498,993.85
617.63,993.1
617.762,995.6
617.895,992.0
618.027,997.8
618.16,994.75
618.292,991.95
618.425,991.55
618.557,988.4
618.689,986.75
618.822,987.45
618.954,986.3
619.087,988.9
619.219,988.05
619.351,990.85
619.484,991.5
619.616,990.6
619.749,989.65
619.881,989.2
620.013,986.5
620.146,985.7
620.278,986.5
620.41,987.6
620.543,987.4
620.675,989.9
620.808,988.3
620.94,990.2
621.072,991.7
621.205,994.1
621.337,996.35
621.469,1003.6
621.602,1009.4
621.734,1020.2
621.866,1031.6
621.998,1038.6
622.131,1048.85
622.263,1057.5
622.395,1060.5
622.528,1050.3
622.66,1040.15
622.792,1017.6
622.925,1010.5
623.057,998.4
623.189,992.5
623.321,987.4
623.454,981.3
623.586,983.05
623.718,980.85
623.85,979.2
623.983,977.85
624.115,977.95
624.247,978.45
624.379,975.65
624.512,976.3
624.644,980.1
624.776,976.15
624.908,977.25
625.041,978.65
625.173,982.5
625.305,982.55
625.437,981.6
625.569,984.7
625.702,990.0
625.834,991.55
625.966,996.3
626.098,1006.1
626.23,1016.0
626.363,1039.35
626.495,1076.9
626.627,1154.0
626.759,1270.25
626.891,1476.35
627.024,1752.6
627.156,2034.7
627.288,2126.75
627.42,2036.85
627.552,1863.35
627.684,1722.65
627.816,1623.1
627.949,1582.1
628.081,1550.85
628.213,1582.95
628.345,1709.9
628.477,2034.25
628.609,2325.95
628.741,2042.05
628.874,1701.75
629.006,1586.1
629.138,1542.9
629.27,1519.05
629.402,1488.15
629.534,1441.05
629.666,1378.15
629.798,1329.25
629.93,1307.45
630.062,1284.9
630.195,1279.8
630.327,1273.0
630.459,1263.95
630.591,1250.6
630.723,1212.65
630.855,1172.9
630.987,1124.75
631.119,1083.8
631.251,1041.95
631.383,1015.55
631.515,1000.75
631.647,999.2
631.779,987.85
631.911,980.7
632.043,978.65
632.175,976.8
632.307,974.85
632.439,969.6
632.571,969.95
632.703,969.1
632.835,969.4
632.967,969.1
633.099,964.7
633.231,965.3
633.363,963.25
633.495,963.55
633.627,961.95
633.759,962.25
633.891,959.65
634.023,959.25
634.155,957.85
634.287,957.8
634.419,956.8
634.551,954.7
634.683,958.1
634.815,953.55
634.947,952.45
635.079,955.95
635.211,956.45
635.343,955.05
635.475,953.7
635.607,951.6
635.739,953.4
635.871,954.05
636.003,952.2
636.135,952.05
636.267,953.85
636.398,954.7
636.53,955.6
636.662,959.2
636.794,955.3
636.926,957.45
637.058,953.95
637.19,953.6
637.322,947.45
637.454,951.8
637.586,950.3
637.717,951.0
637.849,948.85
637.981,955.85
638.113,950.6
638.245,946.9
638.377,950.4
638.509,952.55
638.641,948.05
638.773,949.8
638.904,950.05
639.036,950.9
639.168,953.0
639.3,953.0
639.432,952.15
639.564,954.5
639.695,955.45
639.827,952.4
639.959,956.5
640.091,954.4
640.223,954.95
640.355,955.7
640.486,955.35
640.618,954.95
640.75,957.9
640.882,954.0
641.014,955.55
641.146,957.65
641.277,959.6
641.409,958.15
641.541,958.1
641.673,961.4
641.805,963.0
641.936,960.95
642.068,963.0
642.2,962.1
642.332,959.15
642.464,961.3
642.595,963.75
642.727,962.05
642.859,959.65
642.991,961.2
643.122,961.1
643.254,962.0
643.386,965.7
643.518,963.2
643.649,961.75
643.781,964.4
643.913,960.2
644.045,962.15
644.176,963.5
644.308,963.95
644.44,964.6
644.572,964.8
644.703,965.1
644.835,965.55
644.967,964.9
645.099,963.2
645.23,964.75
645.362,965.4
645.494,968.6
645.625,968.65
645.757,968.05
645.889,968.05
646.021,966.05
646.152,968.5
646.284,969.9
646.416,966.5
646.547,967.35
646.679,968.85
646.811,970.85
646.942,973.95
647.074,970.6
647.206,971.7
647.337,967.55
647.469,971.65
647.601,972.8
647.732,971.25
647.864,970.75
647.996,969.2
648.127,971.8
648.259,971.55
648.391,972.05
648.522,972.35
648.654,971.25
648.786,974.7
648.917,974.85
649.049,972.05
649.181,972.55
649.312,971.75
649.444,973.25
649.576,971.6
649.707,970.05
649.839,974.9
649.971,973.1
650.102,972.5
650.234,971.65
650.365,973.75
650.497,973.6
650.629,973.1
650.76,971.25
650.892,973.3
651.023,974.2
651.155,970.55
651.287,970.0
651.418,975.85
651.55,973.3
651.682,973.65
651.813,975.8
651.945,973.45
652.076,977.55
652.208,979.35
652.339,974.25
652.471,974.0
652.603,976.3
652.734,974.95
652.866,976.7
652.997,974.15
653.129,978.25
653.261,976.85
653.392,975.9
653.524,975.9
653.655,976.05
653.787,977.35
653.918,974.6
654.05,978.85
654.181,976.7
654.313,975.85
654.445,977.5
654.576,976.7
654.708,975.85
654.839,976.05
654.971,977.05
655.102,973.15
655.234,972.95
655.365,973.1
655.497,973.55
655.628,975.8
655.76,972.8
655.892,975.6
656.023,972.35
656.155,972.95
656.286,970.2
656.418,972.35
656.549,969.1
656.681,969.55
656.812,969.0
656.944,973.75
657.075,969.05
657.207,968.9
657.338,967.55
657.47,969.4
657.601,967.25
657.733,966.15
657.864,966.5
657.996,965.45
658.127,966.9
658.259,964.95
658.39,965.4
658.522,964.05
658.653,959.55
658.785,960.6
658.916,961.2
659.048,959.95
659.179,956.6
659.311,959.7
659.442,960.65
659.574,960.15
659.705,958.0
659.836,954.6
659.968,956.3
660.099,955.05
660.231,954.9
660.362,951.1
660.494,951.95
660.625,949.85
660.757,946.35
660.888,947.8
661.02,948.0
661.151,946.2
661.283,942.85
661.414,945.4
661.545,946.9
661.677,940.3
661.808,940.45
661.94,939.0
662.071,936.8
662.203,935.6
662.334,935.85
662.466,936.35
662.597,937.05
662.728,934.6
662.86,931.55
662.991,932.2
663.123,932.05