File: spectra/VLFR_01-LDPE_bio_Raman_6e77e23d.csv
nm,Intensity
528.65,1837.9
528.819,1838.4
528.987,1837.25
529.155,1837.4
529.324,1836.7
529.492,1836.8
529.66,1838.45
529.829,1837.45
529.997,1836.65
530.165,1837.35
530.334,1838.55
530.502,1837.6
530.67,1836.9
530.839,1838.35
531.007,1837.9
531.175,1838.05
531.344,1838.7
531.512,1839.25
531.68,1849.75
531.848,2011.55
532.017,2436.8
532.185,2178.3
532.353,1853.0
532.521,1839.3
532.69,1839.05
532.858,1838.25
533.026,1839.45
533.194,1838.25
533.363,1839.55
533.531,1853.9
533.699,1929.6
533.867,2027.35
534.036,2075.3
534.204,2075.8
534.372,2056.35
534.54,2043.45
534.708,2046.7
534.877,2041.9
535.045,2041.0
535.213,2028.6
535.381,2013.45
535.549,2007.8
535.717,1997.65
535.886,1997.75
536.054,1981.15
536.222,1975.45
536.39,1973.2
536.558,1961.95
536.726,1967.55
536.894,1965.45
537.062,1969.35
537.231,1971.15
537.399,1973.5
537.567,1967.15
537.735,1966.15
537.903,1966.9
538.071,1961.0
538.239,1959.0
538.407,1953.0
538.575,1945.95
538.743,1948.5
538.911,1941.5
539.079,1939.95
539.247,1939.35
539.415,1941.1
539.583,1932.3
539.751,1925.55
539.919,1931.85
540.087,1930.55
540.255,1926.7
540.423,1923.85
540.591,1925.65
540.759,1930.1
540.927,1923.25
541.095,1925.3
541.263,1923.3
541.431,1921.6
541.599,1922.1
541.767,1927.2
541.935,1924.15
542.103,1926.45
542.271,1921.85
542.439,1923.3
542.607,1922.2
542.775,1925.1
542.943,1923.3
543.111,1925.95
543.279,1922.3
543.446,1925.95
543.614,1923.4
543.782,1930.55
543.95,1930.4
544.118,1933.9
544.286,1933.3
544.454,1938.15
544.622,1939.2
544.789,1944.7
544.957,1948.05
545.125,1965.3
545.293,1978.2
545.461,1995.5
545.629,2010.1
545.796,2046.1
545.964,2053.65
546.132,2036.95
546.3,2010.8
546.468,1983.7
546.635,1966.95
546.803,1954.75
546.971,1940.2
547.139,1932.35
547.306,1929.3
547.474,1925.65
547.642,1923.55
547.81,1925.55
547.977,1931.05
548.145,1929.3
548.313,1922.65
548.481,1926.2
548.648,1929.95
548.816,1922.25
548.984,1928.9
549.151,1928.2
549.319,1931.95
549.487,1940.4
549.655,1948.4
549.822,1952.85
549.99,1947.45
550.158,1941.7
550.325,1953.8
550.493,1963.4
550.66,1984.0
550.828,1979.7
550.996,1965.55
551.163,1939.6
551.331,1938.6
551.499,1940.35
551.666,1935.35
551.834,1931.9
552.001,1927.7
552.169,1928.5
552.337,1924.15
552.504,1925.85
552.672,1923.0
552.839,1927.45
553.007,1937.7
553.174,1932.35
553.342,1941.2
553.509,1936.4
553.677,1939.65
553.844,1938.9
554.012,1944.5
554.179,1941.75
554.347,1940.6
554.514,1940.85
554.682,1950.4
554.849,1944.8
555.017,1945.65
555.184,1941.15
555.352,1946.15
555.519,1944.55
555.687,1949.9
555.854,1950.35
556.022,1953.9
556.189,1955.8
556.357,1959.2
556.524,1962.95
556.691,1958.5
556.859,1964.6
557.026,1976.65
557.194,1971.7
557.361,1972.4
557.528,1977.65
557.696,1983.9
557.863,1986.8
558.031,1984.35
558.198,1994.6
558.365,1996.15
558.533,1996.15
558.7,1994.1
558.867,1987.95
559.035,1981.1
559.202,1979.1
559.369,1970.4
559.537,1978.7
559.704,1975.25
559.871,1970.45
560.038,1971.3
560.206,1972.9
560.373,1974.0
560.54,1976.25
560.708,1978.0
560.875,1977.85
561.042,1980.0
561.209,1997.3
561.377,2002.0
561.544,2029.05
561.711,2097.95
561.878,2209.25
562.045,2376.3
562.213,2595.6
562.38,2694.15
562.547,2502.9
562.714,2244.9
562.881,2090.9
563.049,2045.5
563.216,2030.5
563.383,2035.55
563.55,2069.8
563.717,2137.15
563.884,2304.0
564.052,2384.75
564.219,2230.2
564.386,2142.45
564.553,2121.35
564.72,2102.65
564.887,2105.0
565.054,2088.15
565.221,2082.55
565.388,2078.5
565.556,2106.6
565.723,2156.5
565.89,2311.15
566.057,2519.15
566.224,2476.7
566.391,2238.5
566.558,2121.4
566.725,2092.05
566.892,2060.95
567.059,2053.0
567.226,2061.9
567.393,2055.35
567.56,2050.6
567.727,2030.65
567.894,2027.9
568.061,2021.5
568.228,2027.15
568.395,2019.25
568.562,2023.8
568.729,2018.6
568.896,2024.3
569.063,2025.65
569.23,2021.0
569.396,2026.4
569.563,2027.25
569.73,2024.7
569.897,2023.1
570.064,2033.85
570.231,2034.25
570.398,2057.55
570.565,2054.7
570.732,2077.05
570.898,2081.35
571.065,2103.25
571.232,2215.3
571.399,2524.9
571.566,2656.5
571.733,2350.6
571.9,2228.1
572.066,2164.6
572.233,2141.25
572.4,2100.15
572.567,2093.6
572.734,2072.25
572.9,2072.3
573.067,2075.75
573.234,2070.25
573.401,2067.75
573.567,2081.0
573.734,2095.55
573.901,2111.05
574.068,2117.4
574.234,2092.1
574.401,2083.0
574.568,2077.2
574.734,2082.4
574.901,2090.9
575.068,2107.4
575.235,2172.55
575.401,2337.3
575.568,2437.0
575.735,2368.8
575.901,2378.15
576.068,2478.7
576.235,2563.85
576.401,2534.35
576.568,2466.7
576.734,2443.25
576.901,2439.2
577.068,2398.8
577.234,2325.45
577.401,2258.6
577.567,2215.05
577.734,2208.45
577.901,2202.7
578.067,2204.25
578.234,2199.05
578.4,2194.9
578.567,2200.0
578.733,2213.85
578.9,2229.3
579.066,2235.2
579.233,2235.95
579.399,2254.4
579.566,2259.4
579.732,2261.5
579.899,2269.75
580.065,2276.6
580.232,2301.35
580.398,2293.6
580.565,2315.6
580.731,2323.45
580.898,2321.35
581.064,2341.55
581.231,2340.75
581.397,2363.95
581.563,2368.6
581.73,2375.6
581.896,2383.9
582.063,2381.0
582.229,2374.35
582.395,2390.35
582.562,2416.75
582.728,2408.25
582.895,2439.4
583.061,2424.8
583.227,2443.3
583.394,2460.95
583.56,2439.55
583.726,2485.0
583.893,2482.8
584.059,2497.9
584.225,2497.9
584.391,2492.5
584.558,2494.1
584.724,2524.3
584.89,2510.2
585.057,2518.45
585.223,2520.2
585.389,2529.05
585.555,2548.85
585.722,2565.2
585.888,2565.35
586.054,2566.65
586.22,2584.8
586.386,2594.35
586.553,2620.45
586.719,2597.3
586.885,2621.95
587.051,2640.4
587.217,2630.55
587.384,2614.3
587.55,2660.7
587.716,2685.25
587.882,2680.85
588.048,2695.9
588.214,2686.75
588.38,2701.1
588.546,2713.8
588.713,2723.55
588.879,2732.1
589.045,2744.0
589.211,2751.55
589.377,2731.5
589.543,2785.65
589.709,2755.95
589.875,2784.1
590.041,2793.95
590.207,2791.6
590.373,2835.25
590.539,2843.75
590.705,2832.1
590.871,2850.65
591.037,2858.6
591.203,2886.6
591.369,2888.25
591.535,2900.35
591.701,2911.45
591.867,2916.0
592.033,2945.65
592.199,2909.8
592.365,2932.55
592.531,2939.75
592.697,2920.25
592.863,2999.15
593.029,2955.95
593.195,2983.9
593.361,2954.05
593.526,2979.25
593.692,3030.35
593.858,2984.6
594.024,3000.45
594.19,2982.3
594.356,3049.95
594.522,3042.45
594.687,3052.65
594.853,3035.5
595.019,3026.7
595.185,3081.25
595.351,3094.45
595.516,3103.9
595.682,3132.25
595.848,3128.0
596.014,3123.65
596.18,3142.5
596.345,3151.5
596.511,3203.05
596.677,3195.6
596.843,3211.15
597.008,3163.65
597.174,3263.7
597.34,3278.45
597.505,3201.35
597.671,3246.65
597.837,3288.3
598.002,3296.6
598.168,3322.65
598.334,3310.05
598.499,3330.8
598.665,3362.35
598.831,3376.8
598.996,3372.05
599.162,3363.15
599.328,3416.15
599.493,3425.15
599.659,3462.25
599.824,3420.45
599.99,3478.7
600.156,3430.65
600.321,3439.7
600.487,3454.05
600.652,3467.3
600.818,3471.15
600.983,3451.55
601.149,3474.65
601.314,3447.1
601.48,3496.35
601.645,3401.45
601.811,3475.2
601.976,3491.0
602.142,3438.4
602.307,3428.1
602.473,3476.55
602.638,3424.7
602.804,3381.9
602.969,3397.55
603.135,3365.1
603.3,3376.0
603.466,3423.55
603.631,3357.15
603.796,3315.1
603.962,3318.55
604.127,3293.15
604.293,3286.15
604.458,3288.8
604.623,3271.7
604.789,3257.6
604.954,3207.85
605.119,3203.4
605.285,3205.0
605.45,3167.65
605.615,3129.25
605.781,3121.85
605.946,3136.85
606.111,3133.45
606.277,3083.45
606.442,3072.05
606.607,3031.7
606.772,3057.1
606.938,3034.3
607.103,2996.2
607.268,3005.9
607.433,2984.65
607.599,2982.35
607.764,2976.4
607.929,2955.8
608.094,2917.5
608.259,2926.1
608.425,2903.75
608.59,2920.35
608.755,2863.45
608.92,2896.3
609.085,2861.75
609.25,2857.6
609.415,2839.75
609.581,2837.25
609.746,2859.45
609.911,2846.65
610.076,2827.05
610.241,2788.9
610.406,2810.8
610.571,2829.7
610.736,2804.4
610.901,2793.0
611.066,2769.15
611.231,2787.9
611.396,2787.0
611.561,2767.05
611.727,2734.1
611.892,2741.65
612.057,2737.4
612.222,2732.75
612.386,2721.65
612.551,2693.75
612.716,2716.5
612.881,2706.5
613.046,2696.7
613.211,2666.0
613.376,2652.8
613.541,2660.9
613.706,2652.1
613.871,2659.2
614.036,2660.65
614.201,2668.2
614.366,2620.3
614.531,2630.7
614.695,2625.4
614.86,2655.3
615.025,2609.9
615.19,2611.8
615.355,2610.15
615.52,2602.4
615.684,2602.9
615.849,2601.05
616.014,2581.35
616.179,2597.45
616.344,2600.05
616.508,2571.5
616.673,2557.2
616.838,2578.75
617.003,2566.1
617.168,2584.65
617.332,2565.95
617.497,2554.2
617.662,2566.55
617.826,2541.35
617.991,2542.9
618.156,2542.15
618.32,2557.3
618.485,2557.5
618.65,2524.0
618.814,2538.2
618.979,2533.3
619.144,2526.5
619.308,2520.55
619.473,2538.45
619.638,2549.5
619.802,2529.3
619.967,2511.7
620.131,2497.75
620.296,2521.6
620.461,2528.0
620.625,2530.3
620.79,2532.45
620.954,2544.9
621.119,2526.0
621.283,2533.8
621.448,2538.85
621.612,2564.85
621.777,2572.7
621.941,2606.65
622.106,2603.15
622.27,2596.9
622.435,2617.5
622.599,2588.5
622.764,2546.55
622.928,2502.4
623.093,2486.3
623.257,2486.9
623.422,2485.75
623.586,2466.15
623.75,2468.95
623.915,2476.2
624.079,2468.4
624.244,2453.4
624.408,2461.1
624.572,2444.65
624.737,2445.45
624.901,2465.1
625.065,2471.1
625.23,2442.95
625.394,2472.75
625.558,2471.85
625.723,2495.25
625.887,2508.05
626.051,2532.65
626.215,2575.4
626.38,2666.2
626.544,2818.4
626.708,3167.3
626.872,3829.8
627.037,4414.55
627.201,4749.55
627.365,4588.9
627.529,4308.65
627.693,4022.2
627.858,3795.0
628.022,3800.65
628.186,4006.25
628.35,4563.05
628.514,4730.15
628.678,4426.1
628.843,4178.7
629.007,4086.75
629.171,3947.45
629.335,3837.4
629.499,3709.45
629.663,3538.55
629.827,3466.15
629.991,3475.55
630.155,3435.55
630.319,3391.75
630.483,3295.6
630.647,3237.65
630.812,3043.2
630.976,2904.7
631.14,2732.95
631.304,2651.45
631.468,2613.75
631.632,2596.65
631.796,2562.2
631.959,2529.95
632.123,2490.9
632.287,2480.6
632.451,2464.95
632.615,2472.1
632.779,2450.6
632.943,2435.85
633.107,2439.9
633.271,2432.45
633.435,2426.2
633.599,2429.7
633.763,2463.6
633.926,2422.25
634.09,2441.2
634.254,2427.55
634.418,2424.85
634.582,2401.15
634.746,2425.25
634.909,2419.6
635.073,2422.35
635.237,2405.4
635.401,2426.45
635.564,2401.0
635.728,2414.05
635.892,2419.4
636.056,2409.85
636.219,2409.55
636.383,2409.35
636.547,2416.75
636.711,2397.85
636.874,2422.5
637.038,2409.25
637.202,2416.6
637.365,2416.2
637.529,2390.2
637.693,2402.5
637.856,2418.8
638.02,2406.2
638.184,2414.7
638.347,2406.75
638.511,2408.65
638.674,2401.6
638.838,2424.3
639.002,2437.8
639.165,2401.45
639.329,2425.95
639.492,2420.8
639.656,2416.05
639.819,2423.55
639.983,2420.8
640.146,2404.2
640.31,2408.8
640.473,2427.15
640.637,2440.15
640.8,2432.0
640.964,2402.85
641.127,2404.8
641.291,2452.6
641.454,2418.15
641.618,2408.4
641.781,2443.35
641.944,2433.4
642.108,2422.8
642.271,2447.35
642.435,2451.55
642.598,2457.6
642.761,2432.05
642.925,2439.2
643.088,2441.8
643.251,2437.75
643.415,2449.95
643.578,2424.4
643.741,2440.6
643.905,2481.4
644.068,2461.0
644.231,2451.05
644.394,2432.15
644.558,2458.8
644.721,2458.8
644.884,2458.6
645.047,2436.95
645.211,2469.9
645.374,2455.85
645.537,2469.95
645.7,2457.65
645.863,2488.9
646.027,2430.95
646.19,2432.55
646.353,2447.65
646.516,2473.8
646.679,2434.8
646.842,2457.0
647.005,2462.9
647.169,2454.0
647.332,2448.15
647.495,2459.95
647.658,2462.15
647.821,2461.55
647.984,2435.05
648.147,2451.25
648.31,2436.85
648.473,2441.7
648.636,2459.65
648.799,2443.95
648.962,2446.95
649.125,2440.65
649.288,2427.8
649.451,2430.95
649.614,2445.75
649.777,2463.1
649.94,2468.7
650.103,2446.5
650.266,2430.4
650.429,2466.45
650.592,2457.8
650.755,2433.15
650.918,2453.95
651.08,2433.5
651.243,2458.9
651.406,2428.4
651.569,2458.5
651.732,2446.45
651.895,2436.85
652.058,2453.3
652.22,2434.95
652.383,2432.75
652.546,2421.45
652.709,2462.35
652.872,2428.15
653.034,2438.4
653.197,2452.0
653.36,2465.35
653.523,2431.35
653.685,2432.4
653.848,2422.85
654.011,2425.15
654.173,2424.35
654.336,2428.2
654.499,2435.05
654.662,2405.55
654.824,2413.5
654.987,2430.8
655.149,2405.65
655.312,2422.05
655.475,2419.75
655.637,2412.45
655.8,2414.55
655.963,2427.35
656.125,2421.55
656.288,2406.45
656.45,2383.4
656.613,2375.4
656.775,2383.35
656.938,2371.8
657.1,2380.5
657.263,2382.45
657.425,2388.6
657.588,2366.65
657.75,2354.7
657.913,2357.25
658.075,2351.0
658.238,2333.35
658.4,2353.85
658.563,2352.05
658.725,2321.9
658.888,2323.2
659.05,2294.45
659.212,2320.35
659.375,2319.85
659.537,2309.75
659.7,2290.7
659.862,2292.55
660.024,2272.25
660.187,2273.8
660.349,2296.15
660.511,2285.6
660.674,2270.25
660.836,2243.1
660.998,2256.55
661.079,2257.0