File: spectra/VLFR_07-PET_nobio_Raman_6e0086b3.csv
nm,Intensity
791.75,12956.2
792.024,12808.3
792.298,12493.8
792.572,12138.3
792.846,12093.2
793.12,12006.4
793.394,11975.2
793.668,11651.8
793.942,11581.5
794.215,11475.2
794.489,11589.8
794.763,11610.1
795.037,11596.8
795.311,11443.2
795.585,11544.0
795.859,11349.2
796.133,11257.5
796.407,11381.0
796.681,11413.0
796.955,11383.5
797.228,11362.0
797.502,11489.1
797.776,11354.2
798.05,11338.3
798.324,11270.5
798.598,11196.5
798.871,11190.5
799.145,11253.7
799.419,11286.3
799.693,11232.8
799.967,11304.4
800.241,11168.3
800.514,11097.6
800.788,11259.4
801.062,11269.2
801.336,11178.9
801.61,11251.5
801.883,11121.9
802.157,11224.6
802.431,11107.3
802.705,11040.8
802.978,10908.5
803.252,10863.7
803.526,10710.3
803.8,10791.7
804.073,10719.4
804.347,10610.3
804.621,10765.0
804.894,10731.2
805.168,10689.4
805.442,10590.2
805.715,10470.8
805.989,10591.2
806.263,10680.5
806.536,10684.3
806.81,10520.3
807.084,10426.3
807.357,10483.0
807.631,10570.5
807.905,10490.8
808.178,10304.3
808.452,10340.2
808.726,10338.4
808.999,10393.7
809.273,10445.8
809.546,10344.7
809.82,10200.5
810.094,10281.2
810.367,10181.8
810.641,10214.5
810.914,10238.5
811.188,10192.3
811.461,10244.3
811.735,10256.5
812.008,10148.3
812.282,10045.7
812.556,10100.3
812.829,10170.3
813.103,10170.7
813.376,10173.1
813.65,10002.1
813.923,9885.75
814.197,9889.8
814.47,9975.25
814.744,10029.5
815.017,10023.3
815.29,10087.8
815.564,9939.2
815.837,9886.5
816.111,9898.8
816.384,9803.8
816.658,10072.1
816.931,10026.0
817.205,9748.2
817.478,9737.35
817.751,9772.8
818.025,9752.55
818.298,9675.8
818.572,9797.35
818.845,9728.45
819.118,9704.5
819.392,9742.45
819.665,9749.8
819.938,9657.0
820.212,9628.75
820.485,9553.9
820.758,9586.5
821.032,9636.95
821.305,9545.65
821.578,9477.5
821.852,9511.1
822.125,9492.9
822.398,9383.6
822.672,9364.4
822.945,9462.75
823.218,9429.15
823.491,9415.5
823.765,9408.75
824.038,9362.4
824.311,9301.95
824.585,9258.15
824.858,9261.45
825.131,9474.15
825.404,9676.45
825.677,9692.55
825.951,9505.05
826.224,9260.85
826.497,9202.3
826.77,9078.4
827.043,9094.25
827.317,9186.4
827.59,9069.5
827.863,9038.25
828.136,8966.8
828.409,8987.7
828.682,8987.45
828.956,8887.65
829.229,8943.9
829.502,8910.15
829.775,8920.45
830.048,9055.55
830.321,9099.3
830.594,8923.35
830.867,8929.7
831.14,8770.0
831.413,8792.05
831.687,8719.25
831.96,8698.9
832.233,8611.0
832.506,8661.8
832.779,8656.45
833.052,8629.55
833.325,8683.45
833.598,8537.65
833.871,8476.2
834.144,8479.05
834.417,8499.6
834.69,8544.55
834.963,8448.15
835.236,8451.4
835.509,8477.7
835.782,8369.7
836.055,8422.5
836.328,8527.85
836.601,8520.85
836.874,8500.45
837.147,8594.95
837.419,8611.45
837.692,8472.95
837.965,8411.2
838.238,8469.05
838.511,8391.2
838.784,8347.65
839.057,8365.3
839.33,8345.2
839.603,8359.7
839.876,8426.3
840.148,8578.95
840.421,8520.0
840.694,8640.05
840.967,8791.75
841.24,8699.65
841.513,8521.8
841.785,8385.25
842.058,8299.45
842.331,8300.0
842.604,8305.1
842.877,8244.7
843.149,8260.2
843.422,8243.3
843.695,8164.6
843.968,8085.6
844.24,8027.3
844.513,7900.8
844.786,7941.15
845.059,7908.05
845.331,7766.5
845.604,7715.2
845.877,7768.55
846.15,7836.75
846.422,7792.5
846.695,7735.7
846.968,7807.3
847.24,7838.3
847.513,7755.75
847.786,7663.45
848.058,7669.1
848.331,7614.25
848.604,7648.75
848.876,7741.2
849.149,7714.15
849.421,7595.45
849.694,7550.4
849.967,7556.7
850.239,7624.9
850.512,7624.65
850.784,7596.85
851.057,7649.7
851.33,7708.6
851.602,7634.3
851.875,7583.55
852.147,7597.6
852.42,7587.7
852.692,7607.6
852.965,7550.1
853.237,7546.15
853.51,7533.35
853.782,7634.85
854.055,7574.3
854.327,7487.25
854.6,7387.7
854.872,7394.8
855.145,7483.4
855.417,7457.45
855.69,7409.0
855.962,7391.7
856.235,7381.05
856.507,7367.1
856.779,7367.3
857.052,7359.7
857.324,7395.55
857.597,7536.0
857.869,7506.8
858.142,7501.45
858.414,7549.95
858.686,7618.5
858.959,7604.0
859.231,7615.7
859.503,7583.7
859.776,7620.55
860.048,7543.15
860.32,7444.0
860.593,7374.9
860.865,7421.05
861.137,7334.25
861.41,7324.05
861.682,7271.85
861.954,7307.85
862.226,7230.0
862.499,7181.2
862.771,7126.2
863.043,7104.3
863.315,7142.2
863.588,7214.95
863.86,7234.85
864.132,7251.65
864.404,7298.45
864.677,7249.45
864.949,7231.55
865.221,7170.45
865.493,7118.3
865.765,7062.9
866.038,7064.5
866.31,7003.45
866.582,6983.1
866.854,6941.6
867.126,7039.65
867.398,6993.15
867.67,7020.25
867.943,7056.5
868.215,6955.75
868.487,6888.9
868.759,6894.8
869.031,7018.75
869.303,7009.95
869.575,7063.0
869.847,7111.15
870.119,7024.55
870.391,7019.2
870.663,7077.5
870.935,7170.8
871.207,7295.15
871.479,7343.1
871.751,7322.25
872.023,7327.25
872.295,7409.75
872.567,7395.0
872.839,7416.15
873.111,7444.65
873.383,7374.25
873.655,7289.0
873.927,7198.8
874.199,7132.05
874.471,7082.35
874.743,6954.8
875.015,6920.8
875.287,6859.7
875.559,6835.45
875.831,6759.8
876.103,6724.0
876.374,6771.3
876.646,6737.8
876.918,6730.5
877.19,6737.45
877.462,6654.5
877.734,6670.75
878.006,6701.5
878.277,6679.05
878.549,6642.1
878.821,6655.9
879.093,6647.15
879.365,6566.35
879.636,6608.7
879.908,6577.0
880.18,6636.05
880.452,6604.75
880.723,6575.7
880.995,6581.8
881.267,6567.45
881.539,6521.75
881.81,6539.25
882.082,6625.95
882.354,6596.85
882.626,6592.25
882.897,6544.35
883.169,6502.85
883.441,6462.4
883.712,6431.25
883.984,6423.35
884.256,6417.85
884.527,6449.3
884.799,6476.65
885.07,6485.15
885.342,6482.9
885.614,6448.3
885.885,6434.25
886.157,6346.75
886.428,6363.3
886.7,6370.5
886.972,6379.05
887.243,6373.85
887.515,6278.05
887.786,6229.4
888.058,6202.0
888.329,6196.8
888.601,6235.95
888.872,6252.65
889.144,6223.1
889.415,6155.4
889.687,6146.7
889.958,6168.75
890.23,6160.3
890.501,6132.05
890.773,6160.8
891.044,6210.65
891.316,6162.25
891.587,6163.3
891.859,6154.95
892.13,6121.15
892.401,6120.25
892.673,6108.7
892.944,6073.1
893.216,6037.85
893.487,5991.0
893.758,5964.05
894.03,5970.35
894.301,5978.7
894.572,6016.8
894.844,6030.7
895.115,6002.45
895.386,6022.7
895.658,6020.55
895.929,5992.9
896.2,5987.9
896.472,5992.9
896.743,6061.85
897.014,6192.65
897.285,6404.45
897.557,6659.0
897.828,6836.9
898.099,6806.85
898.37,6805.95
898.642,6592.75
898.913,6421.05
899.184,6296.4
899.455,6142.55
899.726,5948.9
899.998,5810.6
900.269,5814.8
900.54,5797.1
900.811,5791.0
901.082,5737.6
901.353,5674.1
901.625,5666.25
901.896,5642.95
902.167,5657.05
902.438,5687.8
902.709,5649.3
902.98,5611.4
903.251,5591.65
903.522,5617.55
903.793,5635.9
904.064,5653.7
904.335,5623.95
904.606,5641.95
904.877,5631.15
905.148,5631.05
905.419,5702.45
905.69,5755.4
905.961,5824.7
906.232,5961.8
906.503,6057.45
906.774,6139.0
907.045,6199.3
907.316,6215.05
907.587,6128.5
907.858,6092.5
908.129,6037.1
908.4,5909.1
908.671,5863.2
908.942,5771.9
909.213,5647.5
909.484,5562.95
909.755,5479.4
910.025,5440.5
910.296,5435.25
910.567,5443.45
910.838,5431.65
911.109,5385.8
911.38,5342.65
911.65,5309.8
911.921,5300.5
912.192,5308.95
912.463,5326.85
912.734,5351.0
913.004,5309.2
913.275,5298.75
913.546,5277.5
913.817,5240.95
914.087,5230.0
914.358,5223.35
914.629,5215.6
914.9,5199.95
915.17,5241.65
915.441,5228.0
915.712,5180.1
915.982,5145.5
916.253,5170.0
916.524,5148.15
916.794,5119.2
917.065,5097.05
917.336,5110.25
917.606,5108.4
917.877,5140.35
918.147,5127.9
918.418,5112.8
918.689,5096.35
918.959,5111.5
919.23,5094.75
919.5,5065.05
919.771,5057.1
920.042,5054.85
920.312,5041.95
920.583,5015.35
920.853,5007.9
921.124,5010.9
921.394,4971.25
921.665,4980.05
921.935,4999.65
922.206,5008.55
922.476,4975.85
922.747,4950.7
923.017,4937.7
923.287,4935.65
923.558,4931.9
923.828,4919.0
924.099,4903.7
924.369,4906.05
924.639,4940.4
924.91,4919.9
925.18,4895.05
925.451,4895.05
925.721,4884.25
925.991,4875.6
926.262,4867.5
926.532,4870.6
926.802,4835.55
927.073,4826.4
927.343,4822.85
927.613,4814.9
927.884,4823.65
928.154,4813.35
928.424,4806.6
928.694,4770.6
928.965,4772.25
929.235,4765.75
929.505,4768.2
929.775,4759.5
930.046,4714.2
930.316,4701.1
930.586,4718.7
930.856,4721.5
931.126,4731.25
931.397,4693.45
931.667,4684.7
931.937,4693.7
932.207,4690.2
932.477,4698.55
932.747,4666.0
933.017,4640.65
933.288,4652.85
933.558,4642.5
933.828,4632.05
934.098,4653.65
934.368,4649.5
934.638,4656.65
934.908,4643.0
935.178,4620.75
935.448,4609.3
935.718,4589.75
935.988,4597.9
936.258,4599.65
936.528,4606.9
936.798,4587.4
937.068,4550.45
937.338,4540.1
937.608,4524.15
937.878,4552.95
938.148,4552.5
938.418,4531.95
938.688,4515.65
938.958,4503.25
939.228,4506.0
939.498,4512.65
939.767,4510.1
940.037,4522.65
940.307,4517.3
940.577,4507.95
940.847,4487.25
941.117,4486.45
941.387,4479.85
941.656,4459.9
941.926,4444.3
942.196,4450.95
942.466,4455.2
942.736,4454.3
943.005,4438.2
943.275,4423.1
943.545,4429.3
943.815,4407.5
944.084,4414.35
944.354,4395.75
944.624,4399.2
944.894,4425.9
945.163,4426.05
945.433,4409.15
945.703,4404.4
945.972,4366.35
946.242,4354.25
946.512,4360.2
946.781,4362.4
947.051,4364.3
947.321,4362.65
947.59,4352.15
947.86,4340.7
948.13,4337.95
948.399,4330.9
948.669,4330.1
948.938,4315.15
949.208,4306.3
949.477,4322.95
949.747,4320.5
950.016,4308.9
950.286,4300.45
950.556,4289.75
950.825,4287.7
951.095,4289.75
951.364,4294.35
951.634,4276.6
951.903,4274.3
952.172,4264.45
952.442,4269.5
952.711,4265.95
952.981,4259.3
953.25,4247.85
953.52,4239.5
953.789,4245.7
954.058,4240.65
954.328,4244.65
954.597,4238.4
954.867,4225.25
955.136,4214.0
955.405,4204.55
955.675,4213.9
955.944,4216.25
956.213,4220.55
956.483,4224.35
956.752,4210.8
957.021,4201.0
957.29,4184.3
957.56,4187.6
957.829,4180.0
958.098,4178.25
958.367,4179.45
958.637,4189.55
958.906,4175.8
959.175,4166.45
959.444,4142.9
959.714,4160.45
959.983,4160.7
960.252,4153.3
960.521,4139.9
960.79,4128.95
961.059,4133.45
961.328,4122.4
961.598,4123.45
961.867,4131.65
962.136,4124.9
962.405,4129.65
962.674,4125.3
962.943,4122.4
963.212,4120.65
963.481,4119.75
963.75,4108.75
964.019,4097.9
964.288,4097.7
964.557,4093.7
964.826,4099.4
965.095,4094.35
965.364,4092.3
965.633,4081.35
965.902,4076.5
966.171,4069.95
966.44,4060.4
966.709,4061.2
966.978,4075.5
967.247,4076.7
967.516,4072.05
967.785,4063.55
968.054,4047.85
968.323,4046.1
968.591,4048.8
968.86,4055.35
969.129,4041.6
969.398,4038.3
969.667,4042.3
969.936,4050.0
970.204,4040.7
970.473,4025.6
970.742,4018.8
971.011,4022.2
971.28,4028.6
971.548,4024.95
971.817,4020.95
972.086,4019.5
972.355,4011.65
972.623,4006.35
972.892,4010.75
973.161,3997.0
973.429,4005.25
973.698,4000.45
973.967,3996.35
974.235,3988.55
974.504,3984.6
974.773,3982.6
975.041,3982.1
975.31,3985.2
975.579,3988.2
975.847,3977.7
976.116,3972.1
976.384,3971.5
976.653,3972.5
976.922,3972.85
977.19,3965.4
977.459,3970.65
977.727,3975.05
977.996,3965.5
978.264,3964.1
978.533,3960.9
978.801,3946.5
979.07,3949.35
979.338,3949.75
979.607,3942.05
979.875,3939.7
980.143,3939.15
980.412,3940.45
980.68,3933.85
980.949,3938.95
981.217,3938.0
981.486,3942.35
981.754,3928.9
982.022,3930.35
982.291,3930.0
982.559,3928.4
982.827,3925.7
983.096,3921.45
983.364,3922.0
983.632,3917.25
983.901,3920.5
984.169,3917.5
984.437,3911.15
984.705,3918.2
984.974,3912.8
985.242,3910.05
985.51,3902.75
985.778,3900.9
986.047,3891.65
986.315,3890.35
986.583,3894.8
986.851,3891.55
987.119,3894.75
987.388,3896.25
987.656,3894.6
987.924,3898.95
988.192,3894.3
988.46,3885.1
988.728,3882.85
988.996,3880.8
989.264,3878.0
989.533,3878.35
989.801,3878.95
990.069,3875.3
990.337,3869.4
990.605,3869.0
990.873,3865.0
991.141,3864.65
991.409,3863.55
991.677,3864.4
991.945,3858.85
992.213,3857.85
992.481,3854.35
992.749,3858.75
993.017,3856.15
993.285,3849.0
993.553,3851.5
993.82,3848.65
994.088,3854.85
994.356,3848.85
994.624,3845.8
994.892,3844.8
995.16,3843.05
995.428,3843.45
995.696,3841.4
995.963,3842.35
996.231,3833.3
996.499,3833.6
996.767,3835.7
997.035,3839.2
997.302,3837.65
997.57,3832.55
997.838,3833.0
998.106,3830.9
998.373,3827.65
998.641,3828.75
998.909,3819.75
999.177,3817.4
999.444,3813.9
999.712,3815.05
999.98,3819.25
1000.25,3822.3
1000.51,3817.45
1000.78,3817.5
1001.05,3815.95
1001.32,3817.25
1001.59,3810.3
1001.85,3808.35
1002.12,3808.15
1002.39,3808.2
1002.66,3812.05
1002.92,3811.05
1003.19,3811.85
1003.46,3806.25
1003.73,3802.4
1003.99,3804.8
1004.26,3807.0
1004.53,3802.25
1004.8,3801.3
1005.06,3803.85
1005.33,3797.5
1005.6,3796.25
1005.87,3796.45
1006.13,3796.35
1006.4,3791.8
1006.67,3794.2
1006.94,3794.75
1007.2,3794.1
1007.47,3792.45
1007.74,3792.65
1008.0,3791.9
1008.27,3788.4
1008.54,3784.95
1008.81,3783.7
1009.07,3784.2
1009.34,3780.55
1009.61,3782.4
1009.88,3782.05
1010.14,3782.5
1010.41,3780.4
1010.68,3780.25
1010.95,3781.15
1011.21,3775.75
1011.48,3774.7
1011.75,3775.2
1012.01,3778.95
1012.28,3774.2
1012.55,3774.1
1012.82,3774.0
1013.08,3777.25
1013.35,3772.3
1013.62,3771.1
1013.88,3769.15
1014.15,3774.2
1014.42,3768.1
1014.69,3772.55
1014.95,3771.15
1015.22,3768.5
1015.49,3768.55
1015.75,3765.0
1016.02,3763.7
1016.29,3769.85
1016.55,3769.6
1016.82,3767.0
1017.09,3764.8
1017.36,3762.05
1017.62,3760.9
1017.89,3762.35
1018.16,3761.4
1018.42,3762.85
1018.69,3761.6
1018.96,3760.65
1019.22,3759.5
1019.49,3758.3
1019.76,3755.4
1020.02,3759.95
1020.29,3763.35
1020.56,3766.2
1020.83,3765.55
1021.09,3767.45
1021.36,3769.05
1021.63,3771.65
1021.89,3769.45
1022.16,3772.55
1022.43,3768.7
1022.69,3765.35
1022.96,3765.9
1023.23,3763.5
1023.49,3758.8
1023.76,3757.9
1024.03,3757.75
1024.29,3758.65
1024.56,3757.5
1024.83,3755.8
1025.09,3756.15
1025.36,3749.3
1025.63,3749.8
1025.89,3747.65
1026.16,3748.75
1026.43,3748.15
1026.69,3744.8
1026.96,3746.65
1027.23,3745.5
1027.49,3742.05
1027.76,3741.3
1028.03,3740.15
1028.29,3739.1
1028.56,3738.6
1028.83,3737.3
1029.09,3737.05
1029.36,3736.0
1029.62,3737.3
1029.89,3732.0
1030.16,3734.1
1030.42,3732.95
1030.69,3733.75
1030.96,3735.1
1031.22,3732.7
1031.49,3735.9
1031.76,3734.4
1032.02,3731.75
1032.29,3732.5
1032.56,3733.05
1032.82,3735.0
1033.09,3736.3
1033.35,3736.9
1033.62,3738.05
1033.89,3737.4
1034.15,3741.65
1034.42,3741.6
1034.69,3739.55
1034.95,3737.4
1035.22,3738.7
1035.48,3734.65
1035.75,3737.0
1036.02,3733.7
1036.28,3732.25
1036.55,3732.9
1036.81,3728.55
1037.08,3728.85
1037.35,3728.2
1037.61,3725.55
1037.88,3725.0
1038.15,3723.0
1038.41,3725.1
1038.68,3723.25
1038.94,3724.2
1039.21,3723.65
1039.48,3724.55
1039.74,3721.45
1040.01,3721.6
1040.27,3719.75
1040.54,3723.1
1040.81,3721.4
1041.07,3721.0
1041.34,3717.8
1041.6,3721.15
1041.87,3719.75
1042.14,3718.1
1042.4,3720.45
1042.67,3718.2
1042.93,3718.65
1043.2,3716.6
1043.47,3717.3
1043.73,3716.0
1044.0,3718.05
1044.26,3717.4
1044.53,3715.75
1044.79,3715.55
1045.06,3717.55
1045.33,3715.2
1045.59,3714.05
1045.86,3716.4
1046.12,3716.7
1046.39,3715.95
1046.65,3715.6
1046.92,3715.1
1047.19,3715.3
1047.45,3714.65
1047.72,3715.8
1047.98,3714.2
1048.25,3713.55
1048.51,3713.1
1048.78,3713.25
1049.05,3714.2
1049.31,3712.8
1049.58,3712.4
1049.84,3714.1
1050.11,3713.55
1050.37,3713.8
1050.64,3713.3
1050.91,3713.05
1051.17,3712.9
1051.44,3713.2
1051.7,3714.2
1051.97,3712.75
1052.23,3712.15
1052.5,3712.4
1052.76,3713.2
1053.03,3712.75
1053.29,3711.45
1053.56,3713.6
1053.83,3711.65
1054.09,3710.9
1054.36,3710.55
1054.62,3710.9
1054.89,3711.3
1055.15,3711.55
1055.42,3713.25
1055.68,3711.8
1055.95,3710.5
1056.21,3711.65
1056.48,3709.85
1056.74,3711.35
1057.01,3711.9
1057.27,3712.15
1057.54,3709.0
1057.81,3709.6
1058.07,3711.9
1058.34,3711.6
1058.6,3710.45
1058.87,3710.05
1059.13,3711.1
1059.4,3710.7
1059.66,3711.2
1059.93,3711.3
1060.19,3710.4
1060.46,3710.15
1060.72,3709.8
1060.99,3708.9
1061.25,3710.05
1061.52,3709.15
1061.78,3709.2
1062.05,3708.7
1062.31,3711.85
1062.58,3709.95
1062.84,3709.85
1063.11,3708.7
1063.37,3708.2
1063.64,3709.55
1063.9,3710.15
1064.17,3709.65
1064.43,3709.4
1064.7,3708.5
1064.96,3708.55
1065.23,3708.75
1065.49,3709.0
1065.76,3708.35
1066.02,3708.4
1066.29,3708.75
1066.55,3708.0
1066.82,3708.75
1067.08,3707.95
1067.35,3708.95
1067.61,3708.65
1067.88,3706.9