File: spectra/VLFR_08-PLA_nobio_Raman_c748b8bf.csv
nm,Intensity
526.532,833.05
526.669,834.15
526.805,833.6
526.942,833.6
527.079,833.35
527.216,832.75
527.352,832.95
527.489,834.05
527.625,833.4
527.762,832.75
527.899,834.45
528.035,832.65
528.172,833.45
528.309,833.1
528.445,833.25
528.582,833.75
528.718,833.2
528.855,834.15
528.992,833.45
529.128,832.35
529.265,834.25
529.401,833.05
529.538,833.05
529.674,832.55
529.811,833.05
529.947,834.0
530.084,833.15
530.22,833.5
530.357,832.4
530.493,834.35
530.63,833.5
530.766,833.35
530.903,832.6
531.039,834.0
531.176,833.05
531.312,833.0
531.449,834.1
531.585,833.05
531.721,833.5
531.858,833.25
531.994,845.25
532.131,882.95
532.267,869.5
532.403,837.7
532.54,833.45
532.676,834.3
532.812,833.75
532.949,834.15
533.085,834.4
533.221,834.8
533.358,833.55
533.494,834.35
533.63,837.45
533.767,861.5
533.903,948.65
534.039,1040.9
534.176,1062.15
534.312,1056.75
534.448,1039.35
534.584,1027.65
534.721,1022.15
534.857,1009.95
534.993,994.55
535.129,989.2
535.266,983.0
535.402,983.1
535.538,978.0
535.674,973.0
535.81,969.8
535.947,966.6
536.083,964.55
536.219,961.85
536.355,964.05
536.491,969.65
536.627,973.8
536.764,967.7
536.9,968.7
537.036,958.7
537.172,957.15
537.308,953.8
537.444,957.55
537.58,954.5
537.716,959.5
537.852,954.25
537.988,957.35
538.125,950.1
538.261,950.15
538.397,949.75
538.533,944.25
538.669,942.45
538.805,945.65
538.941,940.9
539.077,945.55
539.213,945.75
539.349,942.95
539.485,943.2
539.621,939.75
539.757,939.3
539.893,936.85
540.029,933.2
540.165,937.55
540.301,943.05
540.437,944.8
540.572,953.1
540.708,955.75
540.844,957.7
540.98,955.0
541.116,953.6
541.252,954.05
541.388,955.95
541.524,950.75
541.66,950.5
541.795,944.3
541.931,946.25
542.067,945.9
542.203,944.7
542.339,943.3
542.475,939.0
542.611,943.4
542.746,940.15
542.882,943.15
543.018,949.45
543.154,953.85
543.289,960.55
543.425,968.4
543.561,973.55
543.697,975.35
543.833,981.25
543.968,976.4
544.104,972.85
544.24,970.4
544.375,959.6
544.511,953.7
544.647,948.65
544.783,944.8
544.918,948.3
545.054,945.25
545.19,946.3
545.325,943.85
545.461,940.4
545.597,940.05
545.732,945.1
545.868,944.35
546.004,940.2
546.139,942.75
546.275,943.6
546.41,941.45
546.546,944.1
546.682,942.2
546.817,947.6
546.953,948.4
547.088,945.5
547.224,945.7
547.36,947.55
547.495,948.0
547.631,945.2
547.766,948.25
547.902,945.25
548.037,947.9
548.173,944.85
548.308,952.0
548.444,946.35
548.579,948.1
548.715,947.2
548.85,947.9
548.986,949.55
549.121,949.35
549.257,950.3
549.392,953.15
549.528,951.45
549.663,951.2
549.798,949.5
549.934,951.35
550.069,950.8
550.205,952.9
550.34,952.4
550.475,955.4
550.611,951.25
550.746,953.8
550.882,955.15
551.017,955.25
551.152,956.8
551.288,960.4
551.423,957.45
551.558,959.65
551.694,960.3
551.829,961.45
551.964,963.0
552.1,960.2
552.235,964.5
552.37,964.6
552.505,962.05
552.641,962.6
552.776,962.9
552.911,961.65
553.047,963.75
553.182,965.0
553.317,962.7
553.452,960.1
553.588,957.8
553.723,961.55
553.858,969.25
553.993,972.2
554.128,971.3
554.264,969.2
554.399,966.0
554.534,962.25
554.669,964.3
554.804,961.8
554.939,959.3
555.075,958.25
555.21,958.6
555.345,956.05
555.48,957.6
555.615,954.15
555.75,957.75
555.885,952.7
556.02,953.15
556.155,956.1
556.291,955.0
556.426,956.45
556.561,954.65
556.696,958.8
556.831,958.3
556.966,962.6
557.101,964.4
557.236,971.0
557.371,972.2
557.506,976.85
557.641,990.9
557.776,1017.45
557.911,1056.2
558.046,1096.9
558.181,1102.0
558.316,1056.9
558.451,1008.8
558.586,990.8
558.721,976.45
558.856,977.15
558.991,977.5
559.126,972.8
559.261,974.45
559.396,971.55
559.531,971.2
559.665,975.7
559.8,971.7
559.935,969.05
560.07,967.25
560.205,969.3
560.34,970.05
560.475,968.0
560.61,966.55
560.745,966.45
560.879,969.45
561.014,964.55
561.149,962.9
561.284,961.95
561.419,965.3
561.553,964.75
561.688,961.95
561.823,965.85
561.958,966.55
562.093,967.0
562.227,964.95
562.362,967.85
562.497,965.25
562.632,969.2
562.767,971.75
562.901,975.5
563.036,982.7
563.171,988.3
563.305,1001.1
563.44,1010.15
563.575,1011.3
563.71,1001.75
563.844,995.9
563.979,987.4
564.114,984.5
564.248,982.05
564.383,983.25
564.518,981.55
564.652,986.25
564.787,993.35
564.922,1000.3
565.056,1004.9
565.191,1006.2
565.325,999.7
565.46,998.1
565.595,998.15
565.729,998.0
565.864,1005.1
565.999,1018.95
566.133,1032.75
566.268,1025.2
566.402,1016.35
566.537,1005.95
566.671,993.25
566.806,985.3
566.94,980.05
567.075,978.65
567.21,980.95
567.344,978.45
567.479,978.8
567.613,980.1
567.748,987.25
567.882,989.55
568.017,990.0
568.151,987.4
568.285,986.25
568.42,984.05
568.554,983.55
568.689,982.1
568.823,988.65
568.958,990.15
569.092,990.15
569.227,985.8
569.361,990.1
569.495,986.4
569.63,988.4
569.764,986.05
569.899,986.95
570.033,984.3
570.167,983.55
570.302,988.25
570.436,988.05
570.571,985.5
570.705,991.05
570.839,984.05
570.974,988.15
571.108,989.6
571.242,995.7
571.377,1002.0
571.511,1006.1
571.645,1011.05
571.78,1013.9
571.914,1007.8
572.048,1007.5
572.182,1001.25
572.317,1001.35
572.451,998.95
572.585,1003.2
572.719,1003.55
572.854,1003.2
572.988,998.9
573.122,1002.0
573.256,1005.5
573.391,1006.75
573.525,1007.85
573.659,1004.05
573.793,1001.55
573.927,1005.6
574.062,1002.35
574.196,1000.4
574.33,1006.9
574.464,1006.8
574.598,1013.9
574.733,1013.2
574.867,1002.3
575.001,996.6
575.135,994.4
575.269,993.95
575.403,993.6
575.537,995.5
575.671,993.15
575.806,995.25
575.94,995.8
576.074,998.15
576.208,1004.75
576.342,1013.15
576.476,1032.3
576.61,1055.5
576.744,1065.7
576.878,1067.0
577.012,1058.75
577.146,1044.85
577.28,1027.0
577.414,1011.4
577.548,1007.15
577.682,1001.5
577.817,999.25
577.951,997.3
578.085,998.3
578.219,994.65
578.353,997.85
578.486,999.45
578.62,996.4
578.754,996.3
578.888,992.9
579.022,992.8
579.156,993.75
579.29,994.9
579.424,995.45
579.558,998.6
579.692,994.3
579.826,993.7
579.96,995.1
580.094,995.15
580.228,993.6
580.362,992.55
580.496,992.6
580.629,995.5
580.763,992.45
580.897,993.6
581.031,995.6
581.165,994.75
581.299,993.8
581.433,992.35
581.566,995.0
581.7,995.35
581.834,993.4
581.968,997.4
582.102,993.6
582.236,993.25
582.369,996.3
582.503,992.7
582.637,995.25
582.771,999.2
582.905,996.65
583.038,999.55
583.172,994.7
583.306,997.5
583.44,994.3
583.573,997.05
583.707,999.95
583.841,1002.45
583.975,996.75
584.108,995.7
584.242,998.15
584.376,999.9
584.509,1000.0
584.643,999.55
584.777,998.25
584.911,997.2
585.044,999.8
585.178,998.1
585.312,997.55
585.445,1003.15
585.579,999.95
585.713,998.9
585.846,999.8
585.98,999.6
586.113,1000.6
586.247,1006.1
586.381,1005.85
586.514,1016.2
586.648,1026.1
586.782,1032.15
586.915,1040.8
587.049,1047.95
587.182,1055.6
587.316,1059.95
587.45,1066.95
587.583,1071.4
587.717,1064.0
587.85,1046.65
587.984,1030.8
588.117,1016.3
588.251,1009.4
588.384,1005.2
588.518,1004.65
588.651,1000.35
588.785,996.7
588.919,996.6
589.052,998.15
589.186,998.4
589.319,998.8
589.453,999.1
589.586,997.05
589.72,995.75
589.853,997.0
589.986,996.15
590.12,999.35
590.253,997.5
590.387,996.45
590.52,998.2
590.654,995.85
590.787,995.05
590.921,996.75
591.054,995.75
591.187,994.9
591.321,998.1
591.454,995.85
591.588,994.95
591.721,1000.4
591.854,998.25
591.988,996.4
592.121,994.2
592.255,998.25
592.388,993.6
592.521,995.25
592.655,995.35
592.788,996.95
592.921,995.2
593.055,994.2
593.188,993.8
593.321,993.8
593.455,992.9
593.588,993.95
593.721,996.1
593.855,995.4
593.988,991.85
594.121,994.2
594.255,993.15
594.388,994.6
594.521,994.05
594.654,993.9
594.788,995.65
594.921,995.8
595.054,993.1
595.187,996.05
595.321,995.85
595.454,996.7
595.587,996.4
595.72,997.85
595.854,990.85
595.987,996.85
596.12,994.45
596.253,995.15
596.387,994.2
596.52,994.45
596.653,995.2
596.786,992.85
596.919,995.95
597.052,994.45
597.186,996.3
597.319,993.2
597.452,995.7
597.585,997.6
597.718,997.05
597.851,997.85
597.985,994.95
598.118,996.2
598.251,999.25
598.384,996.3
598.517,995.25
598.65,997.2
598.783,1000.1
598.916,995.25
599.049,998.6
599.183,997.5
599.316,995.45
599.449,996.0
599.582,996.9
599.715,996.6
599.848,994.0
599.981,999.3
600.114,993.0
600.247,996.85
600.38,995.15
600.513,998.05
600.646,992.55
600.779,993.85
600.912,993.05
601.045,994.7
601.178,993.75
601.311,993.5
601.444,991.3
601.577,992.75
601.71,991.0
601.843,991.45
601.976,994.3
602.109,992.05
602.242,990.8
602.375,992.45
602.508,993.9
602.641,993.8
602.774,988.85
602.907,994.1
603.04,992.6
603.173,994.1
603.306,993.65
603.439,994.9
603.572,992.55
603.705,994.5
603.838,991.25
603.971,992.5
604.103,992.9
604.236,990.3
604.369,992.75
604.502,991.85
604.635,988.55
604.768,992.85
604.901,986.9
605.034,986.9
605.167,988.15
605.299,991.5
605.432,988.8
605.565,989.0
605.698,987.15
605.831,986.8
605.964,988.15
606.096,986.55
606.229,986.4
606.362,985.45
606.495,985.0
606.628,985.45
606.761,987.85
606.893,985.15
607.026,985.5
607.159,987.8
607.292,985.45
607.425,986.9
607.557,989.4
607.69,988.15
607.823,986.85
607.956,987.9
608.088,988.85
608.221,987.0
608.354,989.5
608.487,990.8
608.619,986.05
608.752,988.1
608.885,988.3
609.018,988.05
609.15,989.25
609.283,990.25
609.416,986.85
609.548,989.0
609.681,984.55
609.814,987.55
609.947,985.05
610.079,986.6
610.212,987.8
610.345,983.1
610.477,983.35
610.61,986.15
610.743,985.6
610.875,987.0
611.008,987.25
611.141,984.55
611.273,982.3
611.406,985.7
611.539,985.1
611.671,985.65
611.804,983.7
611.936,985.55
612.069,987.8
612.202,986.6
612.334,985.6
612.467,987.1
612.6,987.25
612.732,984.9
612.865,989.2
612.997,987.15
613.13,988.45
613.263,987.85
613.395,986.0
613.528,988.15
613.66,991.6
613.793,991.65
613.925,990.5
614.058,987.75
614.19,989.1
614.323,988.65
614.456,985.8
614.588,990.75
614.721,985.65
614.853,985.7
614.986,992.6
615.118,986.5
615.251,989.95
615.383,987.0
615.516,986.6
615.648,983.2
615.781,984.35
615.913,987.35
616.046,989.5
616.178,988.4
616.311,987.1
616.443,987.5
616.576,987.45
616.708,987.15
616.841,985.15
616.973,988.85
617.106,985.55
617.238,986.45
617.37,988.0
617.503,985.75
617.635,984.9
617.768,988.2
617.9,988.5
618.033,987.25
618.165,988.9
618.297,986.3
618.43,987.4
618.562,988.4
618.695,984.5
618.827,984.45
618.96,985.1
619.092,986.5
619.224,982.2
619.357,984.7
619.489,983.6
619.621,986.7
619.754,983.3
619.886,982.65
620.019,983.25
620.151,986.15
620.283,982.7
620.416,980.8
620.548,984.45
620.68,983.1
620.813,984.15
620.945,986.25
621.077,984.7
621.21,983.5
621.342,983.0
621.474,984.3
621.607,979.65
621.739,982.65
621.871,982.9
622.004,988.4
622.136,987.65
622.268,985.6
622.401,985.15
622.533,991.45
622.665,991.9
622.797,996.05
622.93,996.85
623.062,996.3
623.194,1001.75
623.326,993.5
623.459,996.75
623.591,994.95
623.723,993.1
623.856,991.6
623.988,988.25
624.12,988.05
624.252,988.5
624.384,982.75
624.517,986.95
624.649,986.55
624.781,985.1
624.913,984.1
625.046,985.65
625.178,984.2
625.31,981.8
625.442,981.85
625.574,983.3
625.707,985.3
625.839,982.75
625.971,983.6
626.103,982.4
626.235,981.55
626.368,983.7
626.5,983.85
626.632,983.8
626.764,985.75
626.896,983.35
627.028,983.75
627.161,983.35
627.293,980.85
627.425,985.0
627.557,984.05
627.689,987.5
627.821,988.2
627.953,994.35
628.086,1008.0
628.218,1023.55
628.35,1048.15
628.482,1066.45
628.614,1068.3
628.746,1061.25
628.878,1052.85
629.01,1044.3
629.143,1042.65
629.275,1042.65
629.407,1048.5
629.539,1046.9
629.671,1043.45
629.803,1047.45
629.935,1047.4
630.067,1050.6
630.199,1057.15
630.331,1070.4
630.463,1086.95
630.596,1127.5
630.728,1189.5
630.86,1300.5
630.992,1438.9
631.124,1519.8
631.256,1488.35
631.388,1406.8
631.52,1304.35
631.652,1229.15
631.784,1174.8
631.916,1145.55
632.048,1126.3
632.18,1106.1
632.312,1101.3
632.444,1093.9
632.576,1090.65
632.708,1094.2
632.84,1112.45
632.972,1142.1
633.104,1172.75
633.236,1193.2
633.368,1190.3
633.5,1183.05
633.632,1161.9
633.764,1140.6
633.896,1118.15
634.028,1085.05
634.16,1065.2
634.292,1045.05
634.424,1030.2
634.556,1010.75
634.688,1004.85
634.82,997.4
634.952,992.3
635.084,988.25
635.216,986.8
635.348,979.55
635.48,980.2
635.612,978.0
635.744,979.1
635.876,975.05
636.007,974.95
636.139,972.8
636.271,972.95
636.403,972.3
636.535,973.45
636.667,969.75
636.799,970.5
636.931,974.2
637.063,974.3
637.195,970.05
637.327,973.15
637.459,967.05
637.59,968.6
637.722,970.7
637.854,967.75
637.986,968.0
638.118,967.4
638.25,966.4
638.382,968.3
638.514,967.05
638.645,967.05
638.777,966.1
638.909,965.3
639.041,967.55
639.173,964.7
639.305,968.2
639.437,965.6
639.568,971.15
639.7,965.7
639.832,966.5
639.964,967.4
640.096,966.45
640.228,964.0
640.36,965.95
640.491,968.8
640.623,964.6
640.755,966.05
640.887,967.65
641.019,964.7
641.15,966.7
641.282,968.55
641.414,967.8
641.546,965.65
641.678,967.75
641.81,963.6
641.941,968.25
642.073,967.15
642.205,963.7
642.337,967.6
642.468,966.25
642.6,966.85
642.732,961.8
642.864,966.65
642.996,962.4
643.127,962.35
643.259,959.05
643.391,959.55
643.523,956.9
643.654,959.9
643.786,957.5
643.918,958.05
644.05,958.7
644.181,957.05
644.313,958.6
644.445,959.55
644.577,953.95
644.708,957.45
644.84,957.15
644.972,957.3
645.104,955.65
645.235,953.35
645.367,955.9
645.499,952.95
645.631,952.9
645.762,954.7
645.894,951.85
646.026,952.35
646.157,953.9
646.289,955.1
646.421,951.9
646.553,957.45
646.684,954.1
646.816,956.6
646.948,952.35
647.079,954.7
647.211,955.15
647.343,952.35
647.474,950.6
647.606,952.2
647.738,953.1
647.869,952.1
648.001,954.75
648.133,949.8
648.265,952.3
648.396,952.75
648.528,950.25
648.66,949.6
648.791,951.0
648.923,950.6
649.054,950.85
649.186,949.45
649.318,947.4
649.449,950.45
649.581,947.95
649.713,951.9
649.844,950.7
649.976,949.0
650.108,946.9
650.239,946.7
650.371,946.4
650.503,946.55
650.634,948.4
650.766,946.55
650.897,946.05
651.029,948.1
651.161,948.1
651.292,945.55
651.424,947.8
651.556,944.1
651.687,948.2
651.819,948.7
651.95,945.0
652.082,947.45
652.214,946.15
652.345,945.4
652.477,944.25
652.608,943.7
652.74,943.9
652.872,946.55
653.003,944.45
653.135,944.8
653.266,945.75
653.398,947.5
653.529,945.45
653.661,946.8
653.793,945.65
653.924,942.4
654.056,943.2
654.187,943.95
654.319,945.55
654.45,944.7
654.582,945.2
654.714,945.35
654.845,944.2
654.977,945.0
655.108,945.15
655.24,941.85
655.371,945.35
655.503,943.15
655.634,949.2
655.766,941.75
655.897,944.9
656.029,940.7
656.161,944.5
656.292,943.2
656.424,943.7
656.555,942.95
656.687,943.2
656.818,944.3
656.95,942.35
657.081,946.95
657.213,946.15
657.344,945.2
657.476,942.55
657.607,943.55
657.739,943.85
657.87,940.5
658.002,941.75
658.133,942.4
658.265,943.75
658.396,943.15
658.528,943.45
658.659,943.35
658.791,938.85
658.922,941.9
659.054,939.85
659.185,941.95
659.317,941.1
659.448,939.95
659.58,940.55
659.711,940.15
659.843,946.35
659.974,943.45
660.106,941.2
660.237,939.85
660.368,938.4
660.5,939.7
660.631,940.25
660.763,939.35
660.894,938.5
661.026,938.25
661.157,936.75
661.289,938.75
661.42,938.8
661.552,939.1
661.683,935.3
661.815,935.75
661.946,936.55
662.077,937.7
662.209,936.75
662.34,933.7
662.472,935.95
662.603,932.7
662.735,936.2
662.866,937.7
662.997,935.9
663.129,931.65