File: spectra/VLFR_02-HDPE_bio_Raman_2d355c0f.csv
nm,Intensity
526.508,830.6
526.645,830.7
526.782,829.1
526.919,830.5
527.055,829.4
527.192,829.5
527.329,828.4
527.465,830.7
527.602,829.7
527.739,829.3
527.875,831.4
528.012,831.0
528.149,830.2
528.285,830.6
528.422,830.4
528.558,831.4
528.695,830.4
528.832,831.7
528.968,830.2
529.105,829.8
529.241,828.6
529.378,830.8
529.514,830.3
529.651,829.8
529.787,830.9
529.924,830.5
530.061,830.2
530.197,828.9
530.334,829.2
530.47,830.9
530.606,829.9
530.743,829.8
530.879,829.4
531.016,829.8
531.152,828.7
531.289,831.4
531.425,829.4
531.562,830.7
531.698,830.1
531.834,830.8
531.971,834.4
532.107,872.3
532.244,883.7
532.38,843.0
532.516,831.6
532.653,829.9
532.789,829.5
532.925,830.0
533.062,828.7
533.198,829.0
533.334,831.4
533.471,829.6
533.607,830.3
533.743,833.8
533.879,845.4
534.016,862.0
534.152,868.3
534.288,866.5
534.424,864.8
534.561,865.5
534.697,862.5
534.833,860.3
534.969,859.8
535.106,856.9
535.242,858.8
535.378,855.2
535.514,852.4
535.65,851.3
535.786,850.9
535.923,849.4
536.059,847.5
536.195,848.4
536.331,848.4
536.467,846.4
536.603,844.5
536.739,846.7
536.876,847.0
537.012,847.0
537.148,845.7
537.284,846.4
537.42,848.0
537.556,849.1
537.692,846.4
537.828,846.4
537.964,845.1
538.1,845.5
538.236,844.4
538.372,844.6
538.508,847.5
538.644,844.8
538.78,844.8
538.916,842.7
539.052,844.4
539.188,844.2
539.324,843.0
539.46,840.6
539.596,844.1
539.732,842.0
539.868,842.3
540.004,843.4
540.14,842.8
540.275,841.5
540.411,840.4
540.547,843.5
540.683,839.2
540.819,841.3
540.955,841.0
541.091,839.7
541.227,843.0
541.362,843.9
541.498,842.1
541.634,844.1
541.77,842.6
541.906,842.5
542.041,842.3
542.177,842.1
542.313,842.6
542.449,842.8
542.585,841.9
542.72,841.1
542.856,841.1
542.992,842.0
543.128,841.5
543.263,842.1
543.399,842.6
543.535,841.7
543.67,841.0
543.806,842.2
543.942,842.7
544.078,841.9
544.213,841.2
544.349,842.5
544.485,840.6
544.62,841.2
544.756,841.0
544.892,841.0
545.027,840.2
545.163,841.8
545.298,840.7
545.434,842.8
545.57,842.5
545.705,842.3
545.841,842.1
545.976,841.7
546.112,843.7
546.248,841.1
546.383,842.7
546.519,843.1
546.654,840.2
546.79,843.4
546.925,843.7
547.061,843.3
547.196,842.6
547.332,844.2
547.467,844.6
547.603,841.4
547.738,841.1
547.874,842.2
548.009,841.6
548.145,842.4
548.28,840.8
548.416,842.4
548.551,842.4
548.686,842.7
548.822,843.2
548.957,842.9
549.093,843.8
549.228,842.7
549.363,843.1
549.499,841.8
549.634,840.7
549.77,842.3
549.905,843.0
550.04,843.0
550.176,841.6
550.311,842.0
550.446,841.7
550.582,843.0
550.717,844.8
550.852,842.6
550.988,843.0
551.123,842.8
551.258,841.7
551.394,843.7
551.529,844.1
551.664,844.4
551.799,842.5
551.935,843.4
552.07,842.8
552.205,844.1
552.34,843.9
552.476,844.6
552.611,842.8
552.746,844.5
552.881,841.9
553.016,842.7
553.152,844.8
553.287,844.9
553.422,844.2
553.557,845.0
553.692,844.8
553.827,844.3
553.963,846.4
554.098,842.5
554.233,845.1
554.368,845.0
554.503,845.0
554.638,845.4
554.773,846.1
554.908,844.5
555.043,843.8
555.179,844.4
555.314,843.0
555.449,844.4
555.584,846.5
555.719,844.9
555.854,843.4
555.989,845.6
556.124,845.0
556.259,846.4
556.394,846.5
556.529,847.1
556.664,847.4
556.799,847.0
556.934,848.1
557.069,847.5
557.204,847.5
557.339,847.9
557.474,847.7
557.609,850.2
557.744,848.6
557.879,848.7
558.014,849.3
558.149,847.7
558.284,851.3
558.419,849.1
558.553,849.1
558.688,849.7
558.823,849.6
558.958,848.5
559.093,847.9
559.228,846.8
559.363,849.9
559.498,847.1
559.632,848.4
559.767,848.9
559.902,850.2
560.037,848.2
560.172,848.9
560.307,847.4
560.441,846.0
560.576,846.9
560.711,849.1
560.846,846.1
560.981,847.1
561.115,848.2
561.25,847.7
561.385,848.9
561.52,847.0
561.654,848.5
561.789,848.5
561.924,847.8
562.059,850.1
562.193,850.4
562.328,851.6
562.463,850.5
562.598,849.0
562.732,850.9
562.867,851.5
563.002,851.3
563.136,853.0
563.271,852.6
563.406,854.0
563.54,853.9
563.675,858.1
563.81,865.5
563.944,897.5
564.079,934.2
564.213,905.1
564.348,871.9
564.483,862.5
564.617,861.5
564.752,862.2
564.887,859.6
565.021,857.7
565.156,857.3
565.29,855.6
565.425,855.4
565.559,857.8
565.694,860.8
565.828,865.4
565.963,879.6
566.098,936.2
566.232,981.6
566.367,927.7
566.501,877.3
566.636,858.8
566.77,855.8
566.905,854.0
567.039,856.5
567.174,854.8
567.308,852.1
567.443,857.6
567.577,856.5
567.711,853.9
567.846,850.1
567.98,851.1
568.115,851.7
568.249,851.7
568.384,852.1
568.518,851.0
568.652,850.7
568.787,850.3
568.921,852.2
569.056,852.8
569.19,851.6
569.324,852.8
569.459,852.3
569.593,853.7
569.727,853.5
569.862,852.5
569.996,852.4
570.131,852.8
570.265,857.0
570.399,854.9
570.534,857.8
570.668,857.9
570.802,859.1
570.936,858.3
571.071,858.3
571.205,862.9
571.339,875.1
571.474,942.7
571.608,993.1
571.742,919.1
571.876,875.7
572.011,869.7
572.145,861.2
572.279,862.3
572.413,857.4
572.548,857.3
572.682,855.8
572.816,855.2
572.95,853.9
573.084,854.9
573.219,856.1
573.353,855.9
573.487,854.3
573.621,853.1
573.755,856.2
573.889,857.8
574.024,861.8
574.158,859.1
574.292,857.7
574.426,855.7
574.56,855.2
574.694,855.5
574.828,856.5
574.963,856.7
575.097,857.6
575.231,859.1
575.365,872.2
575.499,914.3
575.633,927.9
575.767,891.6
575.901,882.9
576.035,888.9
576.169,905.4
576.303,924.0
576.437,919.7
576.571,905.7
576.706,895.3
576.84,893.1
576.974,899.8
577.108,895.8
577.242,890.8
577.376,883.1
577.51,872.5
577.644,866.5
577.778,867.0
577.912,861.1
578.046,863.4
578.179,859.8
578.313,858.6
578.447,861.4
578.581,860.5
578.715,860.6
578.849,858.0
578.983,858.7
579.117,859.5
579.251,862.6
579.385,859.5
579.519,861.4
579.653,861.5
579.787,859.6
579.921,861.1
580.054,863.3
580.188,864.1
580.322,860.1
580.456,863.6
580.59,861.8
580.724,862.7
580.858,864.6
580.991,863.5
581.125,862.9
581.259,863.6
581.393,862.5
581.527,866.1
581.661,862.9
581.794,863.0
581.928,865.3
582.062,865.1
582.196,869.1
582.33,866.7
582.463,867.7
582.597,870.0
582.731,871.5
582.865,867.5
582.998,870.8
583.132,870.0
583.266,869.9
583.4,872.6
583.533,872.3
583.667,871.0
583.801,873.2
583.935,872.5
584.068,872.3
584.202,872.4
584.336,876.3
584.469,874.0
584.603,877.3
584.737,877.6
584.87,878.3
585.004,876.3
585.138,876.4
585.271,877.9
585.405,880.8
585.539,881.8
585.672,882.2
585.806,882.0
585.94,882.7
586.073,883.0
586.207,885.5
586.34,889.5
586.474,888.3
586.608,888.9
586.741,890.7
586.875,884.7
587.008,888.6
587.142,892.0
587.276,890.9
587.409,891.0
587.543,889.9
587.676,890.3
587.81,894.0
587.943,896.1
588.077,897.4
588.21,891.7
588.344,894.6
588.478,895.6
588.611,900.2
588.745,897.1
588.878,898.4
589.012,900.9
589.145,895.7
589.279,900.4
589.412,895.7
589.546,903.7
589.679,902.6
589.812,905.5
589.946,904.9
590.079,905.5
590.213,903.3
590.346,904.9
590.48,905.2
590.613,905.6
590.747,913.6
590.88,909.4
591.013,908.0
591.147,910.5
591.28,908.1
591.414,909.7
591.547,906.5
591.68,908.8
591.814,907.0
591.947,911.6
592.081,912.8
592.214,912.0
592.347,914.5
592.481,911.3
592.614,913.3
592.747,911.2
592.881,910.8
593.014,912.4
593.147,910.2
593.281,910.3
593.414,912.9
593.547,914.8
593.681,908.5
593.814,909.4
593.947,909.5
594.081,914.4
594.214,914.8
594.347,912.6
594.48,910.5
594.614,914.2
594.747,914.0
594.88,913.2
595.014,911.6
595.147,912.7
595.28,912.4
595.413,913.2
595.547,909.7
595.68,910.9
595.813,907.4
595.946,915.1
596.079,909.2
596.213,909.1
596.346,912.5
596.479,915.5
596.612,911.8
596.745,910.7
596.879,910.2
597.012,909.5
597.145,912.8
597.278,910.5
597.411,911.9
597.545,910.6
597.678,914.0
597.811,912.8
597.944,909.7
598.077,917.6
598.21,914.9
598.343,913.7
598.476,915.0
598.61,915.8
598.743,916.8
598.876,915.3
599.009,912.9
599.142,914.6
599.275,915.3
599.408,919.4
599.541,915.0
599.674,911.7
599.807,913.8
599.941,914.4
600.074,913.2
600.207,914.9
600.34,915.1
600.473,910.3
600.606,911.7
600.739,916.9
600.872,909.5
601.005,914.0
601.138,916.1
601.271,914.3
601.404,915.5
601.537,916.4
601.67,914.7
601.803,915.4
601.936,915.9
602.069,915.5
602.202,913.9
602.335,912.3
602.468,917.4
602.601,912.4
602.734,914.2
602.867,911.4
603.0,909.1
603.133,912.8
603.266,911.1
603.399,908.5
603.532,910.7
603.664,907.8
603.797,908.9
603.93,911.8
604.063,909.2
604.196,911.3
604.329,909.4
604.462,906.6
604.595,908.5
604.728,902.8
604.861,905.7
604.994,904.6
605.126,904.7
605.259,904.3
605.392,903.1
605.525,904.3
605.658,901.8
605.791,901.4
605.924,898.1
606.056,898.1
606.189,901.2
606.322,899.3
606.455,900.9
606.588,900.6
606.721,897.9
606.853,901.0
606.986,897.0
607.119,896.2
607.252,896.8
607.385,897.0
607.517,896.8
607.65,899.5
607.783,895.3
607.916,893.1
608.049,894.6
608.181,894.7
608.314,893.6
608.447,896.0
608.58,893.5
608.712,894.3
608.845,895.6
608.978,892.6
609.111,895.0
609.243,893.0
609.376,889.5
609.509,892.6
609.641,889.0
609.774,891.0
609.907,891.8
610.04,890.9
610.172,889.4
610.305,891.9
610.438,892.6
610.57,893.1
610.703,889.5
610.836,893.3
610.968,889.0
611.101,894.4
611.234,895.5
611.366,890.9
611.499,890.3
611.632,889.9
611.764,888.5
611.897,887.3
612.03,889.1
612.162,887.0
612.295,889.8
612.428,886.8
612.56,887.9
612.693,888.5
612.825,889.0
612.958,886.8
613.091,887.5
613.223,885.5
613.356,889.6
613.488,888.4
613.621,883.8
613.754,885.7
613.886,887.1
614.019,886.6
614.151,886.4
614.284,883.5
614.416,888.2
614.549,885.9
614.681,882.0
614.814,883.7
614.947,885.2
615.079,884.6
615.212,885.1
615.344,881.9
615.477,883.6
615.609,881.9
615.742,882.9
615.874,885.2
616.007,881.5
616.139,882.6
616.272,882.4
616.404,883.9
616.537,881.6
616.669,884.5
616.802,885.1
616.934,883.7
617.067,883.6
617.199,885.2
617.332,882.3
617.464,883.1
617.596,880.4
617.729,886.6
617.861,882.7
617.994,883.6
618.126,884.7
618.259,883.3
618.391,885.3
618.524,883.2
618.656,882.3
618.788,881.9
618.921,882.4
619.053,884.9
619.186,883.5
619.318,883.0
619.45,884.1
619.583,886.1
619.715,882.7
619.848,883.6
619.98,881.4
620.112,885.9
620.245,881.7
620.377,882.5
620.509,884.9
620.642,885.0
620.774,882.5
620.907,884.8
621.039,882.9
621.171,886.6
621.304,883.8
621.436,888.0
621.568,889.6
621.701,890.8
621.833,892.6
621.965,896.7
622.097,898.4
622.23,900.3
622.362,906.3
622.494,897.3
622.627,898.3
622.759,893.9
622.891,891.1
623.024,888.6
623.156,887.5
623.288,883.6
623.42,884.4
623.553,882.4
623.685,881.8
623.817,882.1
623.949,881.4
624.082,882.5
624.214,881.2
624.346,881.0
624.479,878.4
624.611,880.0
624.743,883.3
624.875,880.7
625.007,884.1
625.14,882.2
625.272,882.9
625.404,887.3
625.536,886.2
625.669,885.8
625.801,886.5
625.933,887.7
626.065,892.7
626.197,892.7
626.33,897.4
626.462,910.0
626.594,922.8
626.726,960.3
626.858,1016.8
626.99,1098.9
627.123,1203.8
627.255,1257.9
627.387,1240.7
627.519,1182.2
627.651,1138.7
627.783,1105.6
627.916,1082.3
628.048,1068.6
628.18,1080.7
628.312,1101.2
628.444,1189.8
628.576,1331.5
628.708,1315.0
628.84,1190.9
628.973,1134.1
629.105,1116.9
629.237,1106.7
629.369,1096.7
629.501,1073.7
629.633,1050.3
629.765,1033.1
629.897,1021.9
630.029,1007.5
630.161,1007.6
630.294,1007.9
630.426,1005.7
630.558,1002.0
630.69,985.0
630.822,969.2
630.954,954.0
631.086,935.1
631.218,915.2
631.35,905.3
631.482,897.8
631.614,896.5
631.746,892.3
631.878,892.2
632.01,887.5
632.142,885.8
632.274,884.6
632.406,884.5
632.538,878.5
632.67,883.9
632.802,883.0
632.934,883.9
633.066,880.3
633.198,877.2
633.33,882.5
633.462,884.0
633.594,880.5
633.726,882.2
633.858,881.2
633.99,879.0
634.122,879.4
634.254,877.3
634.386,877.9
634.518,878.5
634.65,878.8
634.782,876.5
634.914,877.7
635.046,878.6
635.178,876.5
635.31,878.2
635.442,879.4
635.574,873.7
635.706,876.6
635.838,878.9
635.97,875.0
636.102,878.5
636.234,878.3
636.365,876.5
636.497,876.4
636.629,878.2
636.761,876.3
636.893,880.0
637.025,880.4
637.157,874.0
637.289,874.7
637.421,878.5
637.553,879.0
637.685,878.5
637.816,877.2
637.948,879.7
638.08,877.8
638.212,877.1
638.344,873.6
638.476,875.6
638.608,878.3
638.74,875.4
638.871,877.6
639.003,878.3
639.135,878.0
639.267,879.4
639.399,877.0
639.531,880.6
639.662,879.4
639.794,881.0
639.926,877.0
640.058,876.9
640.19,876.6
640.322,879.5
640.453,878.6
640.585,877.0
640.717,876.7
640.849,880.4
640.981,876.0
641.113,878.8
641.244,879.2
641.376,879.8
641.508,879.0
641.64,878.6
641.772,879.7
641.903,882.9
642.035,879.3
642.167,882.1
642.299,881.3
642.43,880.2
642.562,882.5
642.694,880.1
642.826,880.5
642.958,880.6
643.089,880.1
643.221,878.8
643.353,879.9
643.485,882.2
643.616,881.2
643.748,879.4
643.88,882.2
644.012,877.6
644.143,882.1
644.275,879.6
644.407,879.2
644.538,880.4
644.67,879.3
644.802,879.2
644.934,879.9
645.065,878.1
645.197,877.4
645.329,879.3
645.461,878.3
645.592,878.1
645.724,879.7
645.856,877.2
645.987,879.7
646.119,876.7
646.251,879.0
646.382,880.0
646.514,878.7
646.646,879.0
646.777,876.7
646.909,880.1
647.041,879.9
647.172,879.4
647.304,878.7
647.436,877.4
647.567,876.9
647.699,879.6
647.831,878.3
647.962,880.0
648.094,878.3
648.226,877.1
648.357,882.2
648.489,879.9
648.621,876.7
648.752,876.2
648.884,877.0
649.016,877.7
649.147,878.3
649.279,877.2
649.411,878.9
649.542,875.6
649.674,876.0
649.805,877.3
649.937,874.8
650.069,876.2
650.2,875.2
650.332,876.2
650.463,877.9
650.595,874.0
650.727,874.7
650.858,874.7
650.99,875.7
651.121,873.3
651.253,874.3
651.385,877.4
651.516,876.8
651.648,875.5
651.779,874.5
651.911,873.9
652.043,876.2
652.174,871.9
652.306,875.6
652.437,874.2
652.569,875.3
652.7,875.8
652.832,876.2
652.963,875.2
653.095,875.5
653.227,873.8
653.358,876.4
653.49,875.4
653.621,874.1
653.753,876.9
653.884,877.0
654.016,875.8
654.147,875.7
654.279,874.4
654.41,876.9
654.542,875.1
654.674,874.3
654.805,874.0
654.937,874.2
655.068,871.6
655.2,876.8
655.331,873.0
655.463,872.8
655.594,873.6
655.726,873.4
655.857,872.2
655.989,873.2
656.12,874.1
656.252,872.7
656.383,874.0
656.515,872.0
656.646,874.5
656.778,872.7
656.909,872.8
657.041,872.5
657.172,871.2
657.304,872.9
657.435,872.5
657.567,874.1
657.698,870.8
657.829,870.3
657.961,872.4
658.092,871.0
658.224,869.6
658.355,869.7
658.487,871.0
658.618,872.0
658.75,871.1
658.881,869.1
659.013,870.1
659.144,867.0
659.275,868.8
659.407,872.0
659.538,871.0
659.67,869.2
659.801,871.0
659.933,868.9
660.064,872.8
660.196,869.2
660.327,868.9
660.458,870.3
660.59,868.6
660.721,869.0
660.853,867.1
660.984,867.2
661.116,866.8
661.247,867.4
661.378,867.7
661.51,867.7
661.641,865.8
661.773,868.1
661.904,868.7
662.035,868.1
662.167,866.0
662.298,863.9
662.43,866.8
662.561,866.9
662.692,863.4
662.824,866.3
662.955,863.6
663.087,865.9