File: spectra/VLFR_06-PET_bio_Raman_c6aee2f4.csv
nm,Intensity
528.65,1845.8
528.819,1845.8
528.987,1846.3
529.155,1846.55
529.324,1846.4
529.492,1845.95
529.66,1845.75
529.829,1846.65
529.997,1844.9
530.165,1846.5
530.334,1846.3
530.502,1847.65
530.67,1846.65
530.839,1847.3
531.007,1848.2
531.175,1847.95
531.344,1847.95
531.512,1850.25
531.68,1863.85
531.848,2082.15
532.017,2855.25
532.185,2636.1
532.353,1917.5
532.521,1848.8
532.69,1847.7
532.858,1848.6
533.026,1847.35
533.194,1848.35
533.363,1854.25
533.531,1899.5
533.699,2172.35
533.867,2597.65
534.036,2844.1
534.204,2851.2
534.372,2768.9
534.54,2695.3
534.708,2639.1
534.877,2597.85
535.045,2561.05
535.213,2543.45
535.381,2498.35
535.549,2437.65
535.717,2413.6
535.886,2345.0
536.054,2337.7
536.222,2315.8
536.39,2320.15
536.558,2313.8
536.726,2313.8
536.894,2294.05
537.062,2313.5
537.231,2305.7
537.399,2308.85
537.567,2323.65
537.735,2295.65
537.903,2316.2
538.071,2322.85
538.239,2323.5
538.407,2309.5
538.575,2323.0
538.743,2327.5
538.911,2324.7
539.079,2344.85
539.247,2338.4
539.415,2364.95
539.583,2347.75
539.751,2357.85
539.919,2379.6
540.087,2362.7
540.255,2347.6
540.423,2340.5
540.591,2352.35
540.759,2358.45
540.927,2351.85
541.095,2356.55
541.263,2334.9
541.431,2347.9
541.599,2351.2
541.767,2339.55
541.935,2350.1
542.103,2347.45
542.271,2347.85
542.439,2355.9
542.607,2358.2
542.775,2363.2
542.943,2362.75
543.111,2375.1
543.279,2372.85
543.446,2368.45
543.614,2367.85
543.782,2390.75
543.95,2425.7
544.118,2419.45
544.286,2401.95
544.454,2412.65
544.622,2385.0
544.789,2400.8
544.957,2402.8
545.125,2389.4
545.293,2402.05
545.461,2398.45
545.629,2428.2
545.796,2417.1
545.964,2436.0
546.132,2475.3
546.3,2530.6
546.468,2585.6
546.635,2559.05
546.803,2490.5
546.971,2459.15
547.139,2429.1
547.306,2437.25
547.474,2434.6
547.642,2434.95
547.81,2447.0
547.977,2451.75
548.145,2464.85
548.313,2458.45
548.481,2465.45
548.648,2458.7
548.816,2469.25
548.984,2471.8
549.151,2468.6
549.319,2467.65
549.487,2479.25
549.655,2481.55
549.822,2487.1
549.99,2519.65
550.158,2536.95
550.325,2549.25
550.493,2585.3
550.66,2631.5
550.828,2564.55
550.996,2497.6
551.163,2503.0
551.331,2514.7
551.499,2504.9
551.666,2495.05
551.834,2534.65
552.001,2547.4
552.169,2511.15
552.337,2500.65
552.504,2520.35
552.672,2531.4
552.839,2567.2
553.007,2546.05
553.174,2524.9
553.342,2526.8
553.509,2525.4
553.677,2513.55
553.844,2502.15
554.012,2536.15
554.179,2540.85
554.347,2526.7
554.514,2537.55
554.682,2549.65
554.849,2538.15
555.017,2555.6
555.184,2553.25
555.352,2579.6
555.519,2590.1
555.687,2626.15
555.854,2590.65
556.022,2604.85
556.189,2615.45
556.357,2620.25
556.524,2624.4
556.691,2619.4
556.859,2622.75
557.026,2648.9
557.194,2684.65
557.361,2766.5
557.528,2787.15
557.696,2757.9
557.863,2680.95
558.031,2674.4
558.198,2675.8
558.365,2676.6
558.533,2682.5
558.7,2657.95
558.867,2649.05
559.035,2635.75
559.202,2642.7
559.369,2617.5
559.537,2626.6
559.704,2624.95
559.871,2604.25
560.038,2644.0
560.206,2623.35
560.373,2630.7
560.54,2645.9
560.708,2655.35
560.875,2647.65
561.042,2654.1
561.209,2654.65
561.377,2666.9
561.544,2685.45
561.711,2723.8
561.878,2765.2
562.045,3027.45
562.213,3528.4
562.38,3487.25
562.547,2946.75
562.714,2783.7
562.881,2723.5
563.049,2730.75
563.216,2745.8
563.383,2707.85
563.55,2722.55
563.717,2714.7
563.884,2703.85
564.052,2715.8
564.219,2734.25
564.386,2739.15
564.553,2758.9
564.72,2771.15
564.887,2767.05
565.054,2847.4
565.221,2853.1
565.388,2895.75
565.556,2911.05
565.723,2925.5
565.89,2938.5
566.057,2921.35
566.224,2918.1
566.391,2918.15
566.558,2888.35
566.725,2824.2
566.892,2806.65
567.059,2830.75
567.226,2829.7
567.393,2868.2
567.56,2893.8
567.727,2889.5
567.894,2867.15
568.061,2841.15
568.228,2870.6
568.395,2856.6
568.562,2841.5
568.729,2846.15
568.896,2879.6
569.063,2882.35
569.23,2903.25
569.396,2897.6
569.563,2909.3
569.73,2921.05
569.897,2925.7
570.064,2955.75
570.231,2976.05
570.398,3035.2
570.565,3064.55
570.732,3080.1
570.898,3168.7
571.065,3238.75
571.232,3258.75
571.399,3281.55
571.566,3235.1
571.733,3192.45
571.9,3137.0
572.066,3108.75
572.233,3095.75
572.4,3062.35
572.567,3037.25
572.734,3064.65
572.9,3054.9
573.067,3012.6
573.234,3046.1
573.401,3031.7
573.567,3024.55
573.734,3056.55
573.901,3068.5
574.068,3061.75
574.234,3108.05
574.401,3072.2
574.568,3038.55
574.734,3058.25
574.901,3084.4
575.068,3123.15
575.235,3131.45
575.401,3135.45
575.568,3103.0
575.735,3113.35
575.901,3098.45
576.068,3124.1
576.235,3147.25
576.401,3179.05
576.568,3163.75
576.734,3154.5
576.901,3161.75
577.068,3172.65
577.234,3122.45
577.401,3111.95
577.567,3160.8
577.734,3103.9
577.901,3155.05
578.067,3152.5
578.234,3160.25
578.4,3146.4
578.567,3136.2
578.733,3131.7
578.9,3184.65
579.066,3190.55
579.233,3172.2
579.399,3199.35
579.566,3156.15
579.732,3180.7
579.899,3215.0
580.065,3234.85
580.232,3240.25
580.398,3229.8
580.565,3258.65
580.731,3270.55
580.898,3258.2
581.064,3279.1
581.231,3334.8
581.397,3347.95
581.563,3402.05
581.73,3542.2
581.896,3872.85
582.063,4330.6
582.229,4289.1
582.395,3718.95
582.562,3385.6
582.728,3311.0
582.895,3297.65
583.061,3285.35
583.227,3245.6
583.394,3287.8
583.56,3290.65
583.726,3275.3
583.893,3295.9
584.059,3265.1
584.225,3291.0
584.391,3322.05
584.558,3277.25
584.724,3313.1
584.89,3303.25
585.057,3299.95
585.223,3414.2
585.389,3463.55
585.555,3658.65
585.722,3796.2
585.888,3874.0
586.054,3917.35
586.22,3777.25
586.386,3642.6
586.553,3527.55
586.719,3440.9
586.885,3346.5
587.051,3333.8
587.217,3352.8
587.384,3343.25
587.55,3343.3
587.716,3310.15
587.882,3330.6
588.048,3406.8
588.214,3326.3
588.38,3304.3
588.546,3334.25
588.713,3350.2
588.879,3353.75
589.045,3320.0
589.211,3287.8
589.377,3332.8
589.543,3303.1
589.709,3325.15
589.875,3360.8
590.041,3314.4
590.207,3306.6
590.373,3321.25
590.539,3352.2
590.705,3356.8
590.871,3295.15
591.037,3314.95
591.203,3368.9
591.369,3351.05
591.535,3358.1
591.701,3343.15
591.867,3353.3
592.033,3352.95
592.199,3398.35
592.365,3395.35
592.531,3362.55
592.697,3354.8
592.863,3349.95
593.029,3389.2
593.195,3378.6
593.361,3367.65
593.526,3390.05
593.692,3362.9
593.858,3333.8
594.024,3361.75
594.19,3384.8
594.356,3374.85
594.522,3338.75
594.687,3392.55
594.853,3381.05
595.019,3406.0
595.185,3386.9
595.351,3377.0
595.516,3385.85
595.682,3406.85
595.848,3388.45
596.014,3398.3
596.18,3372.15
596.345,3364.35
596.511,3450.6
596.677,3421.25
596.843,3384.1
597.008,3425.25
597.174,3387.4
597.34,3388.0
597.505,3418.85
597.671,3416.35
597.837,3423.8
598.002,3368.5
598.168,3427.8
598.334,3390.5
598.499,3430.75
598.665,3399.65
598.831,3399.2
598.996,3407.95
599.162,3409.3
599.328,3410.55
599.493,3425.7
599.659,3449.95
599.824,3393.65
599.99,3451.8
600.156,3433.3
600.321,3429.6
600.487,3422.1
600.652,3421.7
600.818,3455.5
600.983,3420.95
601.149,3408.25
601.314,3455.8
601.48,3471.05
601.645,3419.4
601.811,3432.85
601.976,3430.35
602.142,3442.9
602.307,3413.75
602.473,3404.3
602.638,3450.35
602.804,3466.35
602.969,3464.0
603.135,3459.25
603.3,3515.6
603.466,3435.15
603.631,3433.2
603.796,3455.3
603.962,3480.15
604.127,3474.6
604.293,3456.8
604.458,3434.65
604.623,3456.85
604.789,3477.55
604.954,3474.95
605.119,3486.5
605.285,3429.6
605.45,3475.9
605.615,3460.65
605.781,3462.2
605.946,3422.1
606.111,3463.75
606.277,3460.25
606.442,3478.35
606.607,3508.3
606.772,3491.7
606.938,3477.15
607.103,3460.1
607.268,3521.65
607.433,3506.55
607.599,3498.65
607.764,3457.1
607.929,3475.0
608.094,3530.95
608.259,3493.4
608.425,3476.3
608.59,3475.55
608.755,3484.0
608.92,3497.15
609.085,3490.4
609.25,3508.25
609.415,3490.3
609.581,3500.2
609.746,3516.5
609.911,3525.85
610.076,3550.25
610.241,3464.3
610.406,3518.8
610.571,3517.0
610.736,3542.25
610.901,3499.1
611.066,3497.0
611.231,3559.2
611.396,3531.45
611.561,3518.6
611.727,3514.1
611.892,3512.6
612.057,3502.9
612.222,3561.25
612.386,3552.15
612.551,3498.65
612.716,3508.85
612.881,3524.4
613.046,3503.35
613.211,3521.4
613.376,3538.6
613.541,3553.9
613.706,3495.1
613.871,3541.55
614.036,3553.3
614.201,3535.9
614.366,3567.9
614.531,3537.0
614.695,3558.55
614.86,3588.0
615.025,3560.0
615.19,3566.45
615.355,3527.75
615.52,3573.45
615.684,3539.25
615.849,3595.65
616.014,3603.8
616.179,3556.85
616.344,3561.75
616.508,3537.7
616.673,3580.65
616.838,3559.2
617.003,3583.65
617.168,3558.8
617.332,3579.45
617.497,3620.15
617.662,3594.4
617.826,3602.0
617.991,3602.0
618.156,3668.05
618.32,3612.6
618.485,3620.95
618.65,3643.15
618.814,3571.25
618.979,3599.2
619.144,3644.45
619.308,3654.05
619.473,3615.25
619.638,3584.6
619.802,3667.7
619.967,3630.4
620.131,3623.55
620.296,3651.85
620.461,3634.65
620.625,3630.6
620.79,3664.15
620.954,3684.65
621.119,3622.9
621.283,3671.0
621.448,3633.55
621.612,3634.1
621.777,3656.6
621.941,3671.25
622.106,3596.75
622.27,3618.3
622.435,3717.35
622.599,3641.15
622.764,3682.65
622.928,3681.85
623.093,3655.2
623.257,3678.1
623.422,3637.0
623.586,3719.55
623.75,3692.6
623.915,3696.35
624.079,3691.2
624.244,3729.45
624.408,3721.6
624.572,3657.4
624.737,3632.15
624.901,3712.0
625.065,3781.7
625.23,3686.2
625.394,3738.2
625.558,3678.35
625.723,3684.1
625.887,3745.75
626.051,3694.6
626.215,3763.0
626.38,3693.8
626.544,3688.6
626.708,3770.85
626.872,3729.7
627.037,3728.65
627.201,3713.4
627.365,3741.35
627.529,3790.6
627.693,3753.35
627.858,3760.85
628.022,3768.85
628.186,3823.2
628.35,3789.9
628.514,3797.75
628.678,3850.7
628.843,3799.75
629.007,3828.95
629.171,3786.8
629.335,3889.4
629.499,3901.1
629.663,3859.1
629.827,3842.2
629.991,3772.15
630.155,3778.65
630.319,3928.5
630.483,3868.15
630.647,3888.0
630.812,3887.0
630.976,3859.8
631.14,3998.8
631.304,4022.25
631.468,4082.7
631.632,4091.85
631.796,4144.3
631.959,4079.3
632.123,4020.3
632.287,4048.8
632.451,3996.5
632.615,4035.95
632.779,3978.3
632.943,4026.45
633.107,4010.85
633.271,3996.9
633.435,4035.25
633.599,3988.4
633.763,3980.5
633.926,3967.95
634.09,3982.1
634.254,3998.5
634.418,3955.35
634.582,3945.85
634.746,3939.15
634.909,3999.9
635.073,3944.0
635.237,3917.35
635.401,3934.75
635.564,4041.5
635.728,4004.2
635.892,4040.5
636.056,4048.8
636.219,4189.35
636.383,4206.15
636.547,4175.65
636.711,4159.55
636.874,4131.75
637.038,4075.05
637.202,4045.65
637.365,4016.6
637.529,3992.3
637.693,3939.15
637.856,4007.85
638.02,4029.8
638.184,3981.2
638.347,4014.25
638.511,3960.15
638.674,3942.35
638.838,3956.1
639.002,3961.85
639.165,3958.3
639.329,4016.3
639.492,3960.95
639.656,3962.4
639.819,3917.75
639.983,3975.7
640.146,3990.95
640.31,3987.35
640.473,3918.05
640.637,3953.8
640.8,3957.85
640.964,3953.15
641.127,3920.5
641.291,3882.6
641.454,3997.05
641.618,3956.05
641.781,3968.65
641.944,4054.9
642.108,3980.1
642.271,4004.15
642.435,3960.4
642.598,3942.45
642.761,3947.2
642.925,4015.55
643.088,3924.65
643.251,3873.85
643.415,3963.25
643.578,3986.95
643.741,3988.2
643.905,4011.9
644.068,3988.25
644.231,3936.65
644.394,4001.4
644.558,3908.5
644.721,3928.45
644.884,3928.65
645.047,3936.5
645.211,3938.25
645.374,4006.25
645.537,4003.2
645.7,3976.1
645.863,3899.3
646.027,3939.65
646.19,3958.45
646.353,3993.4
646.516,3980.6
646.679,3916.25
646.842,3985.1
647.005,3912.25
647.169,3914.65
647.332,3936.85
647.495,4007.05
647.658,3978.6
647.821,3908.7
647.984,3968.35
648.147,3880.05
648.31,3989.3
648.473,3880.6
648.636,3860.2
648.799,3912.3
648.962,3936.0
649.125,3896.85
649.288,3984.15
649.451,3909.85
649.614,3841.45
649.777,3945.3
649.94,3887.5
650.103,3965.15
650.266,3942.8
650.429,3915.55
650.592,3814.85
650.755,3913.15
650.918,3896.85
651.08,3939.3
651.243,3925.65
651.406,3864.25
651.569,3854.85
651.732,3845.15
651.895,3908.05
652.058,3817.4
652.22,3851.25
652.383,3893.3
652.546,3827.3
652.709,3847.8
652.872,3811.95
653.034,3770.85
653.197,3812.05
653.36,3807.3
653.523,3833.3
653.685,3837.65
653.848,3748.5
654.011,3875.95
654.173,3770.4
654.336,3696.05
654.499,3723.35
654.662,3777.15
654.824,3756.35
654.987,3775.9
655.149,3723.4
655.312,3717.4
655.475,3701.3
655.637,3711.8
655.8,3761.1
655.963,3710.15
656.125,3606.75
656.288,3681.2
656.45,3671.0
656.613,3611.1
656.775,3608.85
656.938,3737.9
657.1,3656.95
657.263,3645.95
657.425,3644.05
657.588,3559.5
657.75,3647.5
657.913,3652.45
658.075,3607.6
658.238,3603.75
658.4,3537.85
658.563,3615.05
658.725,3568.5
658.888,3605.5
659.05,3609.0
659.212,3568.5
659.375,3504.2
659.537,3490.7
659.7,3471.8
659.862,3519.7
660.024,3474.1
660.187,3576.65
660.349,3536.55
660.511,3471.15
660.674,3490.45
660.836,3468.25
660.998,3501.2
661.079,3462.15