File: spectra/VLFR_01-LDPE_nobio_Raman_d0639b17.csv
nm,Intensity
526.547,833.3
526.683,830.9
526.82,832.4
526.957,833.4
527.094,833.5
527.23,834.3
527.367,832.0
527.504,832.9
527.641,833.2
527.777,833.7
527.914,833.2
528.051,832.7
528.188,833.4
528.324,832.2
528.461,832.1
528.598,834.2
528.734,831.2
528.871,834.9
529.008,832.8
529.144,831.4
529.281,831.3
529.417,831.5
529.554,831.2
529.691,832.4
529.827,832.9
529.964,832.6
530.1,830.8
530.237,832.6
530.373,832.8
530.51,832.0
530.647,831.4
530.783,832.2
530.92,832.5
531.056,832.4
531.193,832.4
531.329,832.5
531.466,832.0
531.602,832.4
531.738,832.1
531.875,833.2
532.011,836.4
532.148,850.6
532.284,847.9
532.421,833.7
532.557,832.2
532.693,831.8
532.83,832.0
532.966,831.8
533.103,831.6
533.239,832.3
533.375,832.6
533.512,834.0
533.648,833.9
533.784,844.2
533.921,876.0
534.057,917.2
534.193,930.8
534.33,928.0
534.466,925.7
534.602,926.2
534.738,921.6
534.875,923.6
535.011,922.1
535.147,919.0
535.283,915.3
535.42,911.7
535.556,913.4
535.692,913.2
535.828,904.6
535.964,906.1
536.101,903.0
536.237,902.9
536.373,900.6
536.509,902.5
536.645,901.0
536.781,900.2
536.917,901.6
537.054,894.9
537.19,898.0
537.326,897.7
537.462,895.6
537.598,894.9
537.734,895.4
537.87,900.1
538.006,894.4
538.142,894.8
538.278,893.8
538.414,894.1
538.55,896.3
538.686,893.8
538.822,891.5
538.958,890.5
539.094,891.9
539.23,892.1
539.366,889.9
539.502,889.9
539.638,889.3
539.774,889.9
539.91,891.3
540.046,890.0
540.182,889.6
540.318,888.6
540.454,888.1
540.59,887.2
540.726,889.5
540.862,887.3
540.997,885.8
541.133,887.2
541.269,887.4
541.405,890.3
541.541,883.7
541.677,889.1
541.812,885.1
541.948,889.1
542.084,887.5
542.22,888.5
542.356,886.1
542.492,888.6
542.627,889.2
542.763,887.7
542.899,885.7
543.035,887.2
543.17,886.6
543.306,888.3
543.442,884.2
543.578,886.0
543.713,885.6
543.849,887.8
543.985,884.9
544.12,886.9
544.256,886.5
544.392,886.2
544.527,886.2
544.663,889.7
544.799,885.1
544.934,884.7
545.07,886.3
545.206,884.4
545.341,886.9
545.477,883.0
545.612,885.0
545.748,883.0
545.884,887.4
546.019,884.6
546.155,888.1
546.29,884.3
546.426,883.9
546.562,884.4
546.697,888.1
546.833,887.6
546.968,885.7
547.104,886.3
547.239,885.0
547.375,884.8
547.51,885.3
547.646,885.3
547.781,885.0
547.917,881.7
548.052,883.3
548.188,881.4
548.323,886.4
548.458,882.3
548.594,884.0
548.729,881.6
548.865,884.3
549.0,880.3
549.136,882.7
549.271,883.4
549.406,881.8
549.542,884.1
549.677,884.1
549.812,882.8
549.948,881.3
550.083,883.2
550.219,882.8
550.354,882.3
550.489,882.2
550.625,882.8
550.76,881.8
550.895,882.0
551.03,884.9
551.166,884.3
551.301,883.6
551.436,885.1
551.572,882.4
551.707,884.6
551.842,883.5
551.977,882.7
552.113,883.4
552.248,883.9
552.383,885.8
552.518,884.9
552.654,885.1
552.789,882.8
552.924,883.9
553.059,885.3
553.194,888.2
553.329,885.1
553.465,888.0
553.6,886.3
553.735,887.8
553.87,884.4
554.005,888.8
554.14,887.4
554.276,885.9
554.411,884.4
554.546,884.6
554.681,888.5
554.816,890.4
554.951,886.1
555.086,887.4
555.221,890.2
555.356,891.5
555.491,889.9
555.626,886.4
555.761,888.8
555.896,891.6
556.031,891.0
556.167,892.1
556.302,890.1
556.437,888.4
556.572,890.0
556.707,890.3
556.842,893.0
556.977,892.9
557.112,891.3
557.246,894.0
557.381,894.2
557.516,895.6
557.651,895.8
557.786,897.4
557.921,894.2
558.056,895.1
558.191,895.5
558.326,894.4
558.461,899.5
558.596,899.0
558.731,899.9
558.866,895.9
559.0,897.1
559.135,898.3
559.27,897.5
559.405,897.6
559.54,896.8
559.675,897.1
559.81,897.4
559.944,897.6
560.079,902.2
560.214,895.7
560.349,896.9
560.484,899.6
560.618,897.0
560.753,899.8
560.888,900.1
561.023,901.6
561.158,904.0
561.292,904.7
561.427,902.3
561.562,900.8
561.697,902.6
561.831,901.7
561.966,903.3
562.101,905.0
562.235,902.7
562.37,908.1
562.505,904.0
562.64,909.2
562.774,907.8
562.909,910.4
563.044,911.5
563.178,909.9
563.313,909.0
563.448,913.4
563.582,915.5
563.717,918.3
563.852,924.1
563.986,947.9
564.121,959.7
564.255,938.7
564.39,926.1
564.525,927.0
564.659,932.8
564.794,925.9
564.928,929.4
565.063,926.0
565.198,926.6
565.332,926.1
565.467,926.3
565.601,922.2
565.736,924.9
565.87,928.7
566.005,936.3
566.139,957.9
566.274,949.1
566.408,937.5
566.543,927.0
566.677,920.8
566.812,922.9
566.946,921.4
567.081,922.0
567.215,919.6
567.35,921.0
567.484,922.0
567.619,923.8
567.753,917.7
567.887,918.4
568.022,918.8
568.156,918.2
568.291,921.9
568.425,921.5
568.56,921.0
568.694,922.0
568.828,922.0
568.963,920.7
569.097,927.6
569.231,922.3
569.366,925.2
569.5,926.5
569.635,923.7
569.769,924.7
569.903,926.3
570.038,925.8
570.172,926.8
570.306,927.1
570.441,934.3
570.575,931.8
570.709,932.2
570.843,934.8
570.978,932.2
571.112,933.3
571.246,935.4
571.381,959.5
571.515,997.4
571.649,1006.4
571.783,968.5
571.918,952.1
572.052,947.5
572.186,943.2
572.32,941.3
572.455,939.5
572.589,939.5
572.723,938.1
572.857,942.1
572.991,936.4
573.126,938.3
573.26,941.7
573.394,940.1
573.528,934.9
573.662,943.8
573.796,945.1
573.931,946.0
574.065,946.9
574.199,948.2
574.333,941.7
574.467,946.7
574.601,948.1
574.735,945.0
574.869,944.4
575.004,945.4
575.138,947.7
575.272,946.6
575.406,954.7
575.54,967.9
575.674,971.4
575.808,970.8
575.942,970.9
576.076,987.4
576.21,1004.2
576.344,1027.6
576.478,1017.7
576.612,997.7
576.746,997.7
576.88,1001.9
577.014,1001.4
577.148,1005.5
577.282,987.8
577.416,981.5
577.55,977.8
577.684,970.0
577.818,969.5
577.952,969.7
578.086,967.9
578.22,973.3
578.354,970.2
578.488,972.9
578.622,973.5
578.756,976.3
578.89,974.3
579.024,976.2
579.158,978.3
579.292,979.5
579.426,977.3
579.559,980.7
579.693,979.9
579.827,985.3
579.961,982.9
580.095,988.0
580.229,989.2
580.363,988.1
580.497,991.4
580.63,994.4
580.764,988.1
580.898,991.1
581.032,996.2
581.166,993.4
581.3,1000.6
581.433,1000.4
581.567,1000.8
581.701,1006.0
581.835,1006.4
581.969,1013.5
582.102,1010.1
582.236,1013.5
582.37,1018.5
582.504,1019.6
582.637,1016.7
582.771,1021.5
582.905,1024.8
583.039,1033.1
583.172,1038.0
583.306,1030.0
583.44,1037.7
583.574,1037.3
583.707,1046.0
583.841,1047.9
583.975,1050.5
584.108,1047.5
584.242,1049.0
584.376,1056.8
584.51,1057.0
584.643,1063.7
584.777,1059.9
584.911,1063.6
585.044,1074.4
585.178,1079.9
585.312,1077.8
585.445,1082.1
585.579,1086.4
585.712,1086.5
585.846,1097.7
585.98,1101.3
586.113,1099.4
586.247,1108.7
586.381,1117.7
586.514,1117.5
586.648,1121.8
586.781,1126.4
586.915,1129.7
587.048,1138.1
587.182,1141.3
587.316,1149.7
587.449,1154.5
587.583,1160.8
587.716,1160.5
587.85,1166.7
587.983,1175.6
588.117,1177.8
588.25,1174.3
588.384,1184.4
588.517,1188.6
588.651,1191.9
588.784,1192.3
588.918,1202.7
589.051,1204.6
589.185,1213.8
589.318,1221.1
589.452,1219.0
589.585,1228.4
589.719,1228.8
589.852,1232.7
589.986,1248.0
590.119,1255.4
590.253,1262.9
590.386,1256.2
590.519,1267.6
590.653,1277.0
590.786,1279.8
590.92,1283.4
591.053,1292.2
591.187,1292.8
591.32,1292.6
591.453,1298.8
591.587,1311.9
591.72,1314.5
591.853,1322.9
591.987,1328.1
592.12,1338.9
592.254,1331.9
592.387,1333.6
592.52,1340.2
592.654,1346.8
592.787,1359.5
592.92,1359.3
593.054,1358.9
593.187,1360.5
593.32,1374.5
593.454,1378.7
593.587,1383.3
593.72,1389.4
593.853,1391.8
593.987,1398.3
594.12,1409.6
594.253,1409.0
594.387,1422.4
594.52,1427.6
594.653,1435.2
594.786,1435.8
594.92,1445.6
595.053,1449.6
595.186,1464.5
595.319,1465.1
595.453,1484.6
595.586,1486.1
595.719,1499.4
595.852,1507.7
595.985,1500.5
596.119,1521.3
596.252,1536.7
596.385,1533.8
596.518,1543.2
596.651,1555.8
596.785,1554.3
596.918,1570.5
597.051,1573.8
597.184,1579.2
597.317,1589.1
597.45,1610.6
597.584,1605.3
597.717,1616.6
597.85,1627.1
597.983,1640.1
598.116,1643.0
598.249,1645.8
598.382,1669.9
598.516,1683.5
598.649,1681.6
598.782,1690.8
598.915,1682.3
599.048,1706.0
599.181,1711.1
599.314,1713.0
599.447,1721.9
599.58,1716.7
599.713,1725.0
599.846,1735.8
599.979,1723.3
600.113,1727.5
600.246,1748.5
600.379,1733.5
600.512,1743.4
600.645,1740.0
600.778,1740.9
600.911,1744.0
601.044,1742.4
601.177,1728.4
601.31,1739.0
601.443,1741.4
601.576,1742.6
601.709,1723.0
601.842,1725.7
601.975,1725.0
602.108,1732.9
602.241,1726.2
602.374,1726.5
602.507,1714.8
602.64,1708.4
602.773,1706.9
602.905,1703.6
603.038,1693.2
603.171,1687.2
603.304,1681.3
603.437,1682.2
603.57,1672.6
603.703,1661.0
603.836,1651.9
603.969,1650.6
604.102,1642.5
604.235,1633.7
604.368,1626.2
604.501,1606.0
604.633,1602.7
604.766,1590.7
604.899,1583.8
605.032,1568.3
605.165,1556.6
605.298,1545.4
605.431,1529.6
605.563,1532.3
605.696,1519.1
605.829,1507.5
605.962,1498.5
606.095,1496.2
606.228,1490.4
606.36,1487.6
606.493,1473.8
606.626,1465.0
606.759,1450.8
606.892,1446.4
607.025,1438.5
607.157,1440.6
607.29,1435.6
607.423,1426.3
607.556,1421.4
607.688,1421.7
607.821,1410.6
607.954,1404.2
608.087,1397.9
608.219,1391.3
608.352,1398.1
608.485,1380.8
608.618,1381.7
608.75,1373.7
608.883,1365.1
609.016,1369.0
609.149,1357.5
609.281,1352.2
609.414,1351.6
609.547,1350.4
609.68,1340.6
609.812,1334.5
609.945,1334.0
610.078,1328.4
610.21,1335.5
610.343,1313.6
610.476,1318.2
610.608,1309.2
610.741,1303.9
610.874,1313.9
611.006,1304.9
611.139,1299.0
611.272,1306.5
611.404,1294.0
611.537,1295.5
611.67,1292.2
611.802,1288.8
611.935,1282.0
612.067,1293.2
612.2,1280.6
612.333,1290.7
612.465,1280.4
612.598,1276.8
612.731,1277.5
612.863,1274.3
612.996,1276.3
613.128,1269.0
613.261,1271.6
613.393,1261.7
613.526,1262.1
613.659,1265.1
613.791,1254.3
613.924,1253.4
614.056,1253.4
614.189,1252.8
614.321,1247.9
614.454,1239.4
614.586,1239.4
614.719,1237.2
614.852,1233.8
614.984,1233.3
615.117,1225.4
615.249,1224.8
615.382,1222.7
615.514,1222.2
615.647,1216.0
615.779,1218.2
615.912,1212.9
616.044,1214.9
616.177,1214.3
616.309,1207.4
616.442,1196.6
616.574,1199.1
616.707,1206.2
616.839,1194.8
616.971,1199.4
617.104,1200.6
617.236,1192.3
617.369,1192.0
617.501,1196.8
617.634,1186.0
617.766,1189.1
617.899,1183.1
618.031,1190.1
618.163,1183.9
618.296,1181.5
618.428,1186.7
618.561,1181.4
618.693,1180.9
618.826,1173.4
618.958,1169.5
619.09,1179.5
619.223,1168.9
619.355,1167.3
619.487,1165.0
619.62,1160.2
619.752,1161.1
619.885,1159.4
620.017,1166.9
620.149,1161.5
620.282,1157.2
620.414,1154.4
620.546,1163.5
620.679,1151.0
620.811,1150.4
620.943,1153.7
621.076,1150.5
621.208,1144.0
621.34,1155.7
621.473,1150.0
621.605,1147.3
621.737,1148.5
621.87,1155.0
622.002,1162.3
622.134,1159.5
622.267,1159.8
622.399,1161.7
622.531,1157.5
622.663,1150.9
622.796,1146.5
622.928,1142.8
623.06,1139.0
623.193,1133.2
623.325,1132.2
623.457,1130.9
623.589,1124.5
623.722,1125.8
623.854,1128.0
623.986,1124.7
624.118,1122.6
624.251,1116.3
624.383,1121.0
624.515,1113.6
624.647,1112.6
624.78,1119.7
624.912,1112.0
625.044,1109.6
625.176,1116.5
625.308,1116.0
625.441,1110.5
625.573,1113.9
625.705,1115.5
625.837,1113.2
625.969,1108.5
626.102,1112.6
626.234,1116.5
626.366,1121.1
626.498,1131.9
626.63,1153.7
626.762,1199.7
626.895,1255.2
627.027,1362.2
627.159,1460.5
627.291,1471.6
627.423,1445.4
627.555,1391.3
627.687,1348.5
627.82,1332.3
627.952,1312.3
628.084,1301.3
628.216,1309.9
628.348,1363.6
628.48,1459.9
628.612,1514.4
628.744,1425.3
628.877,1351.8
629.009,1322.4
629.141,1313.8
629.273,1311.8
629.405,1285.6
629.537,1263.5
629.669,1248.8
629.801,1233.5
629.933,1228.2
630.065,1227.1
630.197,1206.7
630.33,1217.7
630.462,1206.1
630.594,1197.6
630.726,1184.7
630.858,1167.9
630.99,1140.4
631.122,1128.3
631.254,1114.2
631.386,1104.5
631.518,1096.2
631.65,1095.2
631.782,1087.8
631.914,1088.4
632.046,1081.9
632.178,1079.0
632.31,1078.1
632.442,1078.5
632.574,1078.6
632.706,1076.1
632.838,1076.5
632.97,1075.9
633.102,1067.8
633.234,1070.0
633.366,1067.1
633.498,1067.3
633.63,1072.3
633.762,1065.8
633.894,1066.5
634.026,1064.2
634.158,1066.4
634.29,1067.5
634.422,1062.3
634.554,1068.3
634.686,1065.2
634.818,1071.1
634.95,1072.7
635.082,1067.3
635.214,1073.3
635.346,1067.2
635.477,1067.2
635.609,1068.7
635.741,1067.7
635.873,1070.1
636.005,1068.2
636.137,1066.9
636.269,1071.7
636.401,1070.6
636.533,1071.6
636.665,1069.1
636.797,1068.2
636.929,1072.2
637.06,1068.5
637.192,1066.3
637.324,1073.7
637.456,1070.5
637.588,1070.4
637.72,1079.4
637.852,1072.6
637.984,1074.2
638.115,1074.5
638.247,1077.3
638.379,1079.0
638.511,1081.2
638.643,1085.3
638.775,1079.8
638.907,1085.2
639.039,1081.9
639.17,1080.1
639.302,1084.1
639.434,1085.4
639.566,1087.7
639.698,1092.1
639.83,1092.3
639.961,1092.8
640.093,1093.6
640.225,1087.0
640.357,1090.1
640.489,1091.9
640.62,1094.8
640.752,1099.3
640.884,1098.1
641.016,1100.5
641.148,1107.0
641.279,1100.3
641.411,1101.5
641.543,1097.3
641.675,1105.1
641.807,1105.4
641.938,1109.6
642.07,1107.6
642.202,1108.1
642.334,1108.0
642.466,1103.3
642.597,1111.5
642.729,1114.2
642.861,1115.0
642.993,1110.6
643.124,1108.3
643.256,1118.5
643.388,1113.8
643.52,1117.0
643.651,1110.1
643.783,1121.7
643.915,1117.3
644.047,1112.5
644.178,1119.7
644.31,1116.1
644.442,1117.4
644.574,1120.3
644.705,1123.0
644.837,1119.7
644.969,1125.8
645.1,1121.3
645.232,1122.4
645.364,1125.9
645.496,1128.8
645.627,1128.4
645.759,1130.4
645.891,1132.8
646.022,1130.8
646.154,1131.7
646.286,1132.7
646.417,1137.2
646.549,1133.6
646.681,1132.7
646.812,1137.4
646.944,1137.7
647.076,1135.9
647.207,1141.3
647.339,1142.2
647.471,1146.0
647.602,1142.8
647.734,1144.1
647.866,1147.8
647.997,1145.6
648.129,1146.0
648.261,1149.7
648.392,1152.4
648.524,1153.9
648.656,1157.2
648.787,1154.3
648.919,1152.1
649.051,1154.4
649.182,1153.3
649.314,1156.6
649.446,1157.7
649.577,1150.9
649.709,1157.7
649.84,1156.3
649.972,1158.1
650.104,1163.6
650.235,1154.3
650.367,1158.2
650.498,1157.4
650.63,1159.0
650.762,1166.3
650.893,1165.2
651.025,1156.8
651.157,1165.8
651.288,1166.1
651.42,1165.5
651.551,1161.3
651.683,1168.7
651.814,1172.6
651.946,1179.7
652.078,1175.3
652.209,1175.5
652.341,1183.6
652.472,1171.3
652.604,1171.0
652.736,1169.7
652.867,1177.8
652.999,1182.4
653.13,1183.1
653.262,1180.8
653.393,1180.0
653.525,1186.5
653.656,1186.7
653.788,1178.6
653.92,1188.6
654.051,1187.3
654.183,1186.6
654.314,1188.5
654.446,1186.9
654.577,1183.1
654.709,1178.4
654.84,1182.9
654.972,1182.3
655.103,1177.8
655.235,1177.2
655.366,1179.5
655.498,1179.7
655.63,1175.5
655.761,1176.5
655.893,1178.6
656.024,1176.7
656.156,1169.8
656.287,1181.8
656.419,1169.6
656.55,1170.8
656.682,1173.8
656.813,1170.3
656.945,1170.1
657.076,1166.9
657.208,1164.3
657.339,1168.6
657.471,1162.3
657.602,1161.8
657.734,1159.5
657.865,1153.6
657.997,1159.2
658.128,1157.4
658.26,1150.8
658.391,1154.8
658.522,1152.7
658.654,1135.0
658.785,1147.1
658.917,1144.1
659.048,1141.7
659.18,1134.4
659.311,1138.4
659.443,1134.9
659.574,1136.6
659.706,1132.5
659.837,1121.2
659.969,1128.5
660.1,1120.3
660.232,1118.2
660.363,1121.7
660.494,1110.5
660.626,1102.9
660.757,1108.0
660.889,1106.5
661.02,1103.4
661.152,1105.2
661.283,1093.1
661.415,1094.4
661.546,1096.0
661.677,1088.7
661.809,1084.1
661.94,1080.8
662.072,1080.7
662.203,1073.4
662.335,1074.9
662.466,1078.3
662.597,1073.9
662.729,1070.1
662.86,1069.2
662.992,1061.8
663.123,1058.3