File: spectra/VLFR_06-PET_nobio_Raman_f9918620.csv
cm-1,Intensity
-123.878,1853.3
-117.855,1853.25
-111.836,1854.35
-105.821,1853.75
-99.8104,1853.0
-93.8036,1852.65
-87.8007,1853.05
-81.8019,1852.95
-75.807,1852.9
-69.8161,1853.9
-63.8293,1851.65
-57.8464,1853.6
-51.8675,1854.65
-45.8926,1855.8
-39.9216,1853.75
-33.9547,1857.3
-27.9917,1857.9
-22.0326,1862.9
-16.0776,1896.3
-10.1265,2651.7
-4.17932,4974.35
1.76388,3889.4
7.70313,1989.25
13.6384,1859.8
19.5698,1859.65
25.4972,1857.45
31.4207,1859.0
37.3403,1866.25
43.256,1883.75
49.1677,2059.15
55.0755,3176.1
60.9794,5163.3
66.8794,6109.1
72.7754,6089.4
78.6676,5666.15
84.5559,5261.4
90.4402,5026.8
96.3207,4723.75
102.197,4298.0
108.07,4134.2
113.939,3898.8
119.804,3643.0
125.665,3432.15
131.522,3252.9
137.375,3108.7
143.225,3041.1
149.07,2946.9
154.912,2895.05
160.75,2856.25
166.584,2812.8
172.414,2838.1
178.241,2821.35
184.063,2818.3
189.882,2789.95
195.697,2819.3
201.508,2793.5
207.315,2810.0
213.119,2844.8
218.918,2864.3
224.714,2842.45
230.506,2859.25
236.294,2876.45
242.078,2906.7
247.859,2923.6
253.636,2921.75
259.409,2949.05
265.178,2976.6
270.943,2958.1
276.705,2923.25
282.463,2873.25
288.217,2849.75
293.967,2816.9
299.713,2807.3
305.456,2773.8
311.195,2734.3
316.93,2757.0
322.662,2744.9
328.389,2754.3
334.113,2760.85
339.834,2784.1
345.55,2751.55
351.263,2756.1
356.972,2789.8
362.677,2785.95
368.379,2790.25
374.077,2780.45
379.771,2795.45
385.461,2792.5
391.148,2790.95
396.831,2816.05
402.51,2816.85
408.186,2833.05
413.858,2800.8
419.526,2798.3
425.19,2806.5
430.851,2795.8
436.508,2836.2
442.162,2835.6
447.811,2820.95
453.458,2799.05
459.1,2841.05
464.739,2800.9
470.374,2821.7
476.005,2856.2
481.633,2855.65
487.257,2859.6
492.878,2836.25
498.494,2853.3
504.107,2879.4
509.717,2858.85
515.323,2850.55
520.925,2873.15
526.524,2879.3
532.119,2867.7
537.71,2895.25
543.298,2900.5
548.882,2902.45
554.462,2900.2
560.039,2899.85
565.613,2913.25
571.182,2937.7
576.748,2909.35
582.311,2912.1
587.87,2919.25
593.425,2895.65
598.977,2923.65
604.525,2931.25
610.069,2946.9
615.61,2951.7
621.148,3035.25
626.682,3375.15
632.212,3635.9
637.739,3304.4
643.262,3009.3
648.781,3008.3
654.297,2986.9
659.81,3003.75
665.319,2953.5
670.824,3015.75
676.326,2981.6
681.824,2987.35
687.319,3008.1
692.81,3051.2
698.298,3197.7
703.782,3268.1
709.262,3106.75
714.739,3077.8
720.213,2997.65
725.683,3001.85
731.15,3010.25
736.613,3048.55
742.072,3012.1
747.528,3023.35
752.981,2999.35
758.43,3020.1
763.875,3033.5
769.317,3050.9
774.756,3094.8
780.191,3097.6
785.623,3166.15
791.051,3339.25
796.475,3397.65
801.897,3317.55
807.314,3343.25
812.729,3384.45
818.139,3386.55
823.547,3394.65
828.951,3392.45
834.351,3442.6
839.748,3525.85
845.142,3690.55
850.532,4009.9
855.918,4232.7
861.302,4049.7
866.681,3724.65
872.058,3529.85
877.431,3515.8
882.8,3544.2
888.166,3523.2
893.529,3455.85
898.888,3389.2
904.244,3315.05
909.596,3273.6
914.945,3211.85
920.291,3195.0
925.633,3176.75
930.972,3184.85
936.308,3177.55
941.64,3216.05
946.968,3216.4
952.294,3149.15
957.615,3207.9
962.934,3242.6
968.249,3254.4
973.561,3229.7
978.869,3240.5
984.174,3282.7
989.476,3312.15
994.774,3314.05
1000.07,3359.15
1005.36,3399.15
1010.65,3378.15
1015.93,3420.65
1021.22,3423.95
1026.49,3448.45
1031.77,3470.2
1037.04,3469.05
1042.31,3448.15
1047.57,3450.2
1052.83,3392.35
1058.09,3375.95
1063.35,3411.15
1068.6,3432.6
1073.85,3426.1
1079.09,3484.95
1084.33,3572.8
1089.57,3684.95
1094.81,3783.0
1100.04,3852.0
1105.27,3985.7
1110.49,4113.55
1115.71,4192.1
1120.93,4180.4
1126.15,3999.25
1131.36,3858.0
1136.57,3701.5
1141.77,3667.9
1146.98,3565.45
1152.18,3540.05
1157.37,3535.8
1162.56,3651.75
1167.75,3706.75
1172.94,3955.75
1178.12,3987.45
1183.3,3834.0
1188.48,3699.0
1193.65,3627.4
1198.82,3620.7
1203.99,3613.65
1209.15,3655.35
1214.31,3675.5
1219.46,3682.05
1224.62,3701.95
1229.77,3730.05
1234.92,3726.05
1240.06,3891.95
1245.2,3863.65
1250.34,3967.3
1255.47,4029.0
1260.6,4233.3
1265.73,4555.6
1270.85,4658.0
1275.97,4963.55
1281.09,5265.35
1286.21,5508.95
1291.32,5489.0
1296.43,5177.5
1301.53,4853.6
1306.63,4682.55
1311.73,4491.0
1316.83,4283.7
1321.92,4175.15
1327.01,4080.7
1332.1,3980.7
1337.18,3925.75
1342.26,3940.35
1347.34,3927.05
1352.41,3940.55
1357.48,3941.8
1362.55,4019.95
1367.61,4050.0
1372.67,4145.25
1377.73,4099.2
1382.78,3974.9
1387.84,3998.45
1392.88,4052.0
1397.93,4116.35
1402.97,4192.05
1408.01,4226.4
1413.05,4276.7
1418.08,4160.3
1423.11,4169.25
1428.14,4112.1
1433.16,4157.65
1438.18,4210.4
1443.2,4333.6
1448.21,4352.5
1453.22,4356.15
1458.23,4263.7
1463.23,4261.85
1468.23,4200.6
1473.23,4173.05
1478.23,4056.75
1483.22,4163.45
1488.21,4126.15
1493.2,4084.2
1498.18,4125.6
1503.16,4143.6
1508.14,4122.5
1513.11,4092.55
1518.08,4151.3
1523.05,4153.7
1528.01,4132.7
1532.97,4201.5
1537.93,4204.65
1542.89,4180.85
1547.84,4192.75
1552.79,4190.75
1557.73,4255.55
1562.68,4273.45
1567.62,4320.75
1572.56,4352.35
1577.49,4355.5
1582.42,4367.35
1587.35,4489.65
1592.27,4584.6
1597.19,4929.6
1602.11,5797.45
1607.03,7645.35
1611.94,9926.15
1616.85,9662.05
1621.76,6834.45
1626.66,5035.55
1631.56,4551.7
1636.46,4448.45
1641.36,4422.05
1646.25,4418.7
1651.14,4338.9
1656.02,4418.3
1660.9,4378.35
1665.78,4367.65
1670.66,4383.25
1675.54,4446.4
1680.41,4465.85
1685.27,4494.0
1690.14,4501.2
1695.0,4516.8
1699.86,4619.7
1704.71,4848.45
1709.57,5460.0
1714.42,6245.7
1719.26,7414.8
1724.11,7873.9
1728.95,7785.25
1733.79,7142.4
1738.62,6434.7
1743.46,5777.65
1748.28,5147.6
1753.11,4782.35
1757.93,4686.65
1762.75,4559.5
1767.57,4483.3
1772.39,4501.3
1777.2,4548.6
1782.01,4465.3
1786.81,4516.05
1791.62,4441.7
1796.41,4495.6
1801.21,4502.55
1806.01,4436.8
1810.8,4467.4
1815.59,4570.4
1820.37,4451.75
1825.15,4363.0
1829.93,4371.4
1834.71,4452.25
1839.48,4484.25
1844.25,4429.4
1849.02,4466.0
1853.79,4393.05
1858.55,4436.05
1863.31,4467.9
1868.06,4440.15
1872.82,4490.7
1877.57,4483.2
1882.31,4485.5
1887.06,4477.7
1891.8,4508.75
1896.54,4479.95
1901.28,4509.65
1906.01,4522.2
1910.74,4479.7
1915.47,4486.1
1920.19,4492.9
1924.91,4468.8
1929.63,4488.2
1934.35,4545.45
1939.06,4460.5
1943.77,4517.6
1948.48,4535.05
1953.19,4506.2
1957.89,4444.45
1962.59,4479.3
1967.28,4530.55
1971.98,4535.7
1976.67,4535.0
1981.35,4463.05
1986.04,4504.9
1990.72,4542.65
1995.4,4503.35
2000.08,4542.1
2004.75,4582.35
2009.42,4586.3
2014.09,4614.2
2018.75,4555.1
2023.42,4598.3
2028.08,4611.3
2032.73,4587.0
2037.39,4542.2
2042.04,4551.55
2046.69,4591.05
2051.33,4547.15
2055.97,4536.3
2060.61,4612.0
2065.25,4555.05
2069.88,4591.55
2074.52,4624.05
2079.15,4574.15
2083.77,4614.8
2088.39,4615.05
2093.01,4580.85
2097.63,4601.2
2102.25,4613.35
2106.86,4633.85
2111.47,4675.85
2116.08,4611.05
2120.68,4694.05
2125.28,4643.85
2129.88,4633.8
2134.47,4609.85
2139.07,4641.15
2143.66,4662.15
2148.24,4681.6
2152.83,4577.1
2157.41,4654.5
2161.99,4717.65
2166.57,4622.0
2171.14,4630.5
2175.71,4547.45
2180.28,4715.35
2184.84,4660.4
2189.41,4720.6
2193.97,4681.95
2198.52,4665.5
2203.08,4693.95
2207.63,4734.85
2212.18,4657.2
2216.73,4711.25
2221.27,4743.35
2225.81,4683.55
2230.35,4630.6
2234.89,4665.7
2239.42,4740.35
2243.95,4703.55
2248.48,4714.05
2253.0,4709.75
2257.52,4727.25
2262.04,4706.6
2266.56,4643.85
2271.07,4688.0
2275.58,4727.35
2280.09,4758.1
2284.6,4746.95
2289.1,4700.4
2293.6,4704.65
2298.1,4789.95
2302.6,4700.1
2307.09,4674.4
2311.58,4826.4
2316.07,4789.2
2320.55,4745.7
2325.03,4773.0
2329.51,4721.85
2333.99,4743.8
2338.46,4798.95
2342.93,4775.7
2347.4,4783.65
2351.87,4660.0
2356.33,4791.0
2360.79,4831.25
2365.25,4806.05
2369.71,4788.6
2374.16,4731.0
2378.61,4770.35
2383.06,4745.7
2387.5,4800.3
2391.94,4763.3
2396.38,4776.25
2400.82,4831.65
2405.26,4872.7
2409.69,4840.6
2414.12,4798.2
2418.54,4786.9
2422.97,4801.45
2427.39,4826.5
2431.81,4895.6
2436.22,4826.45
2440.64,4759.3
2445.05,4841.65
2449.46,4803.85
2453.86,4800.85
2458.27,4912.05
2462.67,4850.45
2467.06,4822.35
2471.46,4830.55
2475.85,4890.8
2480.24,4832.1
2484.63,4854.15
2489.02,4784.05
2493.4,4873.0
2497.78,4870.25
2502.16,4859.5
2506.53,4831.4
2510.9,4957.7
2515.27,4946.15
2519.64,4867.1
2524.0,4873.55
2528.37,4913.3
2532.73,4916.85
2537.08,4877.35
2541.44,4941.2
2545.79,4898.65
2550.14,4878.5
2554.48,4875.55
2558.83,5018.35
2563.17,4926.7
2567.51,4928.35
2571.85,4933.8
2576.18,4890.15
2580.51,4981.25
2584.84,4961.8
2589.17,4948.0
2593.49,4922.6
2597.81,5007.65
2602.13,4940.8
2606.45,5001.7
2610.76,4993.7
2615.07,5131.2
2619.38,5045.05
2623.69,5071.25
2627.99,5009.0
2632.29,5059.2
2636.59,5030.5
2640.89,4963.05
2645.18,5060.35
2649.47,5006.4
2653.76,5043.55
2658.05,5076.25
2662.33,4986.55
2666.61,4961.6
2670.89,5100.05
2675.17,4996.9
2679.44,4966.75
2683.71,4866.85
2687.98,5118.5
2692.25,5107.65
2696.51,5087.65
2700.77,5036.05
2705.03,5016.0
2709.29,5007.95
2713.54,5064.95
2717.79,5049.05
2722.04,5048.3
2726.29,5143.5
2730.53,4987.25
2734.77,5051.8
2739.01,5155.65
2743.25,5057.2
2747.48,5133.2
2751.71,5014.85
2755.94,5164.6
2760.17,5250.95
2764.39,5165.65
2768.61,5010.75
2772.83,5084.5
2777.05,5186.9
2781.27,5135.95
2785.48,5211.3
2789.69,5213.4
2793.89,5213.2
2798.1,5207.95
2802.3,5164.6
2806.5,5259.35
2810.7,5125.15
2814.89,5161.75
2819.09,5231.4
2823.28,5191.7
2827.46,5210.75
2831.65,5244.5
2835.83,5147.0
2840.01,5209.15
2844.19,5189.6
2848.37,5195.95
2852.54,5244.35
2856.71,5335.95
2860.88,5289.8
2865.05,5386.75
2869.21,5357.85
2873.37,5328.4
2877.53,5423.7
2881.69,5440.1
2885.84,5471.9
2889.99,5534.4
2894.14,5483.9
2898.29,5641.55
2902.43,5616.65
2906.58,5674.85
2910.72,5577.15
2914.85,5584.5
2918.99,5440.65
2923.12,5408.9
2927.25,5601.85
2931.38,5438.8
2935.5,5641.85
2939.63,5738.15
2943.75,5818.7
2947.87,6246.45
2951.98,6524.55
2956.1,6718.9
2960.21,6832.25
2964.32,6814.25
2968.42,6750.65
2972.53,6601.55
2976.63,6483.0
2980.73,6227.3
2984.83,6278.7
2988.92,6128.2
2993.01,6054.35
2997.1,6146.4
3001.19,5933.9
3005.28,6031.75
3009.36,6103.5
3013.44,5890.9
3017.52,5893.45
3021.6,5781.05
3025.67,5784.6
3029.74,5835.1
3033.81,5683.7
3037.88,5691.2
3041.94,5790.85
3046.01,5731.35
3050.07,5710.4
3054.12,5803.85
3058.18,5891.1
3062.23,6065.35
3066.28,6279.15
3070.33,6481.75
3074.38,6850.6
3078.42,7085.9
3082.46,7314.0
3086.5,7096.45
3090.54,6641.2
3094.57,6394.75
3098.6,6120.55
3102.63,5968.3
3106.66,5918.9
3110.69,5919.4
3114.71,5803.5
3118.73,5679.9
3122.75,5720.0
3126.77,5720.85
3130.78,5837.9
3134.79,5728.75
3138.8,5704.9
3142.81,5692.5
3146.81,5738.95
3150.82,5777.05
3154.82,5784.35
3158.81,5688.85
3162.81,5811.25
3166.8,5802.75
3170.79,5671.5
3174.78,5747.7
3178.77,5686.15
3182.75,5641.95
3186.74,5736.85
3190.72,5609.7
3194.69,5749.05
3198.67,5681.0
3202.64,5721.3
3206.61,5744.0
3210.58,5722.25
3214.55,5774.4
3218.51,5835.0
3222.47,5840.55
3226.43,5871.6
3230.39,5847.45
3234.35,5768.6
3238.3,5694.2
3242.25,5853.3
3246.2,5735.8
3250.15,5772.05
3254.09,5636.4
3258.03,5763.85
3261.97,5786.75
3265.91,5668.1
3269.84,5748.15
3273.78,5794.0
3277.71,5686.85
3281.64,5699.95
3285.56,5809.0
3289.49,5744.4
3293.41,5723.95
3297.33,5854.5
3301.25,5753.15
3305.16,5672.5
3309.07,5721.35
3312.99,5751.85
3316.89,5772.45
3320.8,5732.95
3324.7,5687.3
3328.61,5639.0
3332.51,5662.8
3336.4,5774.95
3340.3,5710.25
3344.19,5768.55
3348.08,5715.65
3351.97,5705.85
3355.86,5864.2
3359.74,5670.85
3363.63,5719.95
3367.51,5694.55
3371.39,5595.25
3375.26,5668.3
3379.13,5842.3
3383.01,5723.7
3386.88,5626.35
3390.74,5506.35
3394.61,5516.8
3398.47,5629.8
3402.33,5666.75
3406.19,5701.55
3410.05,5637.45
3413.9,5600.2
3417.75,5644.45
3421.6,5644.5
3425.45,5608.9
3429.3,5583.85
3433.14,5605.95
3436.98,5638.1
3440.82,5637.3
3444.66,5493.2
3448.49,5487.95
3452.32,5633.75
3456.15,5730.1
3459.98,5581.35
3463.81,5541.25
3467.63,5474.85
3471.46,5552.9
3475.28,5536.7
3479.09,5467.8
3482.91,5558.75
3486.72,5461.2
3490.53,5444.35
3494.34,5457.45
3498.15,5516.45
3501.96,5537.8
3505.76,5363.05
3509.56,5436.2
3513.36,5411.85
3517.15,5385.55
3520.95,5191.95
3524.74,5366.65
3528.53,5375.35
3532.32,5416.45
3536.11,5445.35
3539.89,5414.7
3543.67,5346.5
3547.45,5341.15
3551.23,5298.35
3555.0,5358.4
3558.78,5382.05
3562.55,5297.35
3566.32,5216.05
3570.09,5281.95
3573.85,5262.45
3577.61,5179.9
3581.37,5308.2
3585.13,5224.3
3588.89,5283.0
3592.64,5179.15
3596.4,5129.7
3600.15,5124.35
3603.9,5203.05
3607.64,5227.6
3611.39,5227.15
3615.13,5116.25
3618.87,5010.0
3622.61,4986.2
3626.34,5075.0
3630.08,5057.7
3633.81,5010.15
3637.54,5082.75
3641.27,4986.95
3644.99,5045.7
3648.72,5070.3
3652.44,4997.55
3656.16,4994.95
3659.87,5089.1
3663.59,4991.4
3665.45,4952.7