File: spectra/VLFR_09-PET_bio_Raman_47ca3adc.csv
nm,Intensity
528.626,1872.7
528.795,1869.95
528.963,1871.9
529.132,1870.85
529.3,1870.45
529.469,1871.45
529.637,1869.7
529.806,1869.85
529.974,1870.8
530.143,1871.7
530.311,1873.5
530.48,1874.45
530.648,1873.2
530.816,1873.7
530.985,1873.55
531.153,1874.85
531.322,1878.35
531.49,1885.35
531.658,1925.75
531.827,2600.15
531.995,5223.9
532.164,4749.45
532.332,2329.8
532.5,1882.95
532.669,1877.35
532.837,1878.5
533.006,1883.05
533.174,1886.55
533.342,1907.95
533.511,2102.05
533.679,3373.65
533.847,6119.6
534.016,8126.45
534.184,8391.6
534.352,8080.25
534.521,7609.65
534.689,7616.55
534.857,7299.15
535.025,7144.5
535.194,6836.6
535.362,6653.8
535.53,6653.45
535.699,6390.3
535.867,6073.5
536.035,5860.35
536.203,5748.65
536.372,5707.7
536.54,5692.0
536.708,5624.2
536.876,5626.3
537.044,5559.8
537.213,5714.65
537.381,5567.85
537.549,5534.15
537.717,5571.25
537.885,5602.9
538.054,5541.9
538.222,5578.25
538.39,5527.9
538.558,5617.8
538.726,5559.05
538.894,5706.35
539.063,5693.5
539.231,5816.0
539.399,5880.85
539.567,5928.1
539.735,5952.9
539.903,5909.6
540.071,6110.75
540.239,6027.05
540.408,5900.25
540.576,5987.35
540.744,6036.85
540.912,5893.75
541.08,5908.7
541.248,5930.8
541.416,5833.65
541.584,5964.8
541.752,5932.7
541.92,5896.85
542.088,5960.4
542.256,6092.4
542.424,6075.95
542.592,6168.4
542.76,6160.35
542.928,6132.05
543.096,6148.9
543.264,6215.6
543.432,6219.55
543.6,6278.05
543.768,6272.9
543.936,6298.85
544.104,6344.15
544.272,6249.05
544.44,6300.35
544.608,6312.45
544.776,6344.65
544.944,6397.1
545.112,6503.3
545.28,6479.45
545.448,6508.65
545.616,6563.95
545.784,6577.6
545.951,6677.35
546.119,6507.8
546.287,6584.05
546.455,6604.2
546.623,6710.85
546.791,6728.05
546.959,6721.1
547.127,6705.6
547.294,6725.35
547.462,6845.5
547.63,6880.35
547.798,6869.15
547.966,6923.45
548.134,6978.75
548.301,6992.95
548.469,7070.5
548.637,7060.2
548.805,7052.6
548.972,7173.55
549.14,7156.9
549.308,7049.15
549.476,7053.9
549.644,7088.2
549.811,7083.65
549.979,7213.3
550.147,7205.8
550.315,7411.5
550.482,8024.8
550.65,8772.55
550.818,8119.1
550.985,7463.0
551.153,7427.7
551.321,7490.2
551.488,7370.9
551.656,7490.45
551.824,7559.05
551.991,7572.9
552.159,7478.6
552.327,7598.9
552.494,7702.85
552.662,7905.9
552.83,7965.05
552.997,7829.3
553.165,7714.4
553.333,7595.65
553.5,7631.15
553.668,7821.15
553.835,7748.15
554.003,7717.75
554.171,7779.45
554.338,7814.1
554.506,7930.15
554.673,7868.25
554.841,8139.15
555.008,7938.55
555.176,8099.5
555.343,8301.7
555.511,8291.55
555.679,8394.65
555.846,8364.25
556.014,8493.95
556.181,8488.65
556.349,8524.0
556.516,8552.8
556.684,8410.65
556.851,8668.7
557.018,8898.3
557.186,9214.3
557.353,9879.3
557.521,10973.0
557.688,11226.2
557.856,9989.25
558.023,9090.3
558.191,9029.65
558.358,8898.45
558.525,8857.25
558.693,8720.9
558.86,8872.1
559.028,8708.35
559.195,8786.6
559.362,8726.2
559.53,8528.8
559.697,8634.9
559.864,8640.65
560.032,8884.8
560.199,8674.55
560.366,8798.35
560.534,8733.85
560.701,8984.5
560.868,9069.0
561.036,8921.9
561.203,9087.7
561.37,9186.45
561.538,9388.65
561.705,9494.45
561.872,9625.95
562.039,9815.85
562.207,9786.7
562.374,9537.7
562.541,9545.5
562.708,9506.0
562.876,9341.4
563.043,9534.65
563.21,9331.75
563.377,9403.4
563.545,9379.45
563.712,9580.6
563.879,9330.15
564.046,9540.8
564.213,9719.7
564.38,9922.9
564.548,10019.9
564.715,10463.3
564.882,10873.0
565.049,11301.2
565.216,11288.7
565.383,10831.0
565.551,10941.6
565.718,11159.2
565.885,11130.3
566.052,10715.0
566.219,10476.6
566.386,10343.8
566.553,9995.8
566.72,10088.0
566.887,10091.5
567.054,9953.0
567.221,10067.8
567.388,10166.4
567.555,10577.9
567.722,10786.4
567.889,10880.3
568.057,10680.3
568.224,10451.5
568.391,10227.7
568.558,10404.8
568.725,10343.5
568.892,10283.8
569.058,10341.7
569.225,10369.3
569.392,10457.3
569.559,10541.7
569.726,10559.3
569.893,10666.1
570.06,10604.5
570.227,10909.6
570.394,11114.3
570.561,11375.2
570.728,11864.3
570.895,12734.8
571.062,13684.3
571.229,14199.8
571.395,14616.5
571.562,13791.0
571.729,13168.0
571.896,12561.3
572.063,12150.2
572.23,11610.3
572.397,11305.2
572.563,11431.0
572.73,11023.3
572.897,11069.3
573.064,11142.1
573.231,11004.6
573.397,10907.6
573.564,11052.0
573.731,10956.5
573.898,10998.2
574.064,11122.2
574.231,11040.8
574.398,11117.8
574.565,11097.4
574.731,11104.9
574.898,11255.3
575.065,11439.3
575.232,11495.5
575.398,11905.7
575.565,12027.0
575.732,11336.7
575.898,11497.9
576.065,11542.7
576.232,11526.5
576.398,11459.2
576.565,11847.5
576.732,11681.6
576.898,11783.9
577.065,11877.6
577.232,11616.7
577.398,11586.4
577.565,11558.3
577.731,11271.5
577.898,11379.1
578.065,11268.2
578.231,11616.4
578.398,11531.0
578.564,11230.0
578.731,11388.3
578.897,11327.1
579.064,11586.5
579.23,11512.0
579.397,11475.8
579.563,11851.0
579.73,11385.2
579.896,11616.7
580.063,11704.6
580.229,11741.5
580.396,11701.0
580.562,11938.5
580.729,11979.5
580.895,12235.5
581.062,12245.3
581.228,12253.3
581.395,12346.2
581.561,13184.7
581.728,15036.0
581.894,18907.5
582.06,24304.1
582.227,24637.1
582.393,18566.3
582.56,13992.2
582.726,12609.5
582.892,12301.2
583.059,12122.5
583.225,12292.5
583.391,12120.3
583.558,12136.5
583.724,12067.6
583.89,11894.0
584.057,12101.6
584.223,12270.8
584.389,12141.7
584.556,12283.3
584.722,12297.3
584.888,12218.8
585.054,12208.7
585.221,12859.3
585.387,13180.0
585.553,14704.2
585.719,16688.6
585.886,18234.4
586.052,19113.8
586.218,17938.4
586.384,16836.6
586.55,15044.0
586.717,13646.3
586.883,12893.3
587.049,12531.2
587.215,12411.8
587.381,12587.2
587.548,12547.2
587.714,12429.7
587.88,12499.8
588.046,12365.5
588.212,12463.6
588.378,12316.2
588.544,12182.0
588.71,12682.3
588.876,12275.2
589.043,12179.8
589.209,12564.0
589.375,12320.0
589.541,12182.1
589.707,12495.6
589.873,12318.4
590.039,12322.5
590.205,12172.0
590.371,12382.8
590.537,12515.9
590.703,12481.7
590.869,12354.2
591.035,12255.0
591.201,12296.5
591.367,12484.0
591.533,12535.2
591.699,12493.4
591.865,12585.8
592.031,12578.0
592.197,12483.1
592.363,12546.2
592.529,12668.8
592.694,12555.3
592.86,12759.9
593.026,12418.0
593.192,12703.3
593.358,12714.0
593.524,12548.3
593.69,12558.8
593.856,12333.4
594.021,12214.3
594.187,12715.7
594.353,12612.2
594.519,12667.8
594.685,12600.8
594.851,12727.4
595.016,12773.2
595.182,12688.3
595.348,12603.3
595.514,13002.5
595.68,12971.7
595.845,13061.2
596.011,12819.3
596.177,13061.7
596.342,12730.8
596.508,12991.8
596.674,12877.5
596.84,12896.1
597.005,12977.2
597.171,12945.5
597.337,13013.7
597.502,12949.8
597.668,13088.2
597.834,13000.7
597.999,13006.2
598.165,12756.3
598.331,13096.8
598.496,13061.9
598.662,13156.2
598.828,12941.3
598.993,13130.5
599.159,13092.3
599.324,13307.0
599.49,13154.3
599.656,13174.4
599.821,13180.2
599.987,13312.0
600.152,13415.9
600.318,13179.2
600.483,13161.5
600.649,13159.1
600.814,13323.8
600.98,13521.8
601.145,13248.3
601.311,13353.0
601.476,13637.0
601.642,13484.2
601.807,13653.6
601.973,13260.4
602.138,13250.3
602.304,13163.3
602.469,13458.3
602.635,13561.3
602.8,13736.3
602.965,13556.8
603.131,13382.0
603.296,13739.0
603.462,13730.7
603.627,13645.9
603.792,13915.5
603.958,13583.8
604.123,13763.0
604.288,13551.3
604.454,13549.3
604.619,13993.4
604.784,13484.5
604.95,13660.0
605.115,13718.3
605.28,13810.0
605.446,13797.0
605.611,13772.2
605.776,13598.5
605.941,14173.4
606.107,13991.6
606.272,13858.6
606.437,14047.9
606.602,14063.2
606.767,13767.3
606.933,14306.6
607.098,13882.0
607.263,14165.0
607.428,14153.3
607.593,14078.0
607.759,14285.1
607.924,14084.8
608.089,14316.8
608.254,14153.2
608.419,14043.2
608.584,14377.8
608.749,14399.6
608.915,14400.3
609.08,14141.4
609.245,14411.0
609.41,14397.3
609.575,14395.2
609.74,14464.0
609.905,14932.0
610.07,14514.1
610.235,14284.9
610.4,14707.0
610.565,14685.0
610.73,14599.0
610.895,14756.5
611.06,14744.3
611.225,14991.2
611.39,14814.8
611.555,14659.0
611.72,14935.0
611.885,14782.1
612.05,14934.0
612.215,14801.6
612.38,15021.5
612.545,15116.8
612.71,15190.8
612.875,15110.1
613.04,15019.5
613.204,15217.5
613.369,14907.5
613.534,15201.5
613.699,15213.8
613.864,15173.5
614.029,15276.6
614.194,15639.1
614.358,15534.7
614.523,15489.7
614.688,15628.5
614.853,15586.3
615.018,15468.3
615.182,15398.0
615.347,15620.7
615.512,15740.3
615.677,15805.7
615.841,15660.5
616.006,16068.5
616.171,15953.5
616.336,15753.2
616.5,15851.5
616.665,16333.5
616.83,15851.0
616.994,15947.0
617.159,16221.8
617.324,16030.8
617.489,16184.0
617.653,16135.5
617.818,16391.3
617.982,16414.2
618.147,16461.1
618.312,16347.8
618.476,16444.3
618.641,16450.2
618.805,16693.3
618.97,16815.9
619.135,16525.6
619.299,16664.9
619.464,16342.7
619.628,16759.4
619.793,17392.2
619.957,16827.8
620.122,16517.9
620.286,16521.5
620.451,17308.4
620.615,17117.0
620.78,17141.3
620.944,16526.2
621.109,16988.9
621.273,17429.6
621.438,16975.7
621.602,17295.5
621.767,17460.7
621.931,17160.1
622.095,16990.8
622.26,17236.5
622.424,17088.0
622.589,17395.6
622.753,17456.8
622.917,17764.8
623.082,17767.9
623.246,17668.2
623.41,17337.8
623.575,17579.4
623.739,17624.1
623.903,17760.9
624.068,17986.4
624.232,17859.3
624.396,17845.9
624.561,17765.0
624.725,17996.6
624.889,18312.6
625.053,17928.3
625.218,18212.6
625.382,18063.3
625.546,18369.0
625.71,17593.9
625.875,18495.8
626.039,18220.3
626.203,17804.3
626.367,18130.2
626.531,18400.4
626.695,18182.2
626.86,18284.4
627.024,18071.4
627.188,18383.6
627.352,18755.3
627.516,18048.8
627.68,18495.3
627.844,18972.3
628.008,18413.1
628.172,18823.8
628.337,18809.0
628.501,18327.8
628.665,18829.3
628.829,18922.7
628.993,19110.1
629.157,19447.9
629.321,19452.7
629.485,19258.2
629.649,19052.7
629.813,19348.4
629.977,19767.2
630.141,19253.1
630.305,18847.5
630.469,19564.7
630.633,19130.3
630.797,19476.8
630.96,19174.9
631.124,20009.3
631.288,19549.9
631.452,19671.3
631.616,20610.6
631.78,20282.5
631.944,20811.6
632.108,20378.7
632.272,20706.4
632.435,19959.8
632.599,19771.5
632.763,20396.6
632.927,19969.2
633.091,20292.3
633.254,20599.3
633.418,20120.6
633.582,20414.8
633.746,20019.2
633.91,20058.3
634.073,20182.9
634.237,20080.9
634.401,19673.3
634.564,20105.8
634.728,20230.2
634.892,20362.6
635.056,19901.2
635.219,19748.6
635.383,20046.4
635.547,20233.7
635.71,20189.1
635.874,20345.1
636.038,21049.6
636.201,21090.1
636.365,21591.5
636.528,22283.4
636.692,21896.4
636.856,20899.5
637.019,20943.2
637.183,20496.1
637.346,20538.1
637.51,20643.7
637.673,20367.6
637.837,20228.8
638.0,20318.0
638.164,20032.3
638.327,20327.0
638.491,20450.1
638.654,20177.7
638.818,19791.6
638.981,20822.8
639.145,19914.4
639.308,19463.5
639.472,20233.8
639.635,20623.3
639.799,19821.0
639.962,20034.3
640.125,20041.3
640.289,20325.4
640.452,20113.4
640.616,19801.8
640.779,19637.5
640.942,19806.1
641.106,19973.9
641.269,20098.3
641.432,20175.9
641.596,20049.8
641.759,20097.2
641.922,20152.5
642.085,19885.1
642.249,20126.4
642.412,20482.9
642.575,20519.1
642.738,20202.1
642.902,19819.3
643.065,19667.6
643.228,20386.2
643.391,19941.6
643.555,20003.8
643.718,20162.1
643.881,20138.3
644.044,20177.1
644.207,19794.3
644.37,20139.7
644.534,20226.6
644.697,19734.5
644.86,19577.4
645.023,19714.9
645.186,20124.2
645.349,20015.6
645.512,20188.2
645.675,20277.7
645.838,20162.7
646.001,20002.4
646.164,19726.9
646.327,20021.8
646.49,19448.9
646.653,20115.6
646.816,19835.6
646.979,19916.3
647.142,20024.8
647.305,19935.9
647.468,19909.9
647.631,19675.3
647.794,19606.4
647.957,19400.6
648.12,20461.8
648.283,19307.6
648.446,19177.2
648.609,19545.9
648.772,19713.0
648.935,19390.9
649.098,19575.5
649.26,19570.5
649.423,19088.8
649.586,19037.1
649.749,19147.0
649.912,20113.4
650.075,18962.7
650.237,19366.3
650.4,19368.9
650.563,18982.5
650.726,19180.2
650.888,18677.0
651.051,19085.7
651.214,19390.7
651.377,19399.2
651.539,19296.3
651.702,19293.4
651.865,18591.3
652.027,19012.3
652.19,18876.3
652.353,18758.2
652.515,18780.9
652.678,19356.3
652.841,18819.6
653.003,18461.2
653.166,18662.3
653.329,17900.4
653.491,18279.0
653.654,18313.0
653.816,18259.2
653.979,18800.4
654.142,17987.5
654.304,18245.3
654.467,18004.4
654.629,17687.3
654.792,18182.6
654.954,18071.8
655.117,18708.1
655.279,18065.3
655.442,17223.9
655.604,17823.2
655.767,18275.9
655.929,18312.3
656.091,17767.8
656.254,17843.7
656.416,17950.0
656.579,17558.3
656.741,17494.7
656.904,17450.1
657.066,18060.4
657.228,17856.6
657.391,17694.6
657.553,17358.5
657.715,17188.8
657.878,17019.7
658.04,17243.6
658.202,16572.2
658.365,16973.2
658.527,17259.9
658.689,17360.7
658.851,16591.2
659.014,16842.7
659.176,16840.8
659.338,16028.7
659.5,16305.1
659.663,16547.5
659.825,16228.7
659.987,16569.4
660.149,16323.5
660.311,16530.3
660.474,16875.9
660.636,16204.6
660.798,16363.7
660.96,16740.8
661.041,16596.4