File: spectra/VLFR_01-LDPE_bio_Raman_573ace16.csv
nm,Intensity
528.626,1863.8
528.795,1864.95
528.963,1865.0
529.132,1863.3
529.3,1864.5
529.469,1864.0
529.637,1865.25
529.806,1865.2
529.974,1863.6
530.143,1864.2
530.311,1865.8
530.48,1865.45
530.648,1865.75
530.816,1863.95
530.985,1865.2
531.153,1865.35
531.322,1868.15
531.49,1875.6
531.658,1917.1
531.827,2485.55
531.995,3740.3
532.164,4220.3
532.332,2273.45
532.5,1871.4
532.669,1866.2
532.837,1866.15
533.006,1866.45
533.174,1866.85
533.342,1866.35
533.511,1876.15
533.679,1940.2
533.847,2071.15
534.016,2165.4
534.184,2231.2
534.352,2216.15
534.521,2218.1
534.689,2221.7
534.857,2223.25
535.025,2252.05
535.194,2269.25
535.362,2264.85
535.53,2268.65
535.699,2290.05
535.867,2290.4
536.035,2286.6
536.203,2275.45
536.372,2241.05
536.54,2227.2
536.708,2215.35
536.876,2226.4
537.044,2235.15
537.213,2257.7
537.381,2266.75
537.549,2240.25
537.717,2236.75
537.885,2254.95
538.054,2250.1
538.222,2252.65
538.39,2241.55
538.558,2227.15
538.726,2209.2
538.894,2203.65
539.063,2217.15
539.231,2204.1
539.399,2210.45
539.567,2205.6
539.735,2194.55
539.903,2203.8
540.071,2213.35
540.239,2201.95
540.408,2173.1
540.576,2192.2
540.744,2208.05
540.912,2207.05
541.08,2207.2
541.248,2223.65
541.416,2230.65
541.584,2226.95
541.752,2224.7
541.92,2216.5
542.088,2211.9
542.256,2218.4
542.424,2218.0
542.592,2235.1
542.76,2226.3
542.928,2211.35
543.096,2223.0
543.264,2229.3
543.432,2225.9
543.6,2256.1
543.768,2311.4
543.936,2414.85
544.104,2523.55
544.272,2430.05
544.44,2283.8
544.608,2246.7
544.776,2250.25
544.944,2257.9
545.112,2263.45
545.28,2250.0
545.448,2232.45
545.616,2240.9
545.784,2278.25
545.951,2275.55
546.119,2303.0
546.287,2378.1
546.455,2477.15
546.623,2428.45
546.791,2328.65
546.959,2293.5
547.127,2265.55
547.294,2271.1
547.462,2252.75
547.63,2242.65
547.798,2244.85
547.966,2256.75
548.134,2254.45
548.301,2268.5
548.469,2276.8
548.637,2289.35
548.805,2279.25
548.972,2293.55
549.14,2300.65
549.308,2303.9
549.476,2304.0
549.644,2296.5
549.811,2323.45
549.979,2351.1
550.147,2375.75
550.315,2389.4
550.482,2337.5
550.65,2293.7
550.818,2296.95
550.985,2273.55
551.153,2272.0
551.321,2277.4
551.488,2292.15
551.656,2310.45
551.824,2331.65
551.991,2318.7
552.159,2293.95
552.327,2278.9
552.494,2280.55
552.662,2277.7
552.83,2261.55
552.997,2267.45
553.165,2287.45
553.333,2277.25
553.5,2267.45
553.668,2285.4
553.835,2285.05
554.003,2273.55
554.171,2285.7
554.338,2284.3
554.506,2283.6
554.673,2306.95
554.841,2296.75
555.008,2296.1
555.176,2308.85
555.343,2289.2
555.511,2286.7
555.679,2298.75
555.846,2308.45
556.014,2298.05
556.181,2299.05
556.349,2290.55
556.516,2294.05
556.684,2295.45
556.851,2299.85
557.018,2299.8
557.186,2295.4
557.353,2294.5
557.521,2296.6
557.688,2309.65
557.856,2311.8
558.023,2329.45
558.191,2330.7
558.358,2317.25
558.525,2300.65
558.693,2288.35
558.86,2292.55
559.028,2313.55
559.195,2311.2
559.362,2309.15
559.53,2317.6
559.697,2306.4
559.864,2308.35
560.032,2294.75
560.199,2303.6
560.366,2303.1
560.534,2324.75
560.701,2345.25
560.868,2339.1
561.036,2351.0
561.203,2357.35
561.37,2329.9
561.538,2347.85
561.705,2406.5
561.872,2511.85
562.039,2987.65
562.207,4013.95
562.374,4203.65
562.541,3080.4
562.708,2490.6
562.876,2409.2
563.043,2388.15
563.21,2353.9
563.377,2368.3
563.545,2360.7
563.712,2376.75
563.879,2429.45
564.046,2475.3
564.213,2431.95
564.38,2391.4
564.548,2387.75
564.715,2410.1
564.882,2392.7
565.049,2371.55
565.216,2388.75
565.383,2387.9
565.551,2397.5
565.718,2407.25
565.885,2442.25
566.052,2531.0
566.219,2612.4
566.386,2639.45
566.553,2604.9
566.72,2506.15
566.887,2425.1
567.054,2402.2
567.221,2405.5
567.388,2398.75
567.555,2380.85
567.722,2377.55
567.889,2396.05
568.057,2382.55
568.224,2373.95
568.391,2368.9
568.558,2379.25
568.725,2373.75
568.892,2374.2
569.058,2379.6
569.225,2411.9
569.392,2397.5
569.559,2412.7
569.726,2405.35
569.893,2400.75
570.06,2396.5
570.227,2411.25
570.394,2424.4
570.561,2402.1
570.728,2397.05
570.895,2407.8
571.062,2427.4
571.229,2457.25
571.395,2592.05
571.562,2644.9
571.729,2590.4
571.896,2513.7
572.063,2512.5
572.23,2491.3
572.397,2466.6
572.563,2468.75
572.73,2464.6
572.897,2468.85
573.064,2484.05
573.231,2463.65
573.397,2464.55
573.564,2484.8
573.731,2486.85
573.898,2502.3
574.064,2501.25
574.231,2482.35
574.398,2495.7
574.565,2486.85
574.731,2497.9
574.898,2502.85
575.065,2508.15
575.232,2522.9
575.398,2551.85
575.565,2599.95
575.732,2611.45
575.898,2645.15
576.065,2692.75
576.232,2757.05
576.398,2758.35
576.565,2742.95
576.732,2727.5
576.898,2745.95
577.065,2731.25
577.232,2696.95
577.398,2682.0
577.565,2681.35
577.731,2645.85
577.898,2645.35
578.065,2651.25
578.231,2655.2
578.398,2668.05
578.564,2668.05
578.731,2678.6
578.897,2720.0
579.064,2723.3
579.23,2737.35
579.397,2761.2
579.563,2763.15
579.73,2765.1
579.896,2783.55
580.063,2795.75
580.229,2804.85
580.396,2811.55
580.562,2830.9
580.729,2849.05
580.895,2850.55
581.062,2877.35
581.228,2891.4
581.395,2885.55
581.561,2886.75
581.728,2892.45
581.894,2924.6
582.06,2951.85
582.227,2964.45
582.393,2968.0
582.56,2950.9
582.726,2985.55
582.892,2988.0
583.059,3019.95
583.225,3012.6
583.391,3028.35
583.558,3053.3
583.724,3069.85
583.89,3064.65
584.057,3112.25
584.223,3131.75
584.389,3088.7
584.556,3151.8
584.722,3125.45
584.888,3177.8
585.054,3172.5
585.221,3202.5
585.387,3199.5
585.553,3204.65
585.719,3248.1
585.886,3230.15
586.052,3287.7
586.218,3291.1
586.384,3317.7
586.55,3350.85
586.717,3378.2
586.883,3375.8
587.049,3407.95
587.215,3485.55
587.381,3462.25
587.548,3468.9
587.714,3513.95
587.88,3547.8
588.046,3569.4
588.212,3635.8
588.378,3636.65
588.544,3683.8
588.71,3654.6
588.876,3611.65
589.043,3634.55
589.209,3734.55
589.375,3697.15
589.541,3777.75
589.707,3737.4
589.873,3811.8
590.039,3842.15
590.205,3896.45
590.371,3900.15
590.537,3956.7
590.703,4006.9
590.869,4027.0
591.035,4011.65
591.201,4041.2
591.367,4079.2
591.533,4141.1
591.699,4171.95
591.865,4126.35
592.031,4207.25
592.197,4230.95
592.363,4297.6
592.529,4307.85
592.694,4300.65
592.86,4333.05
593.026,4394.2
593.192,4350.0
593.358,4433.55
593.524,4472.7
593.69,4434.65
593.856,4475.7
594.021,4548.55
594.187,4510.3
594.353,4567.25
594.519,4605.45
594.685,4638.15
594.851,4717.4
595.016,4710.5
595.182,4768.1
595.348,4825.4
595.514,4889.65
595.68,4930.9
595.845,5002.15
596.011,5027.95
596.177,5084.2
596.342,5099.35
596.508,5133.8
596.674,5141.7
596.84,5252.75
597.005,5296.0
597.171,5219.6
597.337,5422.25
597.502,5327.1
597.668,5422.45
597.834,5496.15
597.999,5578.35
598.165,5519.5
598.331,5541.4
598.496,5639.1
598.662,5700.5
598.828,5736.9
598.993,5784.5
599.159,5757.0
599.324,5864.55
599.49,5796.1
599.656,5903.75
599.821,5890.55
599.987,5938.95
600.152,5934.35
600.318,5956.85
600.483,5890.9
600.649,5988.4
600.814,5982.45
600.98,5947.05
601.145,6005.0
601.311,5883.05
601.476,5983.5
601.642,5887.85
601.807,5968.7
601.973,5894.9
602.138,5895.8
602.304,5883.6
602.469,5812.3
602.635,5813.5
602.8,5824.9
602.965,5720.25
603.131,5734.85
603.296,5720.1
603.462,5642.6
603.627,5713.35
603.792,5598.05
603.958,5548.1
604.123,5488.3
604.288,5459.0
604.454,5363.45
604.619,5340.25
604.784,5363.5
604.95,5306.75
605.115,5200.65
605.28,5207.95
605.446,5181.3
605.611,5127.6
605.776,5069.7
605.941,5023.35
606.107,4992.7
606.272,5046.25
606.437,4901.55
606.602,4822.5
606.767,4865.0
606.933,4845.4
607.098,4766.05
607.263,4755.9
607.428,4779.75
607.593,4649.7
607.759,4667.3
607.924,4559.1
608.089,4571.2
608.254,4511.6
608.419,4504.7
608.584,4443.05
608.749,4494.4
608.915,4408.85
609.08,4376.15
609.245,4387.2
609.41,4382.1
609.575,4320.45
609.74,4307.3
609.905,4277.25
610.07,4244.85
610.235,4202.25
610.4,4240.6
610.565,4264.9
610.73,4182.4
610.895,4207.75
611.06,4150.35
611.225,4136.2
611.39,4178.05
611.555,4117.95
611.72,4050.65
611.885,4075.1
612.05,4065.5
612.215,4028.05
612.38,4040.85
612.545,3998.5
612.71,3980.2
612.875,3996.95
613.04,3959.05
613.204,3934.95
613.369,3956.0
613.534,3855.95
613.699,3855.95
613.864,3893.3
614.029,3897.55
614.194,3845.1
614.358,3856.65
614.523,3772.0
614.688,3825.9
614.853,3794.9
615.018,3777.85
615.182,3823.5
615.347,3720.95
615.512,3710.8
615.677,3713.4
615.841,3711.25
616.006,3683.55
616.171,3664.1
616.336,3628.9
616.5,3621.95
616.665,3640.3
616.83,3578.7
616.994,3591.1
617.159,3636.65
617.324,3600.2
617.489,3567.05
617.653,3580.75
617.818,3555.25
617.982,3541.3
618.147,3520.7
618.312,3536.15
618.476,3494.9
618.641,3561.5
618.805,3467.25
618.97,3484.35
619.135,3466.6
619.299,3502.8
619.464,3467.75
619.628,3454.7
619.793,3466.65
619.957,3453.1
620.122,3465.45
620.286,3412.45
620.451,3435.35
620.615,3470.6
620.78,3473.65
620.944,3390.15
621.109,3404.6
621.273,3361.25
621.438,3416.25
621.602,3409.65
621.767,3433.85
621.931,3408.1
622.095,3395.9
622.26,3427.0
622.424,3416.55
622.589,3381.35
622.753,3370.6
622.917,3317.75
623.082,3342.8
623.246,3310.2
623.41,3348.7
623.575,3294.85
623.739,3285.6
623.903,3286.55
624.068,3276.9
624.232,3288.3
624.396,3284.3
624.561,3260.1
624.725,3234.0
624.889,3306.3
625.053,3255.3
625.218,3262.45
625.382,3229.75
625.546,3255.15
625.71,3229.4
625.875,3246.1
626.039,3299.05
626.203,3267.65
626.367,3305.2
626.531,3365.5
626.695,3497.75
626.86,3805.4
627.024,4113.6
627.188,4295.25
627.352,4316.25
627.516,4088.6
627.68,3985.65
627.844,3866.3
628.008,3825.05
628.172,3897.65
628.337,4128.8
628.501,4451.95
628.665,4239.6
628.829,3955.45
628.993,3887.15
629.157,3883.05
629.321,3786.2
629.485,3762.35
629.649,3694.5
629.813,3611.85
629.977,3608.2
630.141,3542.9
630.305,3537.6
630.469,3569.25
630.633,3460.55
630.797,3427.55
630.96,3326.35
631.124,3280.55
631.288,3235.7
631.452,3167.15
631.616,3167.3
631.78,3121.35
631.944,3164.0
632.108,3106.25
632.272,3094.85
632.435,3127.9
632.599,3142.3
632.763,3124.6
632.927,3110.2
633.091,3100.45
633.254,3110.45
633.418,3102.85
633.582,3100.3
633.746,3097.0
633.91,3095.65
634.073,3096.2
634.237,3075.05
634.401,3107.0
634.564,3104.0
634.728,3085.95
634.892,3141.55
635.056,3109.7
635.219,3075.65
635.383,3117.55
635.547,3054.4
635.71,3089.35
635.874,3086.3
636.038,3119.1
636.201,3099.2
636.365,3118.65
636.528,3096.6
636.692,3113.0
636.856,3127.3
637.019,3115.55
637.183,3157.45
637.346,3117.6
637.51,3145.35
637.673,3149.3
637.837,3109.9
638.0,3202.4
638.164,3189.4
638.327,3149.0
638.491,3161.6
638.654,3188.7
638.818,3146.0
638.981,3177.2
639.145,3177.85
639.308,3157.2
639.472,3170.15
639.635,3182.35
639.799,3174.65
639.962,3197.0
640.125,3204.45
640.289,3228.05
640.452,3205.55
640.616,3200.15
640.779,3182.85
640.942,3192.75
641.106,3251.7
641.269,3264.8
641.432,3258.9
641.596,3264.95
641.759,3211.45
641.922,3242.35
642.085,3267.65
642.249,3268.2
642.412,3345.2
642.575,3259.65
642.738,3295.85
642.902,3298.55
643.065,3292.6
643.228,3272.5
643.391,3312.45
643.555,3301.0
643.718,3314.9
643.881,3304.85
644.044,3335.8
644.207,3343.05
644.37,3341.0
644.534,3361.1
644.697,3332.2
644.86,3330.4
645.023,3276.35
645.186,3358.7
645.349,3396.6
645.512,3402.85
645.675,3371.3
645.838,3382.6
646.001,3383.9
646.164,3378.25
646.327,3359.75
646.49,3352.55
646.653,3393.7
646.816,3413.35
646.979,3340.9
647.142,3373.05
647.305,3381.15
647.468,3393.3
647.631,3412.5
647.794,3410.85
647.957,3405.4
648.12,3391.65
648.283,3442.9
648.446,3356.65
648.609,3388.75
648.772,3420.1
648.935,3458.35
649.098,3493.85
649.26,3464.9
649.423,3520.9
649.586,3551.0
649.749,3577.35
649.912,3622.45
650.075,3551.75
650.237,3569.25
650.4,3555.25
650.563,3529.8
650.726,3486.3
650.888,3499.8
651.051,3452.2
651.214,3440.85
651.377,3409.35
651.539,3461.15
651.702,3410.9
651.865,3402.6
652.027,3441.25
652.19,3422.9
652.353,3445.2
652.515,3438.45
652.678,3427.0
652.841,3443.25
653.003,3420.05
653.166,3400.3
653.329,3395.95
653.491,3401.05
653.654,3395.6
653.816,3403.45
653.979,3400.0
654.142,3357.7
654.304,3306.65
654.467,3364.6
654.629,3307.05
654.792,3322.7
654.954,3365.3
655.117,3316.7
655.279,3346.7
655.442,3328.35
655.604,3279.05
655.767,3275.0
655.929,3294.4
656.091,3268.6
656.254,3261.3
656.416,3259.2
656.579,3226.45
656.741,3279.45
656.904,3268.2
657.066,3242.4
657.228,3228.75
657.391,3235.25
657.553,3179.85
657.715,3183.2
657.878,3182.15
658.04,3179.7
658.202,3139.6
658.365,3100.9
658.527,3141.3
658.689,3110.5
658.851,3113.3
659.014,3079.8
659.176,3067.65
659.338,3017.45
659.5,2981.15
659.663,3038.05
659.825,2979.0
659.987,3014.2
660.149,2979.9
660.311,2980.2
660.474,2960.95
660.636,2974.0
660.798,2940.85
660.96,2914.75
661.041,2917.05