File: spectra/VLFR_07-PET_nobio_Raman_508f48b3.csv
cm-1,Intensity
109.24,8004.4
113.61,7820.15
117.976,7724.8
122.339,7640.4
126.699,7502.1
131.056,7444.55
135.41,7326.5
139.761,7359.9
144.108,7304.0
148.453,7248.35
152.795,7106.85
157.133,7047.0
161.468,7099.5
165.8,7145.0
170.13,7113.65
174.456,7112.6
178.779,6947.4
183.099,6965.7
187.416,6973.85
191.729,6976.15
196.04,7023.8
200.348,7018.2
204.653,6999.45
208.954,6945.0
213.253,6915.45
217.548,6965.6
221.841,6925.55
226.13,6957.8
230.417,6991.25
234.7,6988.2
238.98,6965.25
243.258,6886.95
247.532,6884.2
251.803,6933.6
256.072,6880.25
260.337,6856.65
264.599,6905.6
268.859,6911.55
273.115,6950.9
277.368,6894.8
281.618,6841.55
285.866,6775.2
290.11,6833.35
294.351,6833.5
298.59,6810.75
302.825,6854.6
307.057,6747.8
311.287,6701.1
315.513,6725.35
319.737,6762.5
323.957,6739.55
328.175,6732.1
332.389,6751.4
336.601,6745.9
340.809,6724.2
345.015,6716.85
349.218,6613.2
353.418,6637.6
357.615,6661.4
361.808,6672.75
365.999,6632.25
370.188,6644.15
374.373,6636.5
378.555,6644.4
382.734,6585.05
386.911,6616.15
391.084,6608.6
395.255,6548.25
399.422,6542.0
403.587,6511.05
407.749,6539.8
411.908,6533.25
416.064,6577.0
420.217,6563.2
424.367,6538.55
428.514,6507.3
432.659,6419.3
436.8,6472.3
440.939,6498.9
445.075,6483.3
449.208,6407.05
453.338,6376.0
457.465,6407.5
461.589,6412.4
465.711,6358.65
469.829,6316.0
473.945,6370.3
478.058,6415.15
482.168,6350.55
486.275,6351.3
490.379,6317.85
494.481,6334.1
498.579,6290.4
502.675,6301.55
506.768,6261.4
510.858,6256.2
514.946,6262.35
519.03,6215.75
523.112,6201.45
527.191,6227.45
531.267,6232.9
535.34,6223.35
539.41,6217.6
543.478,6188.6
547.542,6216.4
551.604,6202.15
555.664,6187.3
559.72,6197.85
563.773,6135.3
567.824,6125.8
571.872,6142.65
575.917,6134.3
579.96,6060.7
583.999,6061.45
588.036,6068.8
592.07,6061.05
596.102,6062.55
600.13,6070.0
604.156,6029.15
608.179,6083.5
612.199,6045.05
616.216,6030.05
620.231,6031.95
624.243,6118.25
628.252,6186.0
632.259,6181.95
636.262,6153.25
640.263,6044.6
644.261,5950.3
648.257,5954.0
652.25,5932.5
656.24,5929.5
660.227,5949.35
664.211,5949.9
668.193,5946.85
672.172,5895.5
676.149,5865.25
680.122,5889.7
684.093,5968.8
688.062,5912.35
692.027,5872.45
695.99,5939.4
699.95,5948.2
703.907,5904.3
707.862,5916.25
711.814,5887.1
715.763,5843.1
719.71,5853.25
723.654,5875.55
727.595,5841.3
731.534,5801.05
735.47,5793.8
739.403,5804.3
743.334,5760.9
747.261,5764.45
751.187,5781.85
755.109,5777.2
759.029,5812.65
762.946,5764.7
766.861,5728.0
770.773,5718.5
774.682,5725.55
778.589,5740.5
782.493,5766.95
786.394,5774.8
790.293,5804.45
794.189,5799.1
798.082,5807.9
801.973,5819.75
805.861,5766.15
809.746,5783.2
813.629,5787.8
817.509,5747.6
821.387,5738.1
825.262,5757.15
829.134,5778.15
833.004,5734.05
836.871,5740.65
840.736,5807.8
844.598,5902.35
848.457,5962.7
852.314,5969.05
856.168,5921.6
860.019,5875.8
863.868,5792.9
867.715,5745.35
871.558,5740.95
875.4,5769.35
879.238,5731.2
883.074,5698.25
886.908,5701.25
890.738,5658.55
894.567,5590.0
898.392,5597.25
902.216,5598.95
906.036,5546.6
909.854,5557.85
913.669,5551.75
917.482,5525.5
921.293,5518.65
925.1,5515.2
928.906,5523.95
932.708,5491.6
936.508,5515.1
940.306,5507.5
944.101,5467.05
947.894,5481.1
951.684,5466.7
955.471,5461.15
959.256,5443.9
963.038,5444.05
966.818,5470.2
970.595,5428.85
974.37,5411.85
978.142,5425.3
981.912,5420.05
985.679,5445.85
989.444,5401.6
993.206,5439.0
996.966,5446.25
1000.72,5452.75
1004.48,5444.2
1008.23,5428.1
1011.98,5404.0
1015.73,5396.3
1019.47,5424.7
1023.21,5430.45
1026.95,5404.55
1030.69,5386.4
1034.43,5341.1
1038.16,5341.55
1041.89,5355.55
1045.61,5348.55
1049.34,5360.65
1053.06,5335.2
1056.78,5309.85
1060.5,5277.35
1064.21,5315.35
1067.93,5338.65
1071.64,5335.1
1075.34,5301.05
1079.05,5301.3
1082.75,5307.45
1086.45,5361.45
1090.15,5402.85
1093.85,5404.8
1097.54,5448.7
1101.23,5403.1
1104.92,5407.1
1108.6,5445.45
1112.29,5429.65
1115.97,5391.65
1119.64,5356.15
1123.32,5343.95
1126.99,5307.5
1130.67,5268.35
1134.33,5236.3
1138.0,5210.5
1141.66,5209.4
1145.33,5227.05
1148.98,5210.65
1152.64,5165.1
1156.29,5173.4
1159.95,5202.1
1163.6,5237.45
1167.24,5208.3
1170.89,5218.0
1174.53,5239.85
1178.17,5247.25
1181.81,5189.4
1185.44,5144.6
1189.07,5124.25
1192.7,5121.2
1196.33,5102.1
1199.96,5097.45
1203.58,5121.4
1207.2,5118.6
1210.82,5100.3
1214.44,5144.0
1218.05,5161.5
1221.66,5106.0
1225.27,5079.3
1228.88,5102.8
1232.48,5074.0
1236.08,5107.5
1239.68,5134.8
1243.28,5142.35
1246.87,5128.1
1250.46,5144.85
1254.05,5163.4
1257.64,5156.35
1261.23,5172.35
1264.81,5188.7
1268.39,5232.3
1271.97,5275.4
1275.55,5306.2
1279.12,5337.55
1282.69,5330.1
1286.26,5304.25
1289.83,5253.65
1293.39,5246.05
1296.95,5236.1
1300.51,5186.45
1304.07,5140.05
1307.62,5110.25
1311.18,5103.75
1314.73,5072.6
1318.28,5051.9
1321.82,5058.8
1325.37,5007.35
1328.91,4992.55
1332.45,4993.6
1335.98,5021.7
1339.52,5013.2
1343.05,4979.3
1346.58,4970.5
1350.11,4995.35
1353.63,4979.0
1357.15,4973.35
1360.67,4952.35
1364.19,4936.25
1367.71,4951.4
1371.22,4940.7
1374.73,4933.45
1378.24,4917.85
1381.75,4910.35
1385.26,4926.5
1388.76,4930.65
1392.26,4915.35
1395.76,4928.3
1399.25,4937.9
1402.74,4922.0
1406.24,4903.6
1409.72,4890.95
1413.21,4905.05
1416.7,4911.7
1420.18,4898.45
1423.66,4875.8
1427.14,4887.5
1430.61,4879.9
1434.08,4882.45
1437.56,4876.7
1441.02,4880.65
1444.49,4895.95
1447.96,4888.05
1451.42,4889.25
1454.88,4891.65
1458.33,4870.6
1461.79,4844.25
1465.24,4846.8
1468.69,4805.05
1472.14,4789.25
1475.59,4792.1
1479.03,4780.7
1482.48,4793.35
1485.92,4788.2
1489.35,4785.1
1492.79,4773.2
1496.22,4763.7
1499.65,4772.15
1503.08,4774.4
1506.51,4762.5
1509.93,4755.7
1513.36,4772.45
1516.78,4765.9
1520.19,4751.6
1523.61,4765.05
1527.02,4741.45
1530.44,4735.55
1533.84,4740.35
1537.25,4753.1
1540.66,4720.25
1544.06,4716.25
1547.46,4723.95
1550.86,4708.2
1554.25,4708.0
1557.65,4717.45
1561.04,4696.3
1564.43,4671.8
1567.82,4670.75
1571.2,4654.65
1574.59,4671.55
1577.97,4665.15
1581.35,4678.0
1584.72,4657.4
1588.1,4682.3
1591.47,4749.65
1594.84,4805.75
1598.21,4920.25
1601.58,5009.0
1604.94,5092.85
1608.3,5109.4
1611.66,5067.8
1615.02,5003.7
1618.37,4960.25
1621.73,4857.8
1625.08,4768.0
1628.43,4699.65
1631.77,4644.75
1635.12,4591.6
1638.46,4576.9
1641.8,4567.9
1645.14,4574.8
1648.48,4574.05
1651.81,4578.05
1655.14,4567.0
1658.47,4571.7
1661.8,4562.5
1665.13,4554.15
1668.45,4584.7
1671.77,4560.15
1675.09,4544.05
1678.41,4532.35
1681.73,4528.85
1685.04,4538.4
1688.35,4559.65
1691.66,4573.35
1694.97,4550.6
1698.27,4574.15
1701.57,4607.45
1704.88,4666.3
1708.17,4725.15
1711.47,4757.9
1714.77,4795.05
1718.06,4807.45
1721.35,4816.75
1724.64,4827.6
1727.92,4822.65
1731.21,4795.25
1734.49,4744.15
1737.77,4666.7
1741.05,4602.75
1744.32,4566.05
1747.6,4555.45
1750.87,4519.5
1754.14,4507.9
1757.41,4482.0
1760.67,4464.25
1763.94,4462.5
1767.2,4456.45
1770.46,4440.35
1773.72,4431.8
1776.97,4426.7
1780.23,4404.65
1783.48,4381.05
1786.73,4394.2
1789.97,4381.35
1793.22,4385.95
1796.46,4375.35
1799.7,4393.55
1802.94,4382.0
1806.18,4375.9
1809.42,4371.1
1812.65,4367.05
1815.88,4370.55
1819.11,4370.95
1822.34,4368.4
1825.56,4347.65
1828.78,4355.75
1832.01,4357.6
1835.23,4359.7
1838.44,4346.2
1841.66,4328.1
1844.87,4324.5
1848.08,4323.75
1851.29,4322.75
1854.5,4330.3
1857.7,4322.8
1860.91,4330.25
1864.11,4330.0
1867.31,4326.7
1870.5,4315.05
1873.7,4306.5
1876.89,4297.3
1880.08,4296.75
1883.27,4297.45
1886.46,4289.7
1889.65,4288.3
1892.83,4290.75
1896.01,4284.5
1899.19,4288.75
1902.37,4287.35
1905.54,4275.85
1908.72,4266.5
1911.89,4257.95
1915.06,4249.8
1918.23,4242.15
1921.39,4244.95
1924.56,4245.9
1927.72,4257.85
1930.88,4251.9
1934.04,4239.6
1937.19,4247.9
1940.35,4236.75
1943.5,4219.0
1946.65,4217.5
1949.8,4218.05
1952.94,4210.45
1956.09,4202.85
1959.23,4200.3
1962.37,4189.55
1965.51,4183.75
1968.64,4183.1
1971.78,4183.65
1974.91,4175.0
1978.04,4162.95
1981.17,4164.05
1984.3,4166.35
1987.42,4162.1
1990.55,4158.9
1993.67,4156.85
1996.79,4162.3
1999.9,4162.75
2003.02,4160.8
2006.13,4151.6
2009.25,4133.15
2012.36,4137.1
2015.46,4137.05
2018.57,4114.85
2021.67,4125.85
2024.78,4119.95
2027.88,4111.4
2030.97,4115.8
2034.07,4104.75
2037.16,4098.55
2040.26,4099.0
2043.35,4094.85
2046.44,4102.9
2049.52,4101.45
2052.61,4093.85
2055.69,4091.4
2058.77,4082.7
2061.85,4086.35
2064.93,4086.4
2068.01,4078.55
2071.08,4079.75
2074.15,4073.0
2077.22,4066.25
2080.29,4066.15
2083.36,4066.2
2086.42,4068.45
2089.48,4071.35
2092.54,4068.5
2095.6,4063.7
2098.66,4061.2
2101.72,4051.5
2104.77,4050.15
2107.82,4051.1
2110.87,4052.9
2113.92,4048.3
2116.96,4050.65
2120.01,4039.05
2123.05,4033.65
2126.09,4034.7
2129.13,4034.0
2132.16,4033.0
2135.2,4021.75
2138.23,4025.75
2141.26,4025.55
2144.29,4026.05
2147.32,4020.15
2150.35,4023.85
2153.37,4017.7
2156.39,4007.1
2159.41,4000.85
2162.43,4004.2
2165.45,4008.7
2168.46,4006.4
2171.47,4002.0
2174.48,3998.2
2177.49,3997.55
2180.5,3987.4
2183.51,3984.15
2186.51,3990.2
2189.51,3986.8
2192.51,3986.2
2195.51,3979.25
2198.51,3978.2
2201.5,3975.4
2204.49,3981.9
2207.49,3982.5
2210.47,3978.05
2213.46,3976.45
2216.45,3975.2
2219.43,3966.9
2222.41,3957.3
2225.39,3952.7
2228.37,3957.2
2231.35,3964.65
2234.32,3961.4
2237.3,3963.75
2240.27,3958.8
2243.24,3953.05
2246.21,3947.7
2249.17,3947.0
2252.14,3951.2
2255.1,3949.35
2258.06,3943.4
2261.02,3937.4
2263.97,3935.75
2266.93,3938.9
2269.88,3938.25
2272.84,3937.9
2275.79,3933.8
2278.73,3931.8
2281.68,3934.6
2284.62,3931.3
2287.57,3921.9
2290.51,3921.75
2293.45,3923.85
2296.39,3927.3
2299.32,3923.0
2302.26,3923.2
2305.19,3916.3
2308.12,3914.75
2311.05,3910.7
2313.97,3914.05
2316.9,3913.4
2319.82,3910.85
2322.75,3909.1
2325.67,3915.05
2328.58,3907.5
2331.5,3912.35
2334.42,3910.2
2337.33,3905.3
2340.24,3904.25
2343.15,3905.55
2346.06,3902.5
2348.96,3900.65
2351.87,3896.45
2354.77,3891.6
2357.67,3883.0
2360.57,3885.55
2363.47,3888.75
2366.37,3889.8
2369.26,3890.95
2372.15,3891.5
2375.04,3893.7
2377.93,3883.9
2380.82,3882.65
2383.7,3883.2
2386.59,3882.6
2389.47,3886.05
2392.35,3884.35
2395.23,3882.3
2398.11,3883.8
2400.98,3878.25
2403.86,3874.8
2406.73,3874.65
2409.6,3876.25
2412.47,3874.65
2415.33,3878.65
2418.2,3873.55
2421.06,3874.6
2423.92,3875.65
2426.78,3869.25
2429.64,3865.7
2432.5,3863.3
2435.35,3861.0
2438.21,3861.7
2441.06,3859.2
2443.91,3862.9
2446.76,3859.95
2449.6,3860.75
2452.45,3863.25
2455.29,3855.1
2458.13,3855.35
2460.97,3859.8
2463.81,3856.8
2466.65,3858.8
2469.48,3850.7
2472.32,3849.95
2475.15,3851.05
2477.98,3847.5
2480.81,3842.8
2483.63,3847.0
2486.46,3851.0
2489.28,3852.15
2492.1,3850.45
2494.92,3845.25
2497.74,3840.4
2500.56,3839.7
2503.37,3840.45
2506.18,3841.6
2509.0,3840.8
2511.81,3836.65
2514.61,3837.1
2517.42,3832.8
2520.23,3838.15
2523.03,3832.65
2525.83,3830.8
2528.63,3833.2
2531.43,3835.35
2534.23,3830.9
2537.02,3833.6
2539.81,3832.75
2542.61,3829.65
2545.4,3829.15
2548.19,3829.5
2550.97,3826.75
2553.76,3825.7
2556.54,3826.35
2559.32,3827.55
2562.1,3820.65
2564.88,3825.7
2567.66,3825.6
2570.44,3823.85
2573.21,3821.55
2575.98,3823.2
2578.75,3819.55
2581.52,3825.7
2584.29,3820.05
2587.06,3818.8
2589.82,3818.35
2592.58,3815.75
2595.34,3815.3
2598.1,3815.45
2600.86,3814.35
2603.62,3816.4
2606.37,3816.7
2609.13,3812.85
2611.88,3810.1
2614.63,3810.25
2617.38,3815.4
2620.12,3812.6
2622.87,3810.9
2625.61,3812.25
2628.35,3815.25
2631.09,3809.6
2633.83,3808.5
2636.57,3805.8
2639.3,3802.65
2642.04,3805.5
2644.77,3802.3
2647.5,3803.0
2650.23,3804.8
2652.96,3800.3
2655.68,3802.25
2658.41,3799.2
2661.13,3802.95
2663.85,3800.2
2666.57,3801.7
2669.29,3799.5
2672.01,3798.1
2674.72,3797.75
2677.44,3797.85
2680.15,3796.7
2682.86,3798.85
2685.57,3798.15
2688.27,3796.6
2690.98,3792.35
2693.68,3791.25
2696.39,3792.05
2699.09,3793.9
2701.79,3791.1
2704.48,3789.0
2707.18,3789.65
2709.87,3790.1
2712.57,3789.8
2715.26,3792.75
2717.95,3787.8
2720.64,3787.15
2723.33,3786.15
2726.01,3788.5
2728.69,3786.0
2731.38,3786.45
2734.06,3785.7
2736.74,3784.5
2739.41,3784.25
2742.09,3782.25
2744.77,3783.15
2747.44,3781.65
2750.11,3782.9
2752.78,3781.0
2755.45,3781.95
2758.12,3779.35
2760.78,3778.05
2763.44,3781.0
2766.11,3780.7
2768.77,3779.05
2771.43,3780.75
2774.08,3779.2
2776.74,3779.05
2779.4,3778.15
2782.05,3778.3
2784.7,3778.65
2787.35,3774.55
2790.0,3773.1
2792.65,3773.55
2795.29,3773.75
2797.94,3774.55
2800.58,3773.25
2803.22,3776.7
2805.86,3772.4
2808.5,3772.65
2811.13,3771.8
2813.77,3771.1
2816.4,3772.55
2819.04,3769.65
2821.67,3772.35
2824.3,3768.2
2826.92,3771.05
2829.55,3770.95
2832.17,3767.95
2834.8,3769.45
2837.42,3769.05
2840.04,3764.85
2842.66,3767.7
2845.27,3767.25
2847.89,3766.3
2850.5,3767.95
2853.12,3766.65
2855.73,3766.95
2858.34,3766.65
2860.95,3766.45
2863.55,3764.45
2866.16,3762.0
2868.76,3764.7
2871.36,3764.1
2873.96,3761.3
2876.56,3763.8
2879.16,3765.15
2881.76,3762.45
2884.35,3764.45
2886.95,3764.85
2889.54,3766.2
2892.13,3763.55
2894.72,3764.35
2897.3,3761.55
2899.89,3763.05
2902.48,3761.5
2905.06,3764.05
2907.64,3763.85
2910.22,3761.95
2912.8,3761.95
2915.38,3759.65
2917.95,3761.45
2920.53,3760.25
2923.1,3760.25
2925.67,3758.65
2928.24,3760.8
2930.81,3758.5
2933.38,3758.7
2935.94,3760.2
2938.51,3760.95
2941.07,3761.2
2943.63,3761.8
2946.19,3763.6
2948.75,3763.25
2951.31,3764.55
2953.86,3764.3
2956.42,3764.7
2958.97,3765.5
2961.52,3763.45
2964.07,3762.85
2966.62,3765.5
2969.17,3760.45
2971.71,3760.55
2974.26,3760.6
2976.8,3761.3
2979.34,3759.5
2981.88,3757.95
2984.42,3756.95
2986.95,3756.1
2989.49,3756.4
2992.02,3753.95
2994.56,3754.0
2997.09,3753.45
2999.62,3754.7
3002.15,3752.75
3004.67,3753.35
3007.2,3753.75
3009.72,3752.3
3012.25,3752.15
3014.77,3752.1
3017.29,3749.15
3019.81,3749.7
3022.32,3748.95
3024.84,3749.95
3027.35,3749.65
3029.87,3749.65
3032.38,3747.7
3034.89,3748.35
3037.4,3749.85
3039.9,3747.85
3042.41,3749.0
3044.91,3748.35
3047.42,3746.55
3049.92,3748.7
3052.42,3750.3
3054.92,3748.4
3057.41,3748.3
3059.91,3749.2
3062.41,3749.25
3064.9,3750.1
3067.39,3748.45
3069.88,3749.55
3072.37,3752.4
3074.86,3750.8
3077.34,3750.1
3079.83,3750.45
3082.31,3752.45
3084.8,3749.55
3087.28,3750.65
3089.76,3750.15
3092.23,3750.0
3094.71,3746.65
3097.19,3745.9
3099.66,3746.8
3102.13,3744.0
3104.6,3744.45
3107.07,3744.1
3109.54,3744.25
3112.01,3743.35
3114.47,3744.7
3116.94,3743.55
3119.4,3742.25
3121.86,3742.3
3124.32,3742.5
3126.78,3743.35
3129.24,3741.65
3131.7,3741.1
3134.15,3741.25
3136.6,3741.8
3139.06,3741.65
3141.51,3741.05
3143.96,3741.65
3146.4,3741.45
3148.85,3740.9
3151.3,3740.95
3153.74,3740.95
3156.18,3741.45
3158.62,3740.55
3161.06,3738.95
3163.5,3740.8
3165.94,3741.2
3168.38,3738.85
3170.81,3741.85
3173.24,3737.95
3175.68,3738.45
3178.11,3737.95
3180.53,3739.1
3182.96,3739.6
3185.39,3739.5
3187.81,3739.85
3190.24,3741.7
3192.66,3740.65
3195.08,3739.35
3197.5,3738.8
3199.92,3738.75
3202.34,3739.25
3204.75,3738.0
3207.17,3738.45
3209.58,3737.8
3211.99,3736.95
3214.4,3738.75
3216.81,3739.65
3219.22,3738.55
3221.63,3738.45
3224.03,3738.05
3226.44,3738.95
3228.84,3738.75
3231.24,3738.05
3233.64,3737.05
3236.04,3738.25
3238.43,3738.1
3240.83,3738.55
3243.23,3737.35
3245.62,3737.4
3248.01,3738.5
3250.4,3736.9
3252.79,3738.15
3255.18,3737.5
3257.57,3738.9
3259.95,3737.55
3262.34,3738.05
3264.72,3738.65
3267.1,3738.65
3269.48,3738.8
3271.86,3736.9
3274.24,3738.45
3276.61,3738.05
3278.99,3737.65
3281.36,3737.35
3283.73,3736.75
3286.11,3736.55
3288.48,3737.55
3290.84,3736.6
3293.21,3736.85
3295.58,3737.7
3297.94,3735.95
3300.31,3736.85
3302.67,3738.5
3305.03,3737.25
3307.39,3735.7
3309.75,3735.75
3312.1,3736.85
3314.46,3737.35
3316.81,3736.9
3319.17,3736.65
3321.52,3736.75
3323.87,3736.95
3326.22,3735.65
3328.57,3736.55
3330.91,3737.0
3333.26,3736.4
3335.6,3736.4
3337.95,3736.05
3340.29,3735.6
3342.63,3735.5
3344.97,3735.9
3347.3,3736.5
3349.64,3736.45
3351.98,3737.05
3354.31,3738.05
3356.64,3736.35
3358.97,3735.95
3361.3,3736.6
3363.63,3735.0
3365.96,3736.6
3368.29,3733.65
3370.61,3734.6
3372.94,3734.85
3375.26,3735.25