File: spectra/VLFR_01-LDPE_nobio_Raman_bd1f5117.csv
nm,Intensity
526.486,830.5
526.622,829.5
526.759,830.9
526.896,830.2
527.033,831.5
527.169,830.6
527.306,830.5
527.443,830.3
527.579,828.6
527.716,830.2
527.853,830.4
527.989,829.3
528.126,831.3
528.263,830.3
528.399,829.7
528.536,829.4
528.672,830.2
528.809,829.8
528.946,830.0
529.082,830.3
529.219,830.2
529.355,830.4
529.492,829.2
529.628,829.8
529.765,830.5
529.901,831.3
530.038,831.1
530.174,830.4
530.311,830.2
530.447,829.5
530.584,830.7
530.72,832.0
530.857,830.2
530.993,829.6
531.13,829.6
531.266,831.2
531.403,830.8
531.539,829.8
531.676,829.4
531.812,830.5
531.948,835.8
532.085,874.7
532.221,903.4
532.358,853.3
532.494,831.9
532.63,830.6
532.767,830.8
532.903,829.2
533.039,830.8
533.176,830.6
533.312,830.7
533.448,831.5
533.585,831.3
533.721,835.1
533.857,858.6
533.993,901.5
534.13,925.3
534.266,930.1
534.402,921.3
534.539,917.9
534.675,915.2
534.811,916.9
534.947,908.9
535.083,906.4
535.22,901.7
535.356,897.3
535.492,891.7
535.628,888.7
535.764,888.7
535.901,884.1
536.037,879.0
536.173,879.4
536.309,879.9
536.445,878.3
536.581,874.6
536.717,876.9
536.854,872.9
536.99,876.3
537.126,875.2
537.262,873.8
537.398,874.1
537.534,875.3
537.67,873.2
537.806,871.4
537.942,869.6
538.078,871.8
538.214,869.6
538.35,869.7
538.486,869.8
538.622,869.3
538.758,871.8
538.894,866.7
539.03,866.1
539.166,867.0
539.302,865.7
539.438,863.6
539.574,862.6
539.71,866.5
539.846,863.3
539.982,863.4
540.118,863.9
540.254,862.3
540.39,862.9
540.526,861.8
540.662,863.4
540.798,862.9
540.933,861.5
541.069,859.4
541.205,860.4
541.341,859.5
541.477,861.1
541.613,860.1
541.749,860.5
541.884,863.2
542.02,861.6
542.156,859.9
542.292,861.5
542.428,859.6
542.563,858.1
542.699,857.3
542.835,859.6
542.971,858.1
543.106,859.2
543.242,856.6
543.378,857.5
543.514,861.9
543.649,856.7
543.785,859.7
543.921,857.6
544.057,857.5
544.192,858.3
544.328,858.6
544.464,856.7
544.599,857.0
544.735,856.0
544.871,858.6
545.006,859.4
545.142,854.8
545.278,857.7
545.413,857.5
545.549,855.6
545.684,856.8
545.82,855.5
545.956,854.2
546.091,858.9
546.227,858.8
546.362,855.1
546.498,855.3
546.634,854.6
546.769,856.7
546.905,854.6
547.04,854.5
547.176,857.1
547.311,855.9
547.447,854.1
547.582,855.6
547.718,854.2
547.853,854.5
547.989,856.0
548.124,854.1
548.26,856.1
548.395,852.6
548.531,854.6
548.666,854.3
548.802,853.3
548.937,854.8
549.072,853.0
549.208,854.0
549.343,851.9
549.479,855.8
549.614,851.5
549.75,852.2
549.885,850.9
550.02,851.6
550.156,852.0
550.291,853.4
550.426,853.0
550.562,849.9
550.697,851.3
550.832,849.9
550.968,851.5
551.103,851.6
551.238,850.9
551.374,852.5
551.509,851.3
551.644,853.1
551.78,854.0
551.915,853.4
552.05,854.1
552.185,852.5
552.321,852.6
552.456,852.0
552.591,852.9
552.726,853.7
552.862,855.4
552.997,855.1
553.132,856.4
553.267,854.3
553.403,857.4
553.538,858.7
553.673,856.8
553.808,855.8
553.943,859.2
554.078,857.9
554.214,856.6
554.349,854.4
554.484,856.6
554.619,855.6
554.754,855.4
554.889,858.0
555.024,856.7
555.16,858.0
555.295,856.9
555.43,859.2
555.565,856.5
555.7,859.1
555.835,861.7
555.97,858.8
556.105,859.5
556.24,858.1
556.375,860.7
556.51,860.1
556.645,862.6
556.78,862.1
556.915,860.3
557.05,861.4
557.185,861.7
557.32,863.6
557.455,863.5
557.59,862.2
557.725,864.3
557.86,866.9
557.995,865.3
558.13,865.8
558.265,865.9
558.4,867.4
558.535,866.1
558.67,868.6
558.805,868.2
558.94,865.0
559.075,866.2
559.21,864.9
559.345,861.2
559.479,864.2
559.614,863.5
559.749,864.1
559.884,862.7
560.019,860.2
560.154,862.2
560.289,862.5
560.424,860.9
560.558,860.9
560.693,862.3
560.828,861.2
560.963,860.6
561.098,862.7
561.232,864.4
561.367,863.1
561.502,860.0
561.637,862.1
561.772,861.4
561.906,863.8
562.041,862.1
562.176,863.5
562.311,867.1
562.445,862.5
562.58,867.6
562.715,867.5
562.85,868.8
562.984,870.4
563.119,870.6
563.254,870.2
563.388,872.0
563.523,876.2
563.658,878.9
563.792,888.3
563.927,921.5
564.062,966.2
564.196,949.3
564.331,903.6
564.466,892.4
564.6,890.9
564.735,893.4
564.87,886.8
565.004,887.1
565.139,880.6
565.273,881.6
565.408,880.5
565.543,879.3
565.677,881.7
565.812,881.4
565.946,895.1
566.081,924.8
566.215,950.1
566.35,921.0
566.485,895.1
566.619,878.8
566.754,878.2
566.888,876.6
567.023,875.4
567.157,872.6
567.292,877.5
567.426,884.2
567.561,887.3
567.695,878.7
567.83,873.3
567.964,871.3
568.099,870.9
568.233,870.9
568.368,869.2
568.502,871.0
568.636,872.0
568.771,873.2
568.905,869.3
569.04,871.8
569.174,869.3
569.309,873.7
569.443,871.5
569.577,873.7
569.712,872.8
569.846,873.9
569.98,874.2
570.115,873.6
570.249,876.9
570.384,877.3
570.518,881.0
570.652,879.5
570.787,881.3
570.921,885.3
571.055,886.8
571.19,891.1
571.324,907.5
571.458,964.4
571.592,1057.4
571.727,994.2
571.861,935.0
571.995,919.9
572.13,906.0
572.264,902.7
572.398,895.2
572.532,893.3
572.667,885.6
572.801,884.5
572.935,880.3
573.069,881.6
573.204,882.3
573.338,882.5
573.472,883.5
573.606,880.5
573.74,884.3
573.875,889.2
574.009,895.2
574.143,893.8
574.277,886.3
574.411,882.4
574.545,882.8
574.68,884.1
574.814,880.2
574.948,885.7
575.082,884.7
575.216,885.8
575.35,889.3
575.484,909.6
575.619,931.5
575.753,928.0
575.887,923.5
576.021,943.5
576.155,986.9
576.289,1038.4
576.423,1042.6
576.557,1010.4
576.691,984.1
576.825,988.5
576.959,983.2
577.093,985.8
577.227,970.4
577.361,947.0
577.495,927.0
577.629,913.3
577.763,906.3
577.897,904.2
578.031,902.0
578.165,898.1
578.299,901.5
578.433,899.2
578.567,897.1
578.701,896.3
578.835,896.3
578.969,897.1
579.103,900.7
579.237,897.8
579.371,901.3
579.505,899.9
579.639,899.5
579.773,896.7
579.907,898.4
580.041,904.9
580.175,897.2
580.309,901.5
580.442,901.0
580.576,901.3
580.71,901.3
580.844,908.4
580.978,908.7
581.112,905.7
581.246,904.5
581.38,911.1
581.513,912.6
581.647,909.0
581.781,911.6
581.915,911.9
582.049,910.6
582.183,913.8
582.316,919.1
582.45,916.2
582.584,916.2
582.718,916.8
582.852,919.9
582.985,920.7
583.119,919.1
583.253,921.0
583.387,924.2
583.52,925.2
583.654,926.8
583.788,933.1
583.922,931.8
584.055,931.8
584.189,933.9
584.323,937.5
584.456,936.8
584.59,944.6
584.724,942.7
584.858,939.8
584.991,944.6
585.125,948.0
585.259,944.8
585.392,950.1
585.526,956.0
585.66,956.4
585.793,961.6
585.927,960.5
586.061,959.7
586.194,970.4
586.328,972.9
586.462,971.7
586.595,976.2
586.729,977.1
586.862,980.4
586.996,982.4
587.13,987.5
587.263,989.8
587.397,993.7
587.53,996.4
587.664,997.0
587.797,1007.6
587.931,1003.6
588.065,1011.2
588.198,1012.5
588.332,1013.6
588.465,1021.1
588.599,1021.6
588.732,1023.0
588.866,1029.9
588.999,1029.2
589.133,1033.7
589.266,1039.4
589.4,1039.1
589.533,1041.9
589.667,1047.2
589.8,1046.7
589.934,1054.5
590.067,1057.1
590.201,1058.0
590.334,1069.2
590.468,1064.4
590.601,1069.8
590.735,1080.5
590.868,1074.2
591.001,1080.9
591.135,1091.1
591.268,1089.1
591.402,1090.3
591.535,1101.6
591.669,1100.5
591.802,1102.3
591.935,1104.5
592.069,1108.8
592.202,1114.5
592.335,1116.1
592.469,1122.6
592.602,1126.2
592.736,1130.0
592.869,1126.4
593.002,1127.6
593.136,1136.7
593.269,1142.2
593.402,1143.8
593.536,1147.6
593.669,1160.4
593.802,1155.2
593.936,1160.1
594.069,1168.3
594.202,1167.8
594.336,1174.3
594.469,1180.2
594.602,1199.4
594.735,1194.8
594.869,1193.4
595.002,1204.6
595.135,1214.8
595.268,1213.1
595.402,1232.8
595.535,1233.5
595.668,1233.2
595.801,1243.4
595.935,1248.9
596.068,1262.0
596.201,1263.8
596.334,1270.5
596.468,1269.5
596.601,1286.7
596.734,1284.9
596.867,1300.5
597.0,1307.0
597.133,1310.5
597.267,1325.3
597.4,1330.2
597.533,1336.1
597.666,1353.9
597.799,1347.0
597.932,1368.9
598.066,1372.2
598.199,1375.6
598.332,1383.9
598.465,1380.3
598.598,1397.5
598.731,1407.3
598.864,1420.3
598.998,1419.7
599.131,1422.7
599.264,1429.4
599.397,1436.4
599.53,1440.8
599.663,1452.0
599.796,1447.2
599.929,1453.7
600.062,1466.2
600.195,1456.3
600.328,1470.6
600.461,1461.0
600.594,1459.4
600.727,1466.5
600.86,1459.2
600.994,1470.0
601.127,1477.1
601.26,1461.2
601.393,1466.0
601.526,1464.8
601.659,1474.6
601.792,1453.9
601.925,1463.7
602.058,1464.9
602.191,1454.5
602.324,1470.5
602.457,1460.7
602.589,1451.6
602.722,1452.6
602.855,1452.2
602.988,1439.1
603.121,1439.0
603.254,1435.2
603.387,1430.1
603.52,1425.5
603.653,1426.7
603.786,1407.7
603.919,1417.8
604.052,1407.9
604.185,1396.3
604.318,1393.1
604.451,1387.4
604.583,1376.7
604.716,1378.5
604.849,1361.9
604.982,1358.9
605.115,1349.7
605.248,1338.9
605.381,1337.1
605.514,1323.4
605.646,1324.2
605.779,1307.4
605.912,1310.1
606.045,1301.1
606.178,1292.4
606.311,1289.8
606.443,1276.3
606.576,1272.1
606.709,1275.9
606.842,1272.7
606.975,1263.8
607.107,1256.6
607.24,1253.8
607.373,1245.9
607.506,1259.6
607.639,1247.8
607.771,1245.0
607.904,1241.5
608.037,1239.0
608.17,1236.7
608.302,1222.7
608.435,1225.6
608.568,1226.0
608.701,1214.0
608.833,1217.6
608.966,1210.7
609.099,1207.9
609.232,1206.2
609.364,1205.0
609.497,1199.3
609.63,1193.4
609.762,1195.5
609.895,1192.3
610.028,1195.6
610.161,1194.1
610.293,1179.9
610.426,1179.1
610.559,1185.3
610.691,1185.1
610.824,1180.0
610.957,1174.7
611.089,1171.1
611.222,1175.4
611.355,1175.1
611.487,1165.8
611.62,1171.6
611.752,1172.0
611.885,1175.5
612.018,1170.8
612.15,1161.3
612.283,1158.8
612.416,1172.2
612.548,1156.7
612.681,1162.1
612.813,1163.0
612.946,1160.7
613.078,1163.2
613.211,1150.5
613.344,1157.3
613.476,1154.6
613.609,1148.7
613.741,1149.7
613.874,1149.8
614.006,1149.1
614.139,1140.6
614.272,1145.5
614.404,1143.3
614.537,1137.7
614.669,1128.8
614.802,1136.4
614.934,1133.6
615.067,1134.5
615.199,1126.2
615.332,1124.5
615.464,1133.8
615.597,1121.0
615.729,1124.8
615.862,1119.9
615.994,1114.3
616.127,1116.6
616.259,1114.7
616.392,1119.4
616.524,1109.3
616.657,1111.6
616.789,1114.7
616.922,1118.5
617.054,1113.8
617.186,1111.9
617.319,1111.5
617.451,1110.3
617.584,1111.4
617.716,1105.3
617.849,1110.0
617.981,1103.8
618.113,1107.4
618.246,1101.9
618.378,1100.4
618.511,1104.7
618.643,1099.6
618.775,1099.4
618.908,1093.0
619.04,1095.8
619.173,1091.6
619.305,1098.3
619.437,1089.2
619.57,1091.9
619.702,1090.2
619.834,1095.1
619.967,1092.5
620.099,1088.5
620.231,1085.2
620.364,1084.9
620.496,1088.3
620.628,1084.1
620.761,1082.8
620.893,1084.6
621.025,1089.0
621.158,1089.1
621.29,1089.3
621.422,1102.9
621.555,1092.2
621.687,1104.0
621.819,1105.6
621.952,1114.0
622.084,1128.2
622.216,1125.9
622.348,1126.8
622.481,1129.3
622.613,1115.3
622.745,1111.3
622.878,1101.1
623.01,1084.6
623.142,1082.3
623.274,1069.4
623.407,1068.7
623.539,1070.5
623.671,1070.6
623.803,1067.1
623.935,1061.1
624.068,1064.8
624.2,1054.2
624.332,1059.0
624.464,1056.2
624.597,1053.8
624.729,1058.0
624.861,1054.8
624.993,1051.7
625.125,1052.8
625.258,1062.2
625.39,1054.9
625.522,1055.9
625.654,1057.9
625.786,1066.0
625.918,1065.7
626.051,1068.1
626.183,1074.4
626.315,1082.5
626.447,1110.8
626.579,1146.3
626.711,1230.2
626.844,1362.9
626.976,1592.8
627.108,1848.4
627.24,2010.9
627.372,1967.3
627.504,1864.2
627.636,1733.3
627.768,1667.1
627.901,1592.1
628.033,1565.9
628.165,1567.7
628.297,1645.9
628.429,1821.7
628.561,2088.4
628.693,2024.4
628.825,1757.0
628.957,1652.9
629.089,1610.7
629.221,1580.2
629.354,1543.9
629.486,1501.6
629.618,1461.4
629.75,1428.9
629.882,1397.2
630.014,1370.6
630.146,1352.6
630.278,1352.4
630.41,1338.7
630.542,1329.1
630.674,1308.7
630.806,1269.0
630.938,1226.8
631.07,1168.6
631.202,1127.8
631.334,1095.7
631.466,1078.4
631.598,1068.0
631.73,1063.3
631.862,1057.9
631.994,1051.9
632.126,1038.1
632.258,1033.1
632.39,1029.4
632.522,1026.1
632.654,1021.5
632.786,1013.8
632.918,1017.7
633.05,1010.5
633.182,1009.1
633.314,1011.6
633.446,1009.1
633.578,1002.9
633.71,1007.2
633.842,1001.8
633.974,1002.3
634.106,1002.1
634.237,1003.0
634.369,1002.8
634.501,1001.5
634.633,1000.8
634.765,998.9
634.897,1000.6
635.029,1000.2
635.161,1000.6
635.293,1000.1
635.425,995.6
635.557,998.9
635.689,1001.6
635.82,1005.5
635.952,1005.8
636.084,999.6
636.216,1002.0
636.348,1001.8
636.48,999.1
636.612,1007.4
636.744,1000.1
636.875,1002.1
637.007,999.6
637.139,999.5
637.271,1003.8
637.403,1006.2
637.535,999.9
637.667,1004.7
637.798,999.1
637.93,1002.5
638.062,1001.8
638.194,1000.3
638.326,1003.6
638.458,1003.9
638.589,1003.1
638.721,1006.8
638.853,1009.6
638.985,1009.0
639.117,1010.1
639.248,1008.5
639.38,1011.3
639.512,1014.0
639.644,1019.1
639.776,1007.8
639.907,1009.3
640.039,1016.3
640.171,1018.8
640.303,1014.3
640.435,1018.7
640.566,1016.4
640.698,1015.8
640.83,1019.1
640.962,1019.6
641.093,1025.5
641.225,1024.3
641.357,1024.8
641.489,1022.0
641.62,1029.1
641.752,1029.8
641.884,1031.8
642.016,1028.4
642.147,1025.2
642.279,1030.2
642.411,1028.9
642.543,1032.1
642.674,1038.1
642.806,1038.4
642.938,1039.4
643.069,1032.3
643.201,1039.5
643.333,1030.1
643.465,1041.3
643.596,1040.5
643.728,1032.4
643.86,1040.5
643.991,1038.8
644.123,1044.5
644.255,1042.1
644.386,1044.0
644.518,1044.8
644.65,1052.4
644.781,1049.2
644.913,1050.3
645.045,1047.2
645.176,1046.8
645.308,1048.5
645.44,1047.6
645.571,1053.0
645.703,1055.5
645.835,1053.9
645.966,1057.1
646.098,1060.6
646.23,1055.4
646.361,1067.6
646.493,1058.5
646.625,1061.6
646.756,1057.9
646.888,1063.4
647.019,1065.6
647.151,1062.2
647.283,1073.4
647.414,1070.8
647.546,1069.1
647.678,1076.6
647.809,1074.8
647.941,1076.1
648.072,1076.5
648.204,1078.6
648.336,1077.5
648.467,1079.3
648.599,1077.5
648.73,1078.9
648.862,1081.9
648.993,1083.7
649.125,1080.7
649.257,1088.5
649.388,1082.1
649.52,1087.8
649.651,1084.3
649.783,1091.5
649.914,1089.4
650.046,1095.6
650.178,1091.4
650.309,1097.0
650.441,1100.4
650.572,1095.7
650.704,1095.9
650.835,1095.7
650.967,1099.8
651.098,1103.7
651.23,1103.1
651.361,1100.9
651.493,1104.4
651.625,1108.9
651.756,1104.6
651.888,1112.6
652.019,1112.1
652.151,1115.5
652.282,1115.2
652.414,1118.6
652.545,1116.6
652.677,1116.4
652.808,1124.3
652.94,1119.9
653.071,1120.8
653.203,1123.0
653.334,1125.4
653.466,1124.9
653.597,1136.2
653.729,1131.2
653.86,1131.7
653.992,1124.9
654.123,1131.2
654.255,1131.8
654.386,1128.2
654.518,1129.6
654.649,1125.9
654.78,1128.8
654.912,1128.8
655.043,1135.7
655.175,1137.7
655.306,1132.3
655.438,1132.4
655.569,1130.8
655.701,1128.3
655.832,1132.7
655.964,1133.8
656.095,1121.1
656.226,1121.3
656.358,1118.3
656.489,1122.3
656.621,1118.5
656.752,1125.7
656.884,1124.4
657.015,1117.3
657.146,1123.2
657.278,1120.0
657.409,1120.9
657.541,1121.1
657.672,1108.9
657.804,1114.3
657.935,1107.6
658.066,1118.7
658.198,1101.9
658.329,1101.4
658.461,1107.0
658.592,1100.3
658.723,1104.6
658.855,1106.6
658.986,1104.3
659.118,1099.2
659.249,1097.1
659.38,1094.1
659.512,1089.5
659.643,1085.9
659.774,1086.2
659.906,1087.0
660.037,1085.5
660.169,1078.8
660.3,1073.2
660.431,1082.7
660.563,1070.1
660.694,1063.8
660.825,1063.4
660.957,1064.0
661.088,1062.2
661.22,1062.5
661.351,1061.8
661.482,1058.0
661.614,1055.5
661.745,1052.2
661.876,1046.5
662.008,1043.6
662.139,1045.7
662.27,1041.7
662.402,1042.4
662.533,1037.8
662.664,1040.1
662.796,1035.0
662.927,1033.7
663.058,1029.1