File: spectra/VLFR_02-HDPE_bio_Raman_aaa86eb5.csv
nm,Intensity
528.65,1834.35
528.819,1834.8
528.987,1834.3
529.155,1835.0
529.324,1835.2
529.492,1834.25
529.66,1834.3
529.829,1834.55
529.997,1833.2
530.165,1835.0
530.334,1834.7
530.502,1836.65
530.67,1835.75
530.839,1835.35
531.007,1836.15
531.175,1836.9
531.344,1837.8
531.512,1843.35
531.68,1867.4
531.848,2310.8
532.017,4060.8
532.185,3722.75
532.353,2119.5
532.521,1840.4
532.69,1835.55
532.858,1834.75
533.026,1835.85
533.194,1836.15
533.363,1836.35
533.531,1842.1
533.699,1872.7
533.867,1946.35
534.036,1995.15
534.204,2024.8
534.372,2005.9
534.54,2014.4
534.708,2018.9
534.877,2027.8
535.045,2023.95
535.213,2025.95
535.381,2027.55
535.549,2028.5
535.717,2022.2
535.886,2024.3
536.054,2022.05
536.222,2021.4
536.39,2022.6
536.558,2025.9
536.726,2030.5
536.894,2025.95
537.062,2027.85
537.231,2031.3
537.399,2034.05
537.567,2043.7
537.735,2041.3
537.903,2040.2
538.071,2044.3
538.239,2037.25
538.407,2045.4
538.575,2038.8
538.743,2036.35
538.911,2041.4
539.079,2038.4
539.247,2041.3
539.415,2039.15
539.583,2043.4
539.751,2048.6
539.919,2045.3
540.087,2048.35
540.255,2044.05
540.423,2047.9
540.591,2050.4
540.759,2054.45
540.927,2054.15
541.095,2052.7
541.263,2052.45
541.431,2061.8
541.599,2053.3
541.767,2056.0
541.935,2072.95
542.103,2056.2
542.271,2066.25
542.439,2061.05
542.607,2067.75
542.775,2071.9
542.943,2066.85
543.111,2060.85
543.279,2064.9
543.446,2064.75
543.614,2070.65
543.782,2060.55
543.95,2068.25
544.118,2069.35
544.286,2074.4
544.454,2074.15
544.622,2075.2
544.789,2075.25
544.957,2078.2
545.125,2078.85
545.293,2081.0
545.461,2095.8
545.629,2082.8
545.796,2085.35
545.964,2093.2
546.132,2086.15
546.3,2096.45
546.468,2092.95
546.635,2088.15
546.803,2093.2
546.971,2090.3
547.139,2103.8
547.306,2099.95
547.474,2097.55
547.642,2098.05
547.81,2099.8
547.977,2100.05
548.145,2108.9
548.313,2101.35
548.481,2115.05
548.648,2112.45
548.816,2119.3
548.984,2116.55
549.151,2114.65
549.319,2114.15
549.487,2115.1
549.655,2119.35
549.822,2112.8
549.99,2112.05
550.158,2112.35
550.325,2113.1
550.493,2131.4
550.66,2129.15
550.828,2125.4
550.996,2124.25
551.163,2126.55
551.331,2131.95
551.499,2134.05
551.666,2142.7
551.834,2135.3
552.001,2141.05
552.169,2136.45
552.337,2133.05
552.504,2138.45
552.672,2130.3
552.839,2144.85
553.007,2133.7
553.174,2138.5
553.342,2131.35
553.509,2141.65
553.677,2145.7
553.844,2144.45
554.012,2144.65
554.179,2153.2
554.347,2152.05
554.514,2153.5
554.682,2149.8
554.849,2149.6
555.017,2163.55
555.184,2160.25
555.352,2157.5
555.519,2155.65
555.687,2150.6
555.854,2165.9
556.022,2152.9
556.189,2157.25
556.357,2164.7
556.524,2161.7
556.691,2163.3
556.859,2161.95
557.026,2163.0
557.194,2168.7
557.361,2166.2
557.528,2164.45
557.696,2168.2
557.863,2170.15
558.031,2169.35
558.198,2170.2
558.365,2165.1
558.533,2183.15
558.7,2176.25
558.867,2169.7
559.035,2175.55
559.202,2172.8
559.369,2175.25
559.537,2170.1
559.704,2181.05
559.871,2187.35
560.038,2177.5
560.206,2177.2
560.373,2191.75
560.54,2188.2
560.708,2192.8
560.875,2195.9
561.042,2199.4
561.209,2194.1
561.377,2186.6
561.544,2198.2
561.711,2196.3
561.878,2202.1
562.045,2205.25
562.213,2200.2
562.38,2207.4
562.547,2205.55
562.714,2199.55
562.881,2203.8
563.049,2191.6
563.216,2207.35
563.383,2207.75
563.55,2204.3
563.717,2209.65
563.884,2239.25
564.052,2247.05
564.219,2237.25
564.386,2210.05
564.553,2229.6
564.72,2223.15
564.887,2224.75
565.054,2221.65
565.221,2216.4
565.388,2221.5
565.556,2232.15
565.723,2222.2
565.89,2244.6
566.057,2261.85
566.224,2254.6
566.391,2251.9
566.558,2223.9
566.725,2231.65
566.892,2232.25
567.059,2224.5
567.226,2239.0
567.393,2239.35
567.56,2222.05
567.727,2231.55
567.894,2231.6
568.061,2223.95
568.228,2245.8
568.395,2241.75
568.562,2236.35
568.729,2242.65
568.896,2243.55
569.063,2243.2
569.23,2232.8
569.396,2244.05
569.563,2237.0
569.73,2261.75
569.897,2240.5
570.064,2248.9
570.231,2251.55
570.398,2250.1
570.565,2247.45
570.732,2266.7
570.898,2252.3
571.065,2255.3
571.232,2269.5
571.399,2281.15
571.566,2304.6
571.733,2297.05
571.9,2276.45
572.066,2271.1
572.233,2273.1
572.4,2265.5
572.567,2273.3
572.734,2281.35
572.9,2250.1
573.067,2269.05
573.234,2266.75
573.401,2263.95
573.567,2264.85
573.734,2257.35
573.901,2272.2
574.068,2281.2
574.234,2267.15
574.401,2265.55
574.568,2262.15
574.734,2265.25
574.901,2268.7
575.068,2265.05
575.235,2287.45
575.401,2297.6
575.568,2301.7
575.735,2285.85
575.901,2296.9
576.068,2311.1
576.235,2326.7
576.401,2315.7
576.568,2304.75
576.734,2299.05
576.901,2296.2
577.068,2310.5
577.234,2304.5
577.401,2294.85
577.567,2280.1
577.734,2270.75
577.901,2295.25
578.067,2285.65
578.234,2281.85
578.4,2272.15
578.567,2281.4
578.733,2288.3
578.9,2282.25
579.066,2286.1
579.233,2289.85
579.399,2276.8
579.566,2287.05
579.732,2286.95
579.899,2295.25
580.065,2293.95
580.232,2294.45
580.398,2290.95
580.565,2291.05
580.731,2289.95
580.898,2301.0
581.064,2282.9
581.231,2292.25
581.397,2291.55
581.563,2287.45
581.73,2296.1
581.896,2293.5
582.063,2297.6
582.229,2295.0
582.395,2296.65
582.562,2299.6
582.728,2270.9
582.895,2292.65
583.061,2291.75
583.227,2298.4
583.394,2289.85
583.56,2295.45
583.726,2285.25
583.893,2302.95
584.059,2306.95
584.225,2298.25
584.391,2305.15
584.558,2289.75
584.724,2290.55
584.89,2304.05
585.057,2284.15
585.223,2291.95
585.389,2291.0
585.555,2291.25
585.722,2294.05
585.888,2286.85
586.054,2295.05
586.22,2298.6
586.386,2300.25
586.553,2296.3
586.719,2296.2
586.885,2305.35
587.051,2289.45
587.217,2302.6
587.384,2301.35
587.55,2290.1
587.716,2308.65
587.882,2309.1
588.048,2301.45
588.214,2290.7
588.38,2312.9
588.546,2307.85
588.713,2296.55
588.879,2311.9
589.045,2307.4
589.211,2289.7
589.377,2307.55
589.543,2299.55
589.709,2288.45
589.875,2297.0
590.041,2304.8
590.207,2302.2
590.373,2309.35
590.539,2289.75
590.705,2302.4
590.871,2298.85
591.037,2307.5
591.203,2305.0
591.369,2312.1
591.535,2313.15
591.701,2299.85
591.867,2313.6
592.033,2313.4
592.199,2311.9
592.365,2312.3
592.531,2309.9
592.697,2313.0
592.863,2322.0
593.029,2319.2
593.195,2304.65
593.361,2305.65
593.526,2307.95
593.692,2295.05
593.858,2304.3
594.024,2309.4
594.19,2326.05
594.356,2307.75
594.522,2309.35
594.687,2308.3
594.853,2306.2
595.019,2320.4
595.185,2320.5
595.351,2321.15
595.516,2317.7
595.682,2314.2
595.848,2303.3
596.014,2324.35
596.18,2323.0
596.345,2318.25
596.511,2322.8
596.677,2325.0
596.843,2323.8
597.008,2309.05
597.174,2327.7
597.34,2317.8
597.505,2314.65
597.671,2328.75
597.837,2325.3
598.002,2328.9
598.168,2334.65
598.334,2310.8
598.499,2323.75
598.665,2331.35
598.831,2333.65
598.996,2320.8
599.162,2331.2
599.328,2325.7
599.493,2331.55
599.659,2319.85
599.824,2335.2
599.99,2348.5
600.156,2337.6
600.321,2326.85
600.487,2339.95
600.652,2329.05
600.818,2341.0
600.983,2336.8
601.149,2331.05
601.314,2348.15
601.48,2333.7
601.645,2341.25
601.811,2347.65
601.976,2333.9
602.142,2344.8
602.307,2336.05
602.473,2322.4
602.638,2344.6
602.804,2343.55
602.969,2340.0
603.135,2343.15
603.3,2334.95
603.466,2339.3
603.631,2324.55
603.796,2341.4
603.962,2335.7
604.127,2335.25
604.293,2323.25
604.458,2338.75
604.623,2339.65
604.789,2329.3
604.954,2340.3
605.119,2320.1
605.285,2340.35
605.45,2343.7
605.615,2330.9
605.781,2333.25
605.946,2341.5
606.111,2327.65
606.277,2331.3
606.442,2344.8
606.607,2336.25
606.772,2326.55
606.938,2335.65
607.103,2329.3
607.268,2338.15
607.433,2334.85
607.599,2334.55
607.764,2335.95
607.929,2329.75
608.094,2333.45
608.259,2337.7
608.425,2332.85
608.59,2337.0
608.755,2325.3
608.92,2331.95
609.085,2325.8
609.25,2320.6
609.415,2335.0
609.581,2338.65
609.746,2332.55
609.911,2334.3
610.076,2331.7
610.241,2337.1
610.406,2341.35
610.571,2326.25
610.736,2337.8
610.901,2338.65
611.066,2336.65
611.231,2341.95
611.396,2318.15
611.561,2334.55
611.727,2338.75
611.892,2323.35
612.057,2340.8
612.222,2324.2
612.386,2336.2
612.551,2324.85
612.716,2344.55
612.881,2341.4
613.046,2333.0
613.211,2325.45
613.376,2328.7
613.541,2330.45
613.706,2333.15
613.871,2320.45
614.036,2330.6
614.201,2329.6
614.366,2326.2
614.531,2335.85
614.695,2326.95
614.86,2346.95
615.025,2346.75
615.19,2327.75
615.355,2337.55
615.52,2314.4
615.684,2339.95
615.849,2332.7
616.014,2335.75
616.179,2327.65
616.344,2337.4
616.508,2327.15
616.673,2305.55
616.838,2336.3
617.003,2332.3
617.168,2314.8
617.332,2333.3
617.497,2332.45
617.662,2325.7
617.826,2333.3
617.991,2328.9
618.156,2344.95
618.32,2327.75
618.485,2323.8
618.65,2338.3
618.814,2326.2
618.979,2337.15
619.144,2316.5
619.308,2339.3
619.473,2336.3
619.638,2326.75
619.802,2338.7
619.967,2336.35
620.131,2341.75
620.296,2328.45
620.461,2327.65
620.625,2327.9
620.79,2325.45
620.954,2335.0
621.119,2335.65
621.283,2326.0
621.448,2338.4
621.612,2334.0
621.777,2334.1
621.941,2340.85
622.106,2339.8
622.27,2345.25
622.435,2334.45
622.599,2344.55
622.764,2344.05
622.928,2319.85
623.093,2332.9
623.257,2325.7
623.422,2319.0
623.586,2336.15
623.75,2337.65
623.915,2317.95
624.079,2325.05
624.244,2326.4
624.408,2331.35
624.572,2332.2
624.737,2324.75
624.901,2318.1
625.065,2337.5
625.23,2333.85
625.394,2329.15
625.558,2311.7
625.723,2308.05
625.887,2315.2
626.051,2334.1
626.215,2332.25
626.38,2352.35
626.544,2362.6
626.708,2391.15
626.872,2462.15
627.037,2516.8
627.201,2540.55
627.365,2551.6
627.529,2501.2
627.693,2478.75
627.858,2454.85
628.022,2473.4
628.186,2479.55
628.35,2521.25
628.514,2578.55
628.678,2557.95
628.843,2505.6
629.007,2460.5
629.171,2459.8
629.335,2415.3
629.499,2408.55
629.663,2410.9
629.827,2399.85
629.991,2368.35
630.155,2386.45
630.319,2371.0
630.483,2380.7
630.647,2344.95
630.812,2349.85
630.976,2338.2
631.14,2337.6
631.304,2325.25
631.468,2321.2
631.632,2305.7
631.796,2310.3
631.959,2299.75
632.123,2296.2
632.287,2299.4
632.451,2306.35
632.615,2304.65
632.779,2302.65
632.943,2302.0
633.107,2304.35
633.271,2294.75
633.435,2298.5
633.599,2284.35
633.763,2308.35
633.926,2299.35
634.09,2302.05
634.254,2297.5
634.418,2287.65
634.582,2290.55
634.746,2289.85
634.909,2287.0
635.073,2293.55
635.237,2294.85
635.401,2275.4
635.564,2286.3
635.728,2280.5
635.892,2266.65
636.056,2297.15
636.219,2282.9
636.383,2282.2
636.547,2288.35
636.711,2277.15
636.874,2265.85
637.038,2270.55
637.202,2286.25
637.365,2277.5
637.529,2265.3
637.693,2272.5
637.856,2276.55
638.02,2281.65
638.184,2284.05
638.347,2268.85
638.511,2260.8
638.674,2266.3
638.838,2271.9
639.002,2270.25
639.165,2254.2
639.329,2260.8
639.492,2279.3
639.656,2279.8
639.819,2255.85
639.983,2268.35
640.146,2258.4
640.31,2271.4
640.473,2262.3
640.637,2261.6
640.8,2262.4
640.964,2267.5
641.127,2264.25
641.291,2261.6
641.454,2253.15
641.618,2270.1
641.781,2247.8
641.944,2248.4
642.108,2260.9
642.271,2250.35
642.435,2255.1
642.598,2267.55
642.761,2263.35
642.925,2242.95
643.088,2256.35
643.251,2253.65
643.415,2263.2
643.578,2254.4
643.741,2261.65
643.905,2265.4
644.068,2260.3
644.231,2255.75
644.394,2262.9
644.558,2246.15
644.721,2246.9
644.884,2260.6
645.047,2249.7
645.211,2247.6
645.374,2246.7
645.537,2266.0
645.7,2255.05
645.863,2249.05
646.027,2254.9
646.19,2245.75
646.353,2237.95
646.516,2269.6
646.679,2253.6
646.842,2243.55
647.005,2245.45
647.169,2257.7
647.332,2257.2
647.495,2244.6
647.658,2239.9
647.821,2243.95
647.984,2249.05
648.147,2238.3
648.31,2230.55
648.473,2235.5
648.636,2241.65
648.799,2243.55
648.962,2242.45
649.125,2236.7
649.288,2245.45
649.451,2244.7
649.614,2217.65
649.777,2242.0
649.94,2235.25
650.103,2230.4
650.266,2241.45
650.429,2250.8
650.592,2259.05
650.755,2250.45
650.918,2232.25
651.08,2237.0
651.243,2246.0
651.406,2235.3
651.569,2230.3
651.732,2224.85
651.895,2230.65
652.058,2222.7
652.22,2232.2
652.383,2222.65
652.546,2211.0
652.709,2212.95
652.872,2213.65
653.034,2218.2
653.197,2204.4
653.36,2192.0
653.523,2197.4
653.685,2195.8
653.848,2199.35
654.011,2187.95
654.173,2191.4
654.336,2181.05
654.499,2179.45
654.662,2185.95
654.824,2191.65
654.987,2182.55
655.149,2167.0
655.312,2183.95
655.475,2173.9
655.637,2165.7
655.8,2172.85
655.963,2165.85
656.125,2169.1
656.288,2157.65
656.45,2154.85
656.613,2156.15
656.775,2149.55
656.938,2157.0
657.1,2149.9
657.263,2142.45
657.425,2148.55
657.588,2140.5
657.75,2126.45
657.913,2140.45
658.075,2130.5
658.238,2130.2
658.4,2142.0
658.563,2131.35
658.725,2126.4
658.888,2131.55
659.05,2121.15
659.212,2118.3
659.375,2110.35
659.537,2117.25
659.7,2132.8
659.862,2111.8
660.024,2103.15
660.187,2109.65
660.349,2108.6
660.511,2115.95
660.674,2104.1
660.836,2108.15
660.998,2121.25
661.079,2105.9