File: spectra/VLFR_02-HDPE_nobio_Raman_b6a59e3f.csv
nm,Intensity
526.5,828.3
526.637,828.8
526.774,829.3
526.91,828.5
527.047,829.6
527.184,828.5
527.32,829.3
527.457,828.7
527.594,829.7
527.73,827.5
527.867,829.8
528.004,830.4
528.14,828.6
528.277,829.6
528.414,829.7
528.55,830.0
528.687,829.1
528.823,827.6
528.96,830.6
529.096,829.8
529.233,829.5
529.37,828.5
529.506,829.9
529.643,830.2
529.779,830.8
529.916,829.4
530.052,828.1
530.189,829.7
530.325,829.7
530.462,829.4
530.598,828.8
530.735,829.7
530.871,830.3
531.008,830.3
531.144,828.3
531.28,827.9
531.417,829.8
531.553,828.4
531.69,829.8
531.826,828.2
531.962,834.8
532.099,869.2
532.235,877.6
532.372,838.2
532.508,830.4
532.644,828.1
532.781,828.7
532.917,829.0
533.053,830.1
533.19,828.8
533.326,828.9
533.462,829.5
533.599,830.3
533.735,839.5
533.871,874.2
534.007,930.6
534.144,951.0
534.28,950.3
534.416,944.5
534.552,940.5
534.689,936.9
534.825,934.0
534.961,927.9
535.097,923.9
535.234,919.7
535.37,920.3
535.506,914.6
535.642,911.0
535.778,912.4
535.914,907.0
536.051,904.5
536.187,907.8
536.323,902.3
536.459,901.2
536.595,902.1
536.731,898.7
536.867,900.5
537.003,898.9
537.14,898.3
537.276,899.1
537.412,897.2
537.548,895.1
537.684,898.7
537.82,898.6
537.956,892.9
538.092,895.3
538.228,895.9
538.364,895.2
538.5,893.6
538.636,891.1
538.772,889.3
538.908,888.5
539.044,889.3
539.18,887.5
539.316,891.0
539.452,886.0
539.588,886.8
539.724,886.1
539.86,888.1
539.996,886.0
540.132,888.6
540.268,883.6
540.403,884.8
540.539,886.7
540.675,886.9
540.811,884.7
540.947,885.9
541.083,883.9
541.219,885.6
541.355,881.8
541.49,884.6
541.626,883.1
541.762,885.8
541.898,883.8
542.034,885.6
542.17,878.4
542.305,879.4
542.441,883.4
542.577,885.8
542.713,879.5
542.848,883.3
542.984,881.7
543.12,880.4
543.256,880.7
543.391,880.1
543.527,882.6
543.663,879.3
543.799,884.7
543.934,881.0
544.07,880.9
544.206,880.8
544.341,880.9
544.477,881.2
544.613,882.4
544.748,879.7
544.884,880.0
545.02,881.0
545.155,878.5
545.291,884.0
545.427,879.5
545.562,880.8
545.698,882.9
545.833,881.7
545.969,878.7
546.105,882.2
546.24,883.3
546.376,879.1
546.511,882.4
546.647,881.5
546.782,881.5
546.918,880.5
547.053,882.6
547.189,881.4
547.325,881.8
547.46,880.3
547.596,880.6
547.731,878.5
547.867,881.3
548.002,882.8
548.137,880.9
548.273,882.6
548.408,882.6
548.544,883.3
548.679,882.2
548.815,882.2
548.95,880.6
549.086,883.7
549.221,883.0
549.356,881.5
549.492,882.8
549.627,880.9
549.763,879.2
549.898,881.3
550.033,879.5
550.169,882.1
550.304,876.4
550.439,882.7
550.575,878.0
550.71,880.3
550.845,881.9
550.981,882.2
551.116,877.4
551.251,879.8
551.387,879.3
551.522,880.1
551.657,881.9
551.793,884.9
551.928,881.2
552.063,880.7
552.198,880.4
552.334,881.2
552.469,878.5
552.604,881.3
552.739,883.3
552.874,881.2
553.01,883.9
553.145,882.7
553.28,884.3
553.415,881.0
553.55,884.9
553.686,886.1
553.821,881.2
553.956,883.2
554.091,884.2
554.226,884.0
554.361,883.6
554.497,885.0
554.632,885.5
554.767,887.9
554.902,882.3
555.037,882.4
555.172,886.2
555.307,883.9
555.442,887.6
555.577,890.8
555.712,883.1
555.848,885.7
555.983,886.7
556.118,887.8
556.253,888.8
556.388,889.2
556.523,888.3
556.658,887.7
556.793,892.0
556.928,896.1
557.063,895.0
557.198,891.8
557.333,892.9
557.468,893.5
557.603,901.4
557.738,896.3
557.873,898.1
558.008,901.1
558.142,897.9
558.277,900.8
558.412,901.5
558.547,904.9
558.682,899.3
558.817,906.2
558.952,900.7
559.087,901.8
559.222,899.9
559.357,900.7
559.492,904.6
559.626,903.4
559.761,901.8
559.896,904.4
560.031,901.8
560.166,904.1
560.301,902.3
560.435,902.8
560.57,903.7
560.705,906.2
560.84,909.2
560.975,906.8
561.109,908.7
561.244,905.9
561.379,910.1
561.514,908.0
561.649,906.8
561.783,905.0
561.918,915.3
562.053,911.7
562.188,909.5
562.322,921.2
562.457,916.6
562.592,917.5
562.726,920.1
562.861,922.0
562.996,920.8
563.131,924.8
563.265,926.0
563.4,929.0
563.535,931.3
563.669,941.1
563.804,963.5
563.939,1045.8
564.073,1111.2
564.208,1037.8
564.342,970.3
564.477,954.9
564.612,955.1
564.746,953.3
564.881,951.2
565.015,949.3
565.15,947.3
565.285,946.4
565.419,947.5
565.554,946.6
565.688,958.4
565.823,969.3
565.957,1015.8
566.092,1171.2
566.227,1314.7
566.361,1131.7
566.496,990.2
566.63,957.1
566.765,948.3
566.899,942.3
567.034,944.4
567.168,939.8
567.303,941.3
567.437,946.1
567.572,950.8
567.706,941.0
567.84,938.2
567.975,942.6
568.109,938.9
568.244,938.1
568.378,940.6
568.513,940.6
568.647,940.3
568.781,945.8
568.916,945.4
569.05,947.8
569.185,950.0
569.319,950.5
569.453,950.7
569.588,948.9
569.722,950.3
569.857,951.1
569.991,951.6
570.125,953.4
570.26,954.6
570.394,961.9
570.528,959.7
570.663,960.0
570.797,970.2
570.931,967.1
571.065,968.2
571.2,979.2
571.334,1009.0
571.468,1150.6
571.603,1289.7
571.737,1118.7
571.871,1017.1
572.005,998.6
572.14,990.8
572.274,978.5
572.408,975.5
572.542,977.7
572.677,974.1
572.811,975.5
572.945,977.6
573.079,974.9
573.213,981.2
573.348,977.6
573.482,983.3
573.616,985.4
573.75,990.3
573.884,1001.4
574.018,1012.0
574.153,1002.8
574.287,997.3
574.421,993.0
574.555,999.3
574.689,1001.4
574.823,997.5
574.957,1007.4
575.092,1012.1
575.226,1022.2
575.36,1069.2
575.494,1209.7
575.628,1245.8
575.762,1142.9
575.896,1094.8
576.03,1103.3
576.164,1125.0
576.298,1146.2
576.432,1143.7
576.566,1127.5
576.7,1124.8
576.834,1124.1
576.968,1130.4
577.103,1130.9
577.237,1125.9
577.371,1108.9
577.505,1104.0
577.639,1099.5
577.773,1098.2
577.907,1099.2
578.04,1107.6
578.174,1110.2
578.308,1114.0
578.442,1118.4
578.576,1122.2
578.71,1129.6
578.844,1133.6
578.978,1151.4
579.112,1148.8
579.246,1153.9
579.38,1167.4
579.514,1171.6
579.648,1173.7
579.782,1187.8
579.916,1196.3
580.049,1200.6
580.183,1203.0
580.317,1209.7
580.451,1220.3
580.585,1227.0
580.719,1227.9
580.853,1239.3
580.986,1250.4
581.12,1252.7
581.254,1259.4
581.388,1268.8
581.522,1278.0
581.656,1289.7
581.789,1300.1
581.923,1302.7
582.057,1311.8
582.191,1323.5
582.325,1335.9
582.458,1334.1
582.592,1350.5
582.726,1358.1
582.86,1368.8
582.993,1377.7
583.127,1379.6
583.261,1392.6
583.395,1394.6
583.528,1403.1
583.662,1397.6
583.796,1411.8
583.93,1423.7
584.063,1430.3
584.197,1432.1
584.331,1423.2
584.464,1438.2
584.598,1439.9
584.732,1451.5
584.865,1455.0
584.999,1456.0
585.133,1467.9
585.266,1471.5
585.4,1475.5
585.534,1485.1
585.667,1486.8
585.801,1490.7
585.935,1490.3
586.068,1510.6
586.202,1523.8
586.336,1515.5
586.469,1533.9
586.603,1531.7
586.736,1534.5
586.87,1545.5
587.004,1545.3
587.137,1550.2
587.271,1552.6
587.404,1547.8
587.538,1567.9
587.671,1561.8
587.805,1570.0
587.938,1568.4
588.072,1576.0
588.206,1583.8
588.339,1577.6
588.473,1582.5
588.606,1593.2
588.74,1603.0
588.873,1605.0
589.007,1601.5
589.14,1607.2
589.274,1618.6
589.407,1627.9
589.541,1630.9
589.674,1630.9
589.808,1646.2
589.941,1649.5
590.074,1654.3
590.208,1653.4
590.341,1669.3
590.475,1669.7
590.608,1678.3
590.742,1695.4
590.875,1701.3
591.009,1696.0
591.142,1706.1
591.275,1698.8
591.409,1698.7
591.542,1713.5
591.676,1705.5
591.809,1718.0
591.942,1720.4
592.076,1712.9
592.209,1721.0
592.342,1729.4
592.476,1728.8
592.609,1728.1
592.743,1734.9
592.876,1727.3
593.009,1741.5
593.143,1723.1
593.276,1747.3
593.409,1745.8
593.543,1733.4
593.676,1725.7
593.809,1722.3
593.942,1733.9
594.076,1733.2
594.209,1727.9
594.342,1714.5
594.476,1730.2
594.609,1724.1
594.742,1732.2
594.875,1727.6
595.009,1733.8
595.142,1729.8
595.275,1716.3
595.408,1720.1
595.542,1707.9
595.675,1717.1
595.808,1707.6
595.941,1716.3
596.075,1705.7
596.208,1704.1
596.341,1697.1
596.474,1699.0
596.607,1696.0
596.741,1703.1
596.874,1678.0
597.007,1685.6
597.14,1679.6
597.273,1689.3
597.406,1679.1
597.54,1669.0
597.673,1678.8
597.806,1664.1
597.939,1671.9
598.072,1676.1
598.205,1656.3
598.338,1656.5
598.472,1659.8
598.605,1650.8
598.738,1651.2
598.871,1645.9
599.004,1654.9
599.137,1642.7
599.27,1643.7
599.403,1649.3
599.536,1642.7
599.67,1630.6
599.803,1637.8
599.936,1640.0
600.069,1636.0
600.202,1634.2
600.335,1620.6
600.468,1620.9
600.601,1610.2
600.734,1598.1
600.867,1598.9
601.0,1607.7
601.133,1598.0
601.266,1590.0
601.399,1588.1
601.532,1595.8
601.665,1575.1
601.798,1586.5
601.931,1579.9
602.064,1571.5
602.197,1568.6
602.33,1570.4
602.463,1572.1
602.596,1570.3
602.729,1562.0
602.862,1563.4
602.995,1556.4
603.128,1552.9
603.261,1559.9
603.394,1548.7
603.527,1543.2
603.66,1543.1
603.793,1531.0
603.925,1531.4
604.058,1519.4
604.191,1528.1
604.324,1511.5
604.457,1498.0
604.59,1492.8
604.723,1488.9
604.856,1491.5
604.989,1477.8
605.122,1465.8
605.254,1463.9
605.387,1463.9
605.52,1454.0
605.653,1435.6
605.786,1442.2
605.919,1444.3
606.052,1433.8
606.184,1427.3
606.317,1418.9
606.45,1414.8
606.583,1413.1
606.716,1416.4
606.849,1409.2
606.981,1402.4
607.114,1395.9
607.247,1390.9
607.38,1394.5
607.513,1382.1
607.645,1382.7
607.778,1382.8
607.911,1369.0
608.044,1374.5
608.177,1375.6
608.309,1357.7
608.442,1354.8
608.575,1355.9
608.708,1357.1
608.84,1353.8
608.973,1345.7
609.106,1346.3
609.239,1344.7
609.371,1340.5
609.504,1333.3
609.637,1326.7
609.769,1322.9
609.902,1326.7
610.035,1315.1
610.168,1320.0
610.3,1313.7
610.433,1313.9
610.566,1312.6
610.698,1305.6
610.831,1304.9
610.964,1301.9
611.096,1299.0
611.229,1290.1
611.362,1299.7
611.494,1284.5
611.627,1280.5
611.76,1281.8
611.892,1282.7
612.025,1282.8
612.158,1272.9
612.29,1270.9
612.423,1272.6
612.556,1271.9
612.688,1267.0
612.821,1272.7
612.953,1274.2
613.086,1275.0
613.219,1264.6
613.351,1263.7
613.484,1261.4
613.616,1253.1
613.749,1253.3
613.882,1249.6
614.014,1250.3
614.147,1244.5
614.279,1248.9
614.412,1246.8
614.544,1245.4
614.677,1242.7
614.809,1236.6
614.942,1233.2
615.075,1227.3
615.207,1223.0
615.34,1224.5
615.472,1228.1
615.605,1221.9
615.737,1225.3
615.87,1215.5
616.002,1223.8
616.135,1208.5
616.267,1207.2
616.4,1201.5
616.532,1212.1
616.665,1209.3
616.797,1208.5
616.93,1207.6
617.062,1210.2
617.195,1208.5
617.327,1200.6
617.46,1201.0
617.592,1202.1
617.725,1198.2
617.857,1194.9
617.989,1192.4
618.122,1196.7
618.254,1188.5
618.387,1189.3
618.519,1192.0
618.652,1189.4
618.784,1182.2
618.917,1187.1
619.049,1190.4
619.181,1174.2
619.314,1184.1
619.446,1177.2
619.579,1178.7
619.711,1180.1
619.843,1177.5
619.976,1181.1
620.108,1177.4
620.241,1174.6
620.373,1167.6
620.505,1175.2
620.638,1173.2
620.77,1171.6
620.902,1170.6
621.035,1165.5
621.167,1171.9
621.299,1164.4
621.432,1170.1
621.564,1170.0
621.696,1173.0
621.829,1172.6
621.961,1181.5
622.093,1180.7
622.226,1194.1
622.358,1188.2
622.49,1193.5
622.623,1186.6
622.755,1178.4
622.887,1175.3
623.02,1169.8
623.152,1166.8
623.284,1160.8
623.416,1165.9
623.549,1165.1
623.681,1169.3
623.813,1160.1
623.946,1165.5
624.078,1161.9
624.21,1163.7
624.342,1162.3
624.475,1170.9
624.607,1165.4
624.739,1163.4
624.871,1170.7
625.004,1165.8
625.136,1168.4
625.268,1167.8
625.4,1167.1
625.533,1173.0
625.665,1177.7
625.797,1174.8
625.929,1181.1
626.061,1179.5
626.194,1191.8
626.326,1193.5
626.458,1214.7
626.59,1246.1
626.722,1293.8
626.855,1394.0
626.987,1545.2
627.119,1726.0
627.251,1840.4
627.383,1810.9
627.516,1714.6
627.648,1625.6
627.78,1570.7
627.912,1539.7
628.044,1512.0
628.176,1512.4
628.308,1557.7
628.441,1664.8
628.573,1816.9
628.705,1796.9
628.837,1675.6
628.969,1613.6
629.101,1591.1
629.233,1581.3
629.366,1567.6
629.498,1522.1
629.63,1494.4
629.762,1475.5
629.894,1454.3
630.026,1435.1
630.158,1434.7
630.29,1429.8
630.422,1427.7
630.554,1422.5
630.687,1393.3
630.819,1359.7
630.951,1332.5
631.083,1301.6
631.215,1269.4
631.347,1258.6
631.479,1241.9
631.611,1240.1
631.743,1232.3
631.875,1223.4
632.007,1227.1
632.139,1229.4
632.271,1235.0
632.403,1224.6
632.535,1232.5
632.667,1218.4
632.799,1222.5
632.931,1220.5
633.063,1224.2
633.195,1220.0
633.328,1221.7
633.46,1219.5
633.592,1224.7
633.724,1228.2
633.856,1229.2
633.988,1235.2
634.12,1227.8
634.252,1225.2
634.384,1224.6
634.516,1230.7
634.647,1235.6
634.779,1233.8
634.911,1231.1
635.043,1240.3
635.175,1245.2
635.307,1236.9
635.439,1235.3
635.571,1238.8
635.703,1238.0
635.835,1248.8
635.967,1245.6
636.099,1250.7
636.231,1246.8
636.363,1247.4
636.495,1246.1
636.627,1257.3
636.759,1247.8
636.891,1259.8
637.023,1247.0
637.155,1256.9
637.286,1253.7
637.418,1255.2
637.55,1258.8
637.682,1258.7
637.814,1266.1
637.946,1257.2
638.078,1264.3
638.21,1261.3
638.342,1255.6
638.474,1260.9
638.605,1269.9
638.737,1264.4
638.869,1264.7
639.001,1263.9
639.133,1260.3
639.265,1274.9
639.397,1269.5
639.529,1271.7
639.66,1266.8
639.792,1275.9
639.924,1271.9
640.056,1276.4
640.188,1270.1
640.32,1274.1
640.452,1269.7
640.583,1279.2
640.715,1284.8
640.847,1277.1
640.979,1283.0
641.111,1283.4
641.243,1281.3
641.374,1290.5
641.506,1287.4
641.638,1280.2
641.77,1281.2
641.902,1277.8
642.033,1284.1
642.165,1293.8
642.297,1293.3
642.429,1291.5
642.561,1287.1
642.692,1290.6
642.824,1287.6
642.956,1289.6
643.088,1288.6
643.22,1287.8
643.351,1290.7
643.483,1283.7
643.615,1297.7
643.747,1286.9
643.878,1280.0
644.01,1288.5
644.142,1291.4
644.274,1280.9
644.405,1291.5
644.537,1288.1
644.669,1288.3
644.801,1292.4
644.932,1288.1
645.064,1286.0
645.196,1291.5
645.328,1283.7
645.459,1285.6
645.591,1284.2
645.723,1281.9
645.854,1296.0
645.986,1286.7
646.118,1289.9
646.25,1284.6
646.381,1283.9
646.513,1291.1
646.645,1282.2
646.776,1280.6
646.908,1289.7
647.04,1291.0
647.172,1282.8
647.303,1283.6
647.435,1284.2
647.567,1279.7
647.698,1279.6
647.83,1274.4
647.962,1286.1
648.093,1276.2
648.225,1282.8
648.357,1275.7
648.488,1277.7
648.62,1275.6
648.752,1269.7
648.883,1277.0
649.015,1269.8
649.147,1270.7
649.278,1256.5
649.41,1267.8
649.542,1266.7
649.673,1258.7
649.805,1262.5
649.937,1262.9
650.068,1254.4
650.2,1268.5
650.331,1261.0
650.463,1253.8
650.595,1258.6
650.726,1252.1
650.858,1252.2
650.99,1255.0
651.121,1236.7
651.253,1249.1
651.384,1243.4
651.516,1243.5
651.648,1245.6
651.779,1242.1
651.911,1249.8
652.042,1244.5
652.174,1239.2
652.306,1232.5
652.437,1243.6
652.569,1239.8
652.7,1243.7
652.832,1230.7
652.963,1236.8
653.095,1231.1
653.227,1234.0
653.358,1225.3
653.49,1226.0
653.621,1231.1
653.753,1230.1
653.884,1224.3
654.016,1226.8
654.148,1222.6
654.279,1222.0
654.411,1219.3
654.542,1222.3
654.674,1211.4
654.805,1218.3
654.937,1212.5
655.068,1211.0
655.2,1212.0
655.331,1207.1
655.463,1207.1
655.595,1203.5
655.726,1208.2
655.858,1210.0
655.989,1200.2
656.121,1201.9
656.252,1196.1
656.384,1194.4
656.515,1198.2
656.647,1192.6
656.778,1193.1
656.91,1194.1
657.041,1195.5
657.173,1195.4
657.304,1191.8
657.436,1183.2
657.567,1179.6
657.699,1182.5
657.83,1181.4
657.962,1175.9
658.093,1177.3
658.225,1182.8
658.356,1177.9
658.488,1178.6
658.619,1167.5
658.751,1170.2
658.882,1161.8
659.013,1163.7
659.145,1162.9
659.276,1167.7
659.408,1161.9
659.539,1158.0
659.671,1153.8
659.802,1165.6
659.934,1152.3
660.065,1152.7
660.197,1144.7
660.328,1141.2
660.459,1145.4
660.591,1140.6
660.722,1137.0
660.854,1126.6
660.985,1129.7
661.117,1131.6
661.248,1118.1
661.38,1123.0
661.511,1115.2
661.642,1119.0
661.774,1115.5
661.905,1114.3
662.037,1112.8
662.168,1112.3
662.299,1097.7
662.431,1097.2
662.562,1100.3
662.694,1103.1
662.825,1101.4
662.957,1090.4
663.088,1090.8