File: spectra/VLFR_01-LDPE_bio_Raman_fa2cb5eb.csv
nm,Intensity
528.637,1835.1
528.806,1837.7
528.974,1835.5
529.143,1835.4
529.311,1837.4
529.48,1836.1
529.648,1837.3
529.816,1837.8
529.985,1835.3
530.153,1836.8
530.322,1837.5
530.49,1839.0
530.659,1836.3
530.827,1838.4
530.995,1838.8
531.164,1839.7
531.332,1841.3
531.5,1848.5
531.669,1903.7
531.837,3061.8
532.006,5974.0
532.174,4940.6
532.342,2104.1
532.511,1843.0
532.679,1839.7
532.847,1837.1
533.016,1838.2
533.184,1842.5
533.352,1846.4
533.521,1916.2
533.689,2341.7
533.857,3095.7
534.025,3584.8
534.194,3700.0
534.362,3660.0
534.53,3628.2
534.699,3667.7
534.867,3658.5
535.035,3636.5
535.203,3572.1
535.372,3524.7
535.54,3514.1
535.708,3438.8
535.876,3360.8
536.045,3331.7
536.213,3295.0
536.381,3272.8
536.549,3240.9
536.717,3229.6
536.886,3206.8
537.054,3181.8
537.222,3167.7
537.39,3177.0
537.558,3222.5
537.726,3177.6
537.895,3178.5
538.063,3156.5
538.231,3152.0
538.399,3145.3
538.567,3162.7
538.735,3157.2
538.903,3143.3
539.072,3168.3
539.24,3137.6
539.408,3145.0
539.576,3161.5
539.744,3160.7
539.912,3168.4
540.08,3174.8
540.248,3172.3
540.416,3145.4
540.584,3150.0
540.752,3179.5
540.92,3196.7
541.088,3170.6
541.256,3147.0
541.425,3184.5
541.593,3185.1
541.761,3172.9
541.929,3194.0
542.097,3222.3
542.265,3215.7
542.433,3206.2
542.601,3203.8
542.769,3245.8
542.937,3217.0
543.104,3230.4
543.272,3234.7
543.44,3224.8
543.608,3272.5
543.776,3269.4
543.944,3259.4
544.112,3275.7
544.28,3282.4
544.448,3272.1
544.616,3262.4
544.784,3268.1
544.952,3290.2
545.12,3285.4
545.288,3300.1
545.455,3325.0
545.623,3317.1
545.791,3341.0
545.959,3362.1
546.127,3368.1
546.295,3330.8
546.463,3349.3
546.63,3402.6
546.798,3372.1
546.966,3394.9
547.134,3381.9
547.302,3448.7
547.47,3394.9
547.637,3385.5
547.805,3390.6
547.973,3428.7
548.141,3461.4
548.308,3451.1
548.476,3421.3
548.644,3463.6
548.812,3456.4
548.98,3467.2
549.147,3468.5
549.315,3424.8
549.483,3447.0
549.65,3459.1
549.818,3482.1
549.986,3447.7
550.154,3466.6
550.321,3445.7
550.489,3478.3
550.657,3516.1
550.824,3512.9
550.992,3520.9
551.16,3579.8
551.327,3541.2
551.495,3568.0
551.663,3569.5
551.83,3537.4
551.998,3570.4
552.166,3572.0
552.333,3585.4
552.501,3566.8
552.668,3573.5
552.836,3566.5
553.004,3580.4
553.171,3605.4
553.339,3561.5
553.506,3576.7
553.674,3572.9
553.842,3641.8
554.009,3624.7
554.177,3624.7
554.344,3658.7
554.512,3687.0
554.679,3685.4
554.847,3678.6
555.014,3690.3
555.182,3619.0
555.349,3666.2
555.517,3666.2
555.684,3688.8
555.852,3719.6
556.019,3733.8
556.187,3707.2
556.354,3684.6
556.522,3765.1
556.689,3707.5
556.857,3737.5
557.024,3732.6
557.192,3764.8
557.359,3777.2
557.526,3803.2
557.694,3799.4
557.861,3796.1
558.029,3804.8
558.196,3806.9
558.363,3860.5
558.531,3824.9
558.698,3838.9
558.866,3837.7
559.033,3826.3
559.2,3867.3
559.368,3860.9
559.535,3847.2
559.702,3907.4
559.87,3876.9
560.037,3917.8
560.204,3921.6
560.372,3842.9
560.539,3936.5
560.706,3895.3
560.873,3888.7
561.041,3921.4
561.208,3917.0
561.375,3893.5
561.543,3879.4
561.71,3900.9
561.877,3905.3
562.044,3961.0
562.211,3995.1
562.379,3942.2
562.546,3917.7
562.713,3933.1
562.88,3958.0
563.048,3966.7
563.215,3997.9
563.382,3954.4
563.549,3927.4
563.716,3946.7
563.883,4049.6
564.051,4046.4
564.218,4030.2
564.385,3949.5
564.552,4021.1
564.719,4006.8
564.886,4008.5
565.053,4027.1
565.221,3969.2
565.388,4027.3
565.555,3997.1
565.722,4050.7
565.889,4049.1
566.056,4020.6
566.223,4069.1
566.39,4032.4
566.557,4018.8
566.724,3987.3
566.891,3997.3
567.058,4021.2
567.225,4034.3
567.392,4011.8
567.559,4027.1
567.726,4034.7
567.893,4061.6
568.06,3985.5
568.227,4072.8
568.394,4093.8
568.561,4075.6
568.728,4082.1
568.895,4106.5
569.062,4105.7
569.229,4116.2
569.396,4114.0
569.563,4140.5
569.73,4134.3
569.897,4159.3
570.064,4174.0
570.231,4203.9
570.398,4178.8
570.564,4161.1
570.731,4174.6
570.898,4138.1
571.065,4169.5
571.232,4281.3
571.399,4285.2
571.566,4322.0
571.732,4296.3
571.899,4251.1
572.066,4281.4
572.233,4230.1
572.4,4276.4
572.566,4314.7
572.733,4249.7
572.9,4250.1
573.067,4204.5
573.234,4266.8
573.4,4160.2
573.567,4168.9
573.734,4217.8
573.901,4149.9
574.067,4109.1
574.234,4133.3
574.401,4189.7
574.568,4175.1
574.734,4200.0
574.901,4224.8
575.068,4170.1
575.234,4221.4
575.401,4240.8
575.568,4249.8
575.734,4329.9
575.901,4320.4
576.068,4384.6
576.234,4405.5
576.401,4416.5
576.568,4461.5
576.734,4417.1
576.901,4406.6
577.067,4392.0
577.234,4319.4
577.401,4310.0
577.567,4219.1
577.734,4200.5
577.9,4150.9
578.067,4164.1
578.233,4176.6
578.4,4170.9
578.567,4166.6
578.733,4184.8
578.9,4181.2
579.066,4169.7
579.233,4189.7
579.399,4238.8
579.566,4185.7
579.732,4256.5
579.899,4201.3
580.065,4243.4
580.231,4304.9
580.398,4306.6
580.564,4263.1
580.731,4273.7
580.897,4266.7
581.064,4229.6
581.23,4266.6
581.397,4354.1
581.563,4280.9
581.729,4314.0
581.896,4327.6
582.062,4367.2
582.228,4325.9
582.395,4341.1
582.561,4344.8
582.728,4384.3
582.894,4401.0
583.06,4440.0
583.227,4542.0
583.393,4491.8
583.559,4549.2
583.726,4594.1
583.892,4471.8
584.058,4502.1
584.224,4431.7
584.391,4446.9
584.557,4380.6
584.723,4450.3
584.889,4428.0
585.056,4413.2
585.222,4410.1
585.388,4332.1
585.554,4329.0
585.721,4377.3
585.887,4328.6
586.053,4400.5
586.219,4393.9
586.385,4455.0
586.552,4410.9
586.718,4464.2
586.884,4440.7
587.05,4495.5
587.216,4429.6
587.382,4556.4
587.549,4512.0
587.715,4500.9
587.881,4572.8
588.047,4557.9
588.213,4551.5
588.379,4586.1
588.545,4623.4
588.711,4600.7
588.877,4554.8
589.043,4585.5
589.209,4612.3
589.375,4659.8
589.542,4568.3
589.708,4619.5
589.874,4700.0
590.04,4680.9
590.206,4689.2
590.372,4729.1
590.538,4792.2
590.704,4727.8
590.87,4791.5
591.036,4780.5
591.201,4853.2
591.367,4792.0
591.533,4893.1
591.699,4895.5
591.865,4945.7
592.031,4953.3
592.197,4963.6
592.363,5013.0
592.529,5000.1
592.695,4974.7
592.861,5056.8
593.027,5047.5
593.192,5046.9
593.358,5161.9
593.524,5069.9
593.69,5114.3
593.856,5196.1
594.022,5187.2
594.187,5250.0
594.353,5248.3
594.519,5312.5
594.685,5255.4
594.851,5324.8
595.016,5423.5
595.182,5401.0
595.348,5418.0
595.514,5446.0
595.679,5432.6
595.845,5545.5
596.011,5665.8
596.177,5646.4
596.342,5708.3
596.508,5710.6
596.674,5766.3
596.84,5833.8
597.005,5854.5
597.171,5875.9
597.337,5894.9
597.502,5940.1
597.668,5988.0
597.833,6021.2
597.999,6131.7
598.165,6072.9
598.33,6093.2
598.496,6167.9
598.662,6327.6
598.827,6281.6
598.993,6249.6
599.158,6351.1
599.324,6370.4
599.489,6437.8
599.655,6452.1
599.821,6558.1
599.986,6625.2
600.152,6607.2
600.317,6617.2
600.483,6607.1
600.648,6728.6
600.814,6679.7
600.979,6716.1
601.145,6797.1
601.31,6847.8
601.476,6897.8
601.641,6882.2
601.807,6874.7
601.972,6867.9
602.137,6863.1
602.303,6954.9
602.468,7019.7
602.634,6992.6
602.799,7010.4
602.964,7073.5
603.13,7045.9
603.295,7046.7
603.461,7107.0
603.626,7062.9
603.791,7074.4
603.957,7098.9
604.122,7140.4
604.287,7041.8
604.453,7183.2
604.618,7060.3
604.783,7114.3
604.949,7222.5
605.114,7075.9
605.279,7189.5
605.444,7162.6
605.61,7165.3
605.775,7188.3
605.94,7159.7
606.105,7156.4
606.271,7149.3
606.436,7192.2
606.601,7159.7
606.766,7323.7
606.931,7266.9
607.097,7296.2
607.262,7237.0
607.427,7196.1
607.592,7165.7
607.757,7246.1
607.922,7192.5
608.088,7172.6
608.253,7188.2
608.418,7129.9
608.583,7221.4
608.748,7178.4
608.913,7194.8
609.078,7175.3
609.243,7128.4
609.408,7199.1
609.573,7166.5
609.738,7018.4
609.903,7182.1
610.068,7116.9
610.233,7184.9
610.399,7041.5
610.564,7180.1
610.729,7134.1
610.894,7079.7
611.058,7052.1
611.223,6973.2
611.388,7019.1
611.553,7138.0
611.718,7070.1
611.883,6995.5
612.048,7054.9
612.213,6937.7
612.378,6940.5
612.543,6973.3
612.708,6921.5
612.873,6825.9
613.038,6873.1
613.202,6949.1
613.367,6745.1
613.532,6829.3
613.697,6849.7
613.862,6787.4
614.027,6805.3
614.192,6802.3
614.356,6761.1
614.521,6704.7
614.686,6803.9
614.851,6588.3
615.016,6621.9
615.18,6636.3
615.345,6648.8
615.51,6560.7
615.675,6607.9
615.839,6602.9
616.004,6569.8
616.169,6541.4
616.333,6417.8
616.498,6400.9
616.663,6461.5
616.827,6364.3
616.992,6444.2
617.157,6377.7
617.321,6401.1
617.486,6470.0
617.651,6352.5
617.815,6230.1
617.98,6319.5
618.145,6211.6
618.309,6258.5
618.474,6250.4
618.638,6281.1
618.803,6180.6
618.968,6150.8
619.132,6137.2
619.297,6204.0
619.461,6242.9
619.626,6062.8
619.79,6064.0
619.955,6170.1
620.119,6104.8
620.284,6129.9
620.448,5985.4
620.613,5938.0
620.777,6044.2
620.942,6016.4
621.106,5999.9
621.271,5963.8
621.435,5824.9
621.599,5946.5
621.764,5867.5
621.928,5919.6
622.093,5915.0
622.257,5825.5
622.421,5840.2
622.586,5847.3
622.75,5810.5
622.915,5765.9
623.079,5743.5
623.243,5705.9
623.408,5766.2
623.572,5622.0
623.736,5581.0
623.9,5699.7
624.065,5719.6
624.229,5724.8
624.393,5575.2
624.558,5540.7
624.722,5582.1
624.886,5504.9
625.05,5556.6
625.215,5453.5
625.379,5535.7
625.543,5493.5
625.707,5415.8
625.871,5586.2
626.036,5452.6
626.2,5443.7
626.364,5425.3
626.528,5497.0
626.692,5558.8
626.856,5712.5
627.02,5919.3
627.185,5889.9
627.349,5973.7
627.513,5911.2
627.677,5909.9
627.841,5963.3
628.005,6000.6
628.169,6125.3
628.333,6222.6
628.497,6251.0
628.661,6284.1
628.825,6055.6
628.989,6010.8
629.153,5993.4
629.317,6072.7
629.481,6037.0
629.645,6025.9
629.809,6071.7
629.973,6054.8
630.137,6205.4
630.301,6102.6
630.465,6127.2
630.629,6180.9
630.793,6120.3
630.957,5901.0
631.121,5779.8
631.285,5706.9
631.449,5663.5
631.612,5599.6
631.776,5462.8
631.94,5458.2
632.104,5322.0
632.268,5384.3
632.432,5357.7
632.596,5168.4
632.759,5135.8
632.923,5164.1
633.087,5055.9
633.251,5056.9
633.414,5053.0
633.578,4990.1
633.742,4866.2
633.906,4872.9
634.069,4898.4
634.233,4754.1
634.397,4795.5
634.561,4787.9
634.724,4823.7
634.888,4731.1
635.052,4819.7
635.215,4780.7
635.379,4732.5
635.543,4709.0
635.706,4794.3
635.87,4799.8
636.034,4640.7
636.197,4709.1
636.361,4685.2
636.524,4588.9
636.688,4591.2
636.852,4560.4
637.015,4595.5
637.179,4548.8
637.342,4576.8
637.506,4598.3
637.669,4566.3
637.833,4505.6
637.996,4592.0
638.16,4509.7
638.323,4585.5
638.487,4547.1
638.65,4537.7
638.814,4541.6
638.977,4413.1
639.141,4546.6
639.304,4504.9
639.468,4497.9
639.631,4466.8
639.794,4447.1
639.958,4478.4
640.121,4442.7
640.285,4405.3
640.448,4388.0
640.611,4404.5
640.775,4431.8
640.938,4364.7
641.101,4473.8
641.265,4466.3
641.428,4500.3
641.591,4412.6
641.755,4405.8
641.918,4397.4
642.081,4374.3
642.244,4463.9
642.408,4396.4
642.571,4350.3
642.734,4385.7
642.897,4412.5
643.061,4383.1
643.224,4374.8
643.387,4388.4
643.55,4400.9
643.713,4456.0
643.876,4395.2
644.04,4373.8
644.203,4407.6
644.366,4436.6
644.529,4367.8
644.692,4361.6
644.855,4473.4
645.018,4398.9
645.181,4486.5
645.345,4405.6
645.508,4333.2
645.671,4417.6
645.834,4405.7
645.997,4336.9
646.16,4356.8
646.323,4349.0
646.486,4373.7
646.649,4330.6
646.812,4357.0
646.975,4290.3
647.138,4332.3
647.301,4339.5
647.464,4302.9
647.627,4285.4
647.79,4301.1
647.953,4331.9
648.115,4332.4
648.278,4275.8
648.441,4264.6
648.604,4201.4
648.767,4321.8
648.93,4266.9
649.093,4241.0
649.256,4150.2
649.418,4253.7
649.581,4251.3
649.744,4246.3
649.907,4225.1
650.07,4240.0
650.233,4188.7
650.395,4250.9
650.558,4304.7
650.721,4239.4
650.884,4199.7
651.046,4243.3
651.209,4250.3
651.372,4168.0
651.534,4254.8
651.697,4226.4
651.86,4185.9
652.023,4248.1
652.185,4219.3
652.348,4212.6
652.511,4168.0
652.673,4161.6
652.836,4197.4
652.998,4153.3
653.161,4178.1
653.324,4075.7
653.486,4030.5
653.649,4123.6
653.811,4163.0
653.974,4217.7
654.137,4147.6
654.299,4087.2
654.462,4012.3
654.624,4145.3
654.787,4078.5
654.949,4100.0
655.112,4059.4
655.274,4031.5
655.437,4104.5
655.599,4038.7
655.761,4036.0
655.924,4080.4
656.086,4003.0
656.249,4007.3
656.411,3977.2
656.574,4004.7
656.736,3974.9
656.898,4064.8
657.061,3953.7
657.223,4027.2
657.385,4039.5
657.548,4006.4
657.71,3968.8
657.872,3999.5
658.035,3903.8
658.197,3874.1
658.359,3904.2
658.522,3913.8
658.684,3867.7
658.846,3977.8
659.008,3833.1
659.171,3856.0
659.333,3825.8
659.495,3782.4
659.657,3821.7
659.82,3747.3
659.982,3811.3
660.144,3816.9
660.306,3825.9
660.468,3789.8
660.63,3757.8
660.793,3766.3
660.955,3823.9
661.036,3811.2