File: spectra/VLFR_06-PET_bio_Raman_07ff2dc8.csv
nm,Intensity
528.626,1863.77
528.795,1863.6
528.963,1863.43
529.132,1863.7
529.3,1863.9
529.469,1863.87
529.637,1863.77
529.806,1864.17
529.974,1863.93
530.143,1863.17
530.311,1863.93
530.48,1865.0
530.648,1864.57
530.816,1864.9
530.985,1866.3
531.153,1868.03
531.322,1868.93
531.49,1876.63
531.658,1912.8
531.827,2440.63
531.995,4363.8
532.164,4550.03
532.332,2322.1
532.5,1871.93
532.669,1867.4
532.837,1867.6
533.006,1867.0
533.174,1869.6
533.342,1879.43
533.511,1972.13
533.679,2572.3
533.847,3699.4
534.016,4394.37
534.184,4539.73
534.352,4325.93
534.521,4089.9
534.689,3921.3
534.857,3754.8
535.025,3590.8
535.194,3463.67
535.362,3364.73
535.53,3196.27
535.699,3098.07
535.867,3019.4
536.035,2944.53
536.203,2879.3
536.372,2834.23
536.54,2826.43
536.708,2807.83
536.876,2786.6
537.044,2787.0
537.213,2772.4
537.381,2784.3
537.549,2791.37
537.717,2791.03
537.885,2797.23
538.054,2796.13
538.222,2811.53
538.39,2806.63
538.558,2806.4
538.726,2808.1
538.894,2830.27
539.063,2827.83
539.231,2851.17
539.399,2858.23
539.567,2893.17
539.735,2902.23
539.903,2913.53
540.071,2915.5
540.239,2859.9
540.408,2837.2
540.576,2836.83
540.744,2820.9
540.912,2842.47
541.08,2816.1
541.248,2847.47
541.416,2816.0
541.584,2823.27
541.752,2826.57
541.92,2849.73
542.088,2866.47
542.256,2859.5
542.424,2859.87
542.592,2880.53
542.76,2891.57
542.928,2886.93
543.096,2881.67
543.264,2902.5
543.432,2892.7
543.6,2892.57
543.768,2913.37
543.936,2925.03
544.104,2910.93
544.272,2909.63
544.44,2911.6
544.608,2916.3
544.776,2933.57
544.944,2944.87
545.112,2940.33
545.28,2899.9
545.448,2952.53
545.616,2954.37
545.784,2933.8
545.951,2943.53
546.119,2973.07
546.287,2963.13
546.455,2970.43
546.623,2982.3
546.791,2994.9
546.959,3023.93
547.127,2994.63
547.294,2999.07
547.462,2997.3
547.63,3021.77
547.798,3031.77
547.966,3020.5
548.134,3051.07
548.301,3029.8
548.469,3022.57
548.637,3039.57
548.805,3063.83
548.972,3084.1
549.14,3066.37
549.308,3068.8
549.476,3056.2
549.644,3059.67
549.811,3087.5
549.979,3084.13
550.147,3075.57
550.315,3120.27
550.482,3297.53
550.65,3408.33
550.818,3312.97
550.985,3110.8
551.153,3147.07
551.321,3141.03
551.488,3118.43
551.656,3170.83
551.824,3207.77
551.991,3187.67
552.159,3155.1
552.327,3169.3
552.494,3177.37
552.662,3301.13
552.83,3263.47
552.997,3251.57
553.165,3170.3
553.333,3196.07
553.5,3219.97
553.668,3238.93
553.835,3225.53
554.003,3203.07
554.171,3229.93
554.338,3238.63
554.506,3258.27
554.673,3235.47
554.841,3295.23
555.008,3286.07
555.176,3280.13
555.343,3316.93
555.511,3422.4
555.679,3444.13
555.846,3447.6
556.014,3427.33
556.181,3441.37
556.349,3452.8
556.516,3455.4
556.684,3445.53
556.851,3482.3
557.018,3492.93
557.186,3569.93
557.353,3701.67
557.521,3846.97
557.688,3756.13
557.856,3622.63
558.023,3544.93
558.191,3508.73
558.358,3552.23
558.525,3540.2
558.693,3519.43
558.86,3514.9
559.028,3486.87
559.195,3419.93
559.362,3443.37
559.53,3458.27
559.697,3418.47
559.864,3440.8
560.032,3418.5
560.199,3430.6
560.366,3429.4
560.534,3466.37
560.701,3469.07
560.868,3453.63
561.036,3491.5
561.203,3485.2
561.37,3498.7
561.538,3553.8
561.705,3547.23
561.872,3567.7
562.039,3537.47
562.207,3646.8
562.374,3680.87
562.541,3576.47
562.708,3587.37
562.876,3596.1
563.043,3631.43
563.21,3613.97
563.377,3594.7
563.545,3549.33
563.712,3586.17
563.879,3594.83
564.046,3564.37
564.213,3612.83
564.38,3597.6
564.548,3638.97
564.715,3659.07
564.882,3767.37
565.049,3797.87
565.216,3779.73
565.383,3888.2
565.551,3895.73
565.718,3976.67
565.885,3985.47
566.052,3891.67
566.219,3873.7
566.386,3742.2
566.553,3713.63
566.72,3703.8
566.887,3696.0
567.054,3740.13
567.221,3737.73
567.388,3758.87
567.555,3869.43
567.722,3857.5
567.889,3814.73
568.057,3764.9
568.224,3799.5
568.391,3782.03
568.558,3756.6
568.725,3735.93
568.892,3807.33
569.058,3746.8
569.225,3792.83
569.392,3839.07
569.559,3892.43
569.726,3851.73
569.893,3849.63
570.06,3888.2
570.227,3934.6
570.394,4041.03
570.561,4123.27
570.728,4259.57
570.895,4333.77
571.062,4450.43
571.229,4493.63
571.395,4518.03
571.562,4412.23
571.729,4278.43
571.896,4217.77
572.063,4209.9
572.23,4091.47
572.397,3976.77
572.563,3996.63
572.73,4001.83
572.897,4011.3
573.064,3943.33
573.231,3979.47
573.397,3963.63
573.564,3941.83
573.731,3973.47
573.898,3993.1
574.064,4008.97
574.231,4024.63
574.398,4009.67
574.565,3976.73
574.731,3950.83
574.898,4026.27
575.065,4044.77
575.232,4061.27
575.398,4120.57
575.565,4024.57
575.732,4016.27
575.898,4043.3
576.065,4052.5
576.232,4128.27
576.398,4111.4
576.565,4145.93
576.732,4194.67
576.898,4053.77
577.065,4080.0
577.232,4052.8
577.398,4050.17
577.565,4053.97
577.731,4047.43
577.898,4086.5
578.065,4015.73
578.231,3966.7
578.398,4031.47
578.564,4065.4
578.731,4080.73
578.897,4035.77
579.064,4025.63
579.23,4056.93
579.397,4121.53
579.563,4064.83
579.73,4097.6
579.896,4088.93
580.063,4132.67
580.229,4165.93
580.396,4162.53
580.562,4166.67
580.729,4189.87
580.895,4208.83
581.062,4190.07
581.228,4222.57
581.395,4288.2
581.561,4471.8
581.728,4771.57
581.894,5426.67
582.06,6347.37
582.227,6246.57
582.393,5135.8
582.56,4451.17
582.726,4266.17
582.892,4141.13
583.059,4196.87
583.225,4136.1
583.391,4140.57
583.558,4118.33
583.724,4191.67
583.89,4157.07
584.057,4176.7
584.223,4180.83
584.389,4146.43
584.556,4187.37
584.722,4235.37
584.888,4221.17
585.054,4186.33
585.221,4272.17
585.387,4382.3
585.553,4743.6
585.719,5175.6
585.886,5303.07
586.052,5365.47
586.218,5227.6
586.384,4964.6
586.55,4660.73
586.717,4388.07
586.883,4286.4
587.049,4288.43
587.215,4174.8
587.381,4229.17
587.548,4185.0
587.714,4217.67
587.88,4187.9
588.046,4214.2
588.212,4185.73
588.378,4166.53
588.544,4207.73
588.71,4180.43
588.876,4159.7
589.043,4181.4
589.209,4177.77
589.375,4151.83
589.541,4168.07
589.707,4125.53
589.873,4123.8
590.039,4113.47
590.205,4165.83
590.371,4195.87
590.537,4129.03
590.703,4146.2
590.869,4122.37
591.035,4191.37
591.201,4180.23
591.367,4160.73
591.533,4194.1
591.699,4175.93
591.865,4202.43
592.031,4194.17
592.197,4213.47
592.363,4203.8
592.529,4172.97
592.694,4186.07
592.86,4205.13
593.026,4202.33
593.192,4136.5
593.358,4165.23
593.524,4202.5
593.69,4173.3
593.856,4099.83
594.021,4197.83
594.187,4123.9
594.353,4129.77
594.519,4229.3
594.685,4179.67
594.851,4151.73
595.016,4216.4
595.182,4197.17
595.348,4193.17
595.514,4224.5
595.68,4200.63
595.845,4199.3
596.011,4202.0
596.177,4212.53
596.342,4178.17
596.508,4197.57
596.674,4253.57
596.84,4254.37
597.005,4191.3
597.171,4141.4
597.337,4180.9
597.502,4274.0
597.668,4172.7
597.834,4206.67
597.999,4161.5
598.165,4200.13
598.331,4202.43
598.496,4258.1
598.662,4199.37
598.828,4160.63
598.993,4224.27
599.159,4267.17
599.324,4227.77
599.49,4179.5
599.656,4199.87
599.821,4208.47
599.987,4212.77
600.152,4263.03
600.318,4264.07
600.483,4256.83
600.649,4182.13
600.814,4177.77
600.98,4278.5
601.145,4248.17
601.311,4268.0
601.476,4186.87
601.642,4243.9
601.807,4182.3
601.973,4287.07
602.138,4277.83
602.304,4206.1
602.469,4170.17
602.635,4235.8
602.8,4243.13
602.965,4234.07
603.131,4244.8
603.296,4221.47
603.462,4237.67
603.627,4233.47
603.792,4245.27
603.958,4278.53
604.123,4227.07
604.288,4198.1
604.454,4240.4
604.619,4250.53
604.784,4156.0
604.95,4275.6
605.115,4251.1
605.28,4197.83
605.446,4240.83
605.611,4228.07
605.776,4242.1
605.941,4250.2
606.107,4199.13
606.272,4249.37
606.437,4241.47
606.602,4260.57
606.767,4241.7
606.933,4278.23
607.098,4221.07
607.263,4226.27
607.428,4207.17
607.593,4263.1
607.759,4200.57
607.924,4207.33
608.089,4194.63
608.254,4278.67
608.419,4214.57
608.584,4266.03
608.749,4244.73
608.915,4216.77
609.08,4225.33
609.245,4244.97
609.41,4264.43
609.575,4229.97
609.74,4226.07
609.905,4248.8
610.07,4230.87
610.235,4234.6
610.4,4250.4
610.565,4212.47
610.73,4269.23
610.895,4218.6
611.06,4259.6
611.225,4279.77
611.39,4197.03
611.555,4232.53
611.72,4237.37
611.885,4250.4
612.05,4250.13
612.215,4243.4
612.38,4197.6
612.545,4278.3
612.71,4282.9
612.875,4218.3
613.04,4234.37
613.204,4239.33
613.369,4244.0
613.534,4281.23
613.699,4223.23
613.864,4248.67
614.029,4226.27
614.194,4288.07
614.358,4253.33
614.523,4246.4
614.688,4217.17
614.853,4219.4
615.018,4205.67
615.182,4237.33
615.347,4304.4
615.512,4247.17
615.677,4240.53
615.841,4242.87
616.006,4265.03
616.171,4238.73
616.336,4195.97
616.5,4235.93
616.665,4278.9
616.83,4219.3
616.994,4229.73
617.159,4219.83
617.324,4196.07
617.489,4306.63
617.653,4214.17
617.818,4308.67
617.982,4242.9
618.147,4220.07
618.312,4286.57
618.476,4297.3
618.641,4271.0
618.805,4266.0
618.97,4250.23
619.135,4297.0
619.299,4254.57
619.464,4262.4
619.628,4225.73
619.793,4246.97
619.957,4277.5
620.122,4224.63
620.286,4286.13
620.451,4310.57
620.615,4280.7
620.78,4224.87
620.944,4239.87
621.109,4272.77
621.273,4197.9
621.438,4261.53
621.602,4245.77
621.767,4216.5
621.931,4249.23
622.095,4244.1
622.26,4312.23
622.424,4228.57
622.589,4271.73
622.753,4239.17
622.917,4310.07
623.082,4194.17
623.246,4311.07
623.41,4270.83
623.575,4259.87
623.739,4216.2
623.903,4263.4
624.068,4308.07
624.232,4215.3
624.396,4264.13
624.561,4320.07
624.725,4314.27
624.889,4305.6
625.053,4258.77
625.218,4238.27
625.382,4224.53
625.546,4266.37
625.71,4179.33
625.875,4237.87
626.039,4310.47
626.203,4261.43
626.367,4269.97
626.531,4237.9
626.695,4253.77
626.86,4199.0
627.024,4256.03
627.188,4256.17
627.352,4250.73
627.516,4257.0
627.68,4237.87
627.844,4325.3
628.008,4291.27
628.172,4280.03
628.337,4245.57
628.501,4247.37
628.665,4311.57
628.829,4317.87
628.993,4309.07
629.157,4333.6
629.321,4388.27
629.485,4242.53
629.649,4280.23
629.813,4324.7
629.977,4328.4
630.141,4278.07
630.305,4284.7
630.469,4243.5
630.633,4362.87
630.797,4320.37
630.96,4375.4
631.124,4468.17
631.288,4494.1
631.452,4510.57
631.616,4595.0
631.78,4566.4
631.944,4577.77
632.108,4521.2
632.272,4493.27
632.435,4520.47
632.599,4414.33
632.763,4486.0
632.927,4404.0
633.091,4393.53
633.254,4365.0
633.418,4427.17
633.582,4412.7
633.746,4406.37
633.91,4354.17
634.073,4311.03
634.237,4315.1
634.401,4351.37
634.564,4340.5
634.728,4281.97
634.892,4311.6
635.056,4380.8
635.219,4284.37
635.383,4324.93
635.547,4317.67
635.71,4363.9
635.874,4404.5
636.038,4452.07
636.201,4550.83
636.365,4581.13
636.528,4638.5
636.692,4546.0
636.856,4494.57
637.019,4437.8
637.183,4342.73
637.346,4302.37
637.51,4329.07
637.673,4329.97
637.837,4286.47
638.0,4265.67
638.164,4282.97
638.327,4269.43
638.491,4276.7
638.654,4223.93
638.818,4239.7
638.981,4220.63
639.145,4304.23
639.308,4256.53
639.472,4264.9
639.635,4210.37
639.799,4203.0
639.962,4224.17
640.125,4281.97
640.289,4164.0
640.452,4198.63
640.616,4194.63
640.779,4219.47
640.942,4167.87
641.106,4229.27
641.269,4254.67
641.432,4194.67
641.596,4219.03
641.759,4125.4
641.922,4148.7
642.085,4172.87
642.249,4188.47
642.412,4216.37
642.575,4213.33
642.738,4239.3
642.902,4130.63
643.065,4142.97
643.228,4193.47
643.391,4129.3
643.555,4094.43
643.718,4192.03
643.881,4185.9
644.044,4197.23
644.207,4150.77
644.37,4118.67
644.534,4058.37
644.697,4125.5
644.86,4103.57
645.023,4107.17
645.186,4188.57
645.349,4131.6
645.512,4142.13
645.675,4141.9
645.838,4094.9
646.001,4091.3
646.164,4112.77
646.327,4102.9
646.49,4131.67
646.653,4088.2
646.816,4087.17
646.979,4053.73
647.142,4055.13
647.305,4114.53
647.468,4103.3
647.631,4027.1
647.794,4077.5
647.957,4064.13
648.12,4081.17
648.283,4008.2
648.446,4029.83
648.609,4042.8
648.772,4004.4
648.935,4050.07
649.098,3951.37
649.26,3983.53
649.423,4045.63
649.586,3946.4
649.749,3930.7
649.912,4052.17
650.075,3911.7
650.237,3987.7
650.4,3947.57
650.563,4027.23
650.726,3930.53
650.888,3963.33
651.051,3986.1
651.214,3976.6
651.377,3887.3
651.539,3930.03
651.702,3923.07
651.865,3868.7
652.027,3881.07
652.19,3902.43
652.353,3905.33
652.515,3829.5
652.678,3894.63
652.841,3850.63
653.003,3853.87
653.166,3765.27
653.329,3874.8
653.491,3832.17
653.654,3829.07
653.816,3818.27
653.979,3767.43
654.142,3837.37
654.304,3816.47
654.467,3757.7
654.629,3714.97
654.792,3763.83
654.954,3789.73
655.117,3812.17
655.279,3759.5
655.442,3767.57
655.604,3716.47
655.767,3743.5
655.929,3760.1
656.091,3710.57
656.254,3721.0
656.416,3696.3
656.579,3756.2
656.741,3673.93
656.904,3724.27
657.066,3690.7
657.228,3620.2
657.391,3683.77
657.553,3646.0
657.715,3661.47
657.878,3619.03
658.04,3602.33
658.202,3578.8
658.365,3628.0
658.527,3585.63
658.689,3585.27
658.851,3617.17
659.014,3623.4
659.176,3565.03
659.338,3541.0
659.5,3576.6
659.663,3566.5
659.825,3519.8
659.987,3545.5
660.149,3507.77
660.311,3509.47
660.474,3497.43
660.636,3540.2
660.798,3512.3
660.96,3531.63
661.041,3542.63