File: spectra/VLFR_01-LDPE_nobio_Raman_c0c6453c.csv
nm,Intensity
526.486,830.7
526.622,830.4
526.759,829.8
526.896,831.1
527.033,830.7
527.169,830.9
527.306,829.7
527.443,830.7
527.579,830.8
527.716,829.3
527.853,829.6
527.989,831.8
528.126,829.8
528.263,829.5
528.399,830.2
528.536,830.9
528.672,829.6
528.809,830.2
528.946,829.9
529.082,830.7
529.219,829.5
529.355,830.8
529.492,829.7
529.628,830.7
529.765,829.9
529.901,830.1
530.038,829.9
530.174,831.1
530.311,828.9
530.447,830.9
530.584,830.5
530.72,829.2
530.857,830.8
530.993,831.5
531.13,830.7
531.266,830.0
531.403,830.8
531.539,830.8
531.676,830.8
531.812,830.4
531.948,832.4
532.085,857.7
532.221,884.9
532.358,843.9
532.494,829.8
532.63,829.4
532.767,830.4
532.903,829.8
533.039,830.4
533.176,830.3
533.312,830.5
533.448,831.1
533.585,829.7
533.721,832.3
533.857,838.5
533.993,850.1
534.13,858.2
534.266,857.3
534.402,854.4
534.539,853.6
534.675,855.4
534.811,853.3
534.947,852.2
535.083,854.5
535.22,852.9
535.356,850.1
535.492,850.2
535.628,848.8
535.764,847.0
535.901,845.6
536.037,847.5
536.173,846.8
536.309,845.5
536.445,846.7
536.581,843.8
536.717,845.3
536.854,847.0
536.99,842.7
537.126,843.8
537.262,845.0
537.398,842.9
537.534,845.0
537.67,844.2
537.806,843.4
537.942,843.0
538.078,843.1
538.214,844.5
538.35,843.4
538.486,842.3
538.622,842.5
538.758,844.3
538.894,842.5
539.03,841.5
539.166,840.7
539.302,842.7
539.438,840.7
539.574,842.3
539.71,840.4
539.846,841.9
539.982,839.7
540.118,841.3
540.254,842.3
540.39,841.8
540.526,840.7
540.662,841.6
540.798,841.9
540.933,841.3
541.069,841.5
541.205,842.6
541.341,841.8
541.477,839.8
541.613,841.1
541.749,839.2
541.884,841.7
542.02,844.1
542.156,841.0
542.292,842.1
542.428,840.8
542.563,840.8
542.699,841.7
542.835,842.3
542.971,839.7
543.106,840.0
543.242,841.8
543.378,841.2
543.514,842.3
543.649,842.8
543.785,841.3
543.921,841.0
544.057,842.0
544.192,839.9
544.328,842.8
544.464,841.0
544.599,840.9
544.735,838.8
544.871,842.0
545.006,840.5
545.142,840.3
545.278,841.2
545.413,841.3
545.549,842.3
545.684,840.6
545.82,840.6
545.956,843.1
546.091,841.6
546.227,843.3
546.362,842.1
546.498,842.1
546.634,841.5
546.769,841.2
546.905,840.1
547.04,841.7
547.176,840.9
547.311,841.9
547.447,842.0
547.582,843.2
547.718,839.9
547.853,840.7
547.989,841.4
548.124,843.3
548.26,841.3
548.395,840.4
548.531,842.2
548.666,842.6
548.802,840.8
548.937,841.9
549.072,842.3
549.208,843.3
549.343,840.8
549.479,844.2
549.614,841.1
549.75,842.4
549.885,843.2
550.02,841.2
550.156,841.5
550.291,841.5
550.426,841.1
550.562,841.9
550.697,842.4
550.832,842.3
550.968,840.0
551.103,841.2
551.238,843.3
551.374,843.4
551.509,844.1
551.644,842.9
551.78,843.6
551.915,845.5
552.05,844.5
552.185,843.4
552.321,843.2
552.456,841.8
552.591,844.4
552.726,843.5
552.862,844.0
552.997,843.0
553.132,842.3
553.267,844.9
553.403,845.0
553.538,844.1
553.673,845.0
553.808,846.1
553.943,844.1
554.078,845.4
554.214,842.8
554.349,846.3
554.484,842.1
554.619,844.6
554.754,845.8
554.889,845.5
555.024,844.3
555.16,844.5
555.295,846.5
555.43,843.2
555.565,845.9
555.7,846.2
555.835,842.9
555.97,844.8
556.105,844.8
556.24,844.7
556.375,845.6
556.51,847.0
556.645,845.5
556.78,848.3
556.915,846.5
557.05,848.4
557.185,848.7
557.32,847.3
557.455,844.9
557.59,845.5
557.725,848.3
557.86,847.8
557.995,848.0
558.13,848.9
558.265,847.8
558.4,848.2
558.535,847.9
558.67,849.6
558.805,848.3
558.94,846.5
559.075,846.1
559.21,848.6
559.345,847.7
559.479,847.5
559.614,847.4
559.749,848.9
559.884,847.7
560.019,845.9
560.154,846.6
560.289,847.2
560.424,845.7
560.558,847.5
560.693,848.5
560.828,846.9
560.963,847.8
561.098,848.8
561.232,848.9
561.367,846.3
561.502,849.8
561.637,849.4
561.772,849.4
561.906,848.2
562.041,848.2
562.176,848.9
562.311,850.3
562.445,850.0
562.58,847.6
562.715,849.3
562.85,849.8
562.984,851.9
563.119,850.3
563.254,850.0
563.388,849.7
563.523,853.9
563.658,853.9
563.792,858.7
563.927,878.0
564.062,906.5
564.196,893.8
564.331,865.3
564.466,860.6
564.6,860.7
564.735,860.1
564.87,857.8
565.004,857.2
565.139,854.6
565.273,856.1
565.408,855.0
565.543,855.1
565.677,858.9
565.812,862.0
565.946,869.2
566.081,903.6
566.215,951.1
566.35,921.0
566.485,869.2
566.619,858.9
566.754,852.6
566.888,852.9
567.023,850.8
567.157,854.6
567.292,852.8
567.426,856.3
567.561,858.1
567.695,855.6
567.83,853.6
567.964,851.4
568.099,853.2
568.233,852.8
568.368,852.2
568.502,852.1
568.636,854.8
568.771,852.1
568.905,854.5
569.04,852.6
569.174,851.8
569.309,854.5
569.443,853.4
569.577,854.3
569.712,854.1
569.846,852.3
569.98,853.0
570.115,852.3
570.249,854.5
570.384,857.0
570.518,856.9
570.652,856.8
570.787,858.0
570.921,858.4
571.055,859.0
571.19,858.5
571.324,865.2
571.458,900.5
571.592,955.7
571.727,910.6
571.861,874.8
571.995,865.3
572.13,864.7
572.264,860.4
572.398,860.5
572.532,859.2
572.667,856.1
572.801,854.9
572.935,857.0
573.069,857.0
573.204,855.9
573.338,860.6
573.472,856.0
573.606,858.6
573.74,861.6
573.875,860.8
574.009,866.0
574.143,863.5
574.277,861.7
574.411,859.4
574.545,858.6
574.68,859.8
574.814,860.8
574.948,860.3
575.082,863.6
575.216,861.9
575.35,869.4
575.484,900.7
575.619,921.0
575.753,894.7
575.887,881.1
576.021,886.8
576.155,895.0
576.289,906.9
576.423,905.8
576.557,903.0
576.691,895.6
576.825,892.7
576.959,893.5
577.093,893.8
577.227,887.9
577.361,884.8
577.495,876.7
577.629,869.7
577.763,869.7
577.897,869.4
578.031,868.9
578.165,868.3
578.299,869.5
578.433,868.1
578.567,868.1
578.701,867.6
578.835,869.4
578.969,870.5
579.103,869.0
579.237,867.9
579.371,871.0
579.505,872.3
579.639,868.8
579.773,873.4
579.907,870.4
580.041,871.8
580.175,870.7
580.309,874.1
580.442,871.4
580.576,871.6
580.71,874.2
580.844,870.9
580.978,875.4
581.112,874.4
581.246,876.2
581.38,875.2
581.513,878.2
581.647,875.3
581.781,877.0
581.915,878.2
582.049,877.4
582.183,875.3
582.316,876.8
582.45,880.3
582.584,878.1
582.718,877.9
582.852,878.7
582.985,881.9
583.119,879.2
583.253,882.8
583.387,883.0
583.52,883.9
583.654,885.1
583.788,886.1
583.922,887.9
584.055,885.0
584.189,886.5
584.323,886.4
584.456,886.4
584.59,891.1
584.724,889.1
584.858,889.3
584.991,892.1
585.125,895.0
585.259,891.9
585.392,890.3
585.526,894.1
585.66,893.6
585.793,893.2
585.927,898.1
586.061,897.2
586.194,899.2
586.328,899.0
586.462,899.6
586.595,897.0
586.729,902.2
586.862,896.5
586.996,899.6
587.13,901.1
587.263,900.4
587.397,903.6
587.53,905.3
587.664,901.2
587.797,906.5
587.931,907.8
588.065,908.1
588.198,910.1
588.332,909.2
588.465,908.4
588.599,908.9
588.732,913.4
588.866,907.3
588.999,910.0
589.133,911.1
589.266,913.0
589.4,915.9
589.533,913.0
589.667,917.1
589.8,915.5
589.934,915.4
590.067,918.4
590.201,916.0
590.334,919.0
590.468,922.2
590.601,922.2
590.735,924.0
590.868,921.4
591.001,926.6
591.135,924.8
591.268,929.9
591.402,929.2
591.535,929.5
591.669,937.0
591.802,928.9
591.935,932.7
592.069,934.2
592.202,926.9
592.335,935.0
592.469,935.2
592.602,939.8
592.736,936.2
592.869,939.1
593.002,939.1
593.136,940.2
593.269,941.2
593.402,941.4
593.536,942.9
593.669,944.5
593.802,946.1
593.936,943.8
594.069,950.4
594.202,945.8
594.336,950.4
594.469,948.5
594.602,951.6
594.735,951.5
594.869,955.5
595.002,952.0
595.135,952.3
595.268,957.4
595.402,954.5
595.535,958.0
595.668,963.1
595.801,962.6
595.935,960.7
596.068,962.4
596.201,962.5
596.334,963.7
596.468,967.9
596.601,961.6
596.734,969.0
596.867,969.7
597.0,965.1
597.133,968.4
597.267,970.2
597.4,973.7
597.533,965.2
597.666,974.4
597.799,971.5
597.932,974.7
598.066,973.6
598.199,974.3
598.332,975.3
598.465,973.1
598.598,978.9
598.731,981.8
598.864,980.5
598.998,987.5
599.131,979.1
599.264,979.8
599.397,980.3
599.53,987.0
599.663,980.8
599.796,986.8
599.929,982.1
600.062,981.8
600.195,982.9
600.328,984.2
600.461,983.7
600.594,981.2
600.727,984.8
600.86,982.7
600.994,983.9
601.127,987.9
601.26,986.3
601.393,988.2
601.526,982.3
601.659,987.7
601.792,981.8
601.925,985.1
602.058,985.8
602.191,987.2
602.324,987.0
602.457,985.3
602.589,985.5
602.722,984.3
602.855,984.7
602.988,983.2
603.121,982.8
603.254,984.1
603.387,983.3
603.52,978.3
603.653,980.2
603.786,978.8
603.919,982.0
604.052,980.5
604.185,975.7
604.318,975.9
604.451,978.6
604.583,975.4
604.716,973.3
604.849,972.6
604.982,967.8
605.115,971.8
605.248,968.1
605.381,971.6
605.514,964.4
605.646,962.6
605.779,962.2
605.912,964.3
606.045,960.6
606.178,965.6
606.311,963.4
606.443,957.5
606.576,959.4
606.709,957.4
606.842,960.9
606.975,957.7
607.107,957.1
607.24,956.0
607.373,952.6
607.506,954.1
607.639,951.4
607.771,946.8
607.904,954.0
608.037,952.0
608.17,954.6
608.302,950.8
608.435,950.4
608.568,949.3
608.701,950.8
608.833,949.1
608.966,948.7
609.099,950.3
609.232,942.5
609.364,946.9
609.497,947.1
609.63,940.6
609.762,944.0
609.895,946.5
610.028,946.7
610.161,942.2
610.293,941.1
610.426,937.8
610.559,944.4
610.691,941.4
610.824,942.5
610.957,943.4
611.089,942.3
611.222,937.7
611.355,939.1
611.487,941.3
611.62,941.9
611.752,937.6
611.885,933.6
612.018,934.2
612.15,934.6
612.283,934.0
612.416,933.0
612.548,936.4
612.681,933.6
612.813,933.9
612.946,934.8
613.078,935.6
613.211,933.4
613.344,935.0
613.476,938.7
613.609,930.6
613.741,935.5
613.874,932.2
614.006,932.7
614.139,932.2
614.272,933.7
614.404,934.5
614.537,931.9
614.669,933.4
614.802,930.7
614.934,932.6
615.067,929.9
615.199,931.9
615.332,931.6
615.464,926.1
615.597,928.3
615.729,927.5
615.862,929.8
615.994,926.7
616.127,925.6
616.259,930.5
616.392,928.0
616.524,926.6
616.657,927.6
616.789,926.3
616.922,926.2
617.054,931.0
617.186,926.7
617.319,928.2
617.451,927.3
617.584,929.4
617.716,925.4
617.849,924.5
617.981,923.0
618.113,927.6
618.246,926.3
618.378,925.3
618.511,924.1
618.643,924.2
618.775,924.3
618.908,921.5
619.04,923.9
619.173,922.1
619.305,923.9
619.437,922.9
619.57,920.9
619.702,922.5
619.834,921.6
619.967,921.1
620.099,922.3
620.231,919.7
620.364,919.5
620.496,920.4
620.628,917.2
620.761,919.7
620.893,919.2
621.025,925.6
621.158,921.1
621.29,922.5
621.422,922.9
621.555,924.6
621.687,925.4
621.819,929.1
621.952,931.3
622.084,929.4
622.216,933.7
622.348,936.4
622.481,932.9
622.613,933.1
622.745,927.7
622.878,924.7
623.01,922.2
623.142,921.6
623.274,916.0
623.407,914.7
623.539,916.8
623.671,915.8
623.803,913.6
623.935,912.5
624.068,915.2
624.2,910.0
624.332,910.2
624.464,912.6
624.597,913.5
624.729,912.2
624.861,911.3
624.993,913.7
625.125,912.3
625.258,912.6
625.39,916.3
625.522,914.1
625.654,917.1
625.786,910.3
625.918,913.5
626.051,915.5
626.183,918.5
626.315,923.4
626.447,930.1
626.579,941.7
626.711,968.2
626.844,1011.9
626.976,1067.4
627.108,1161.1
627.24,1212.3
627.372,1205.3
627.504,1161.5
627.636,1123.8
627.768,1092.9
627.901,1074.5
628.033,1064.9
628.165,1064.2
628.297,1081.1
628.429,1134.6
628.561,1238.8
628.693,1244.3
628.825,1146.0
628.957,1105.7
629.089,1090.2
629.221,1078.4
629.354,1069.0
629.486,1059.0
629.618,1040.8
629.75,1024.5
629.882,1015.7
630.014,1011.1
630.146,1002.6
630.278,1004.3
630.41,999.8
630.542,996.4
630.674,988.5
630.806,981.2
630.938,963.5
631.07,948.4
631.202,931.1
631.334,921.7
631.466,915.5
631.598,915.9
631.73,909.7
631.862,912.1
631.994,907.1
632.126,906.7
632.258,905.4
632.39,903.7
632.522,902.4
632.654,900.5
632.786,904.7
632.918,903.3
633.05,902.4
633.182,899.4
633.314,899.7
633.446,900.5
633.578,898.0
633.71,897.6
633.842,900.9
633.974,898.7
634.106,898.2
634.237,895.3
634.369,896.2
634.501,896.7
634.633,896.1
634.765,897.7
634.897,897.4
635.029,898.1
635.161,894.5
635.293,894.3
635.425,896.9
635.557,896.2
635.689,895.4
635.82,895.8
635.952,893.2
636.084,897.4
636.216,897.2
636.348,893.3
636.48,896.4
636.612,897.0
636.744,896.0
636.875,895.4
637.007,899.5
637.139,896.9
637.271,895.9
637.403,894.9
637.535,895.8
637.667,894.4
637.798,898.3
637.93,894.2
638.062,894.7
638.194,898.0
638.326,896.6
638.458,895.2
638.589,896.0
638.721,897.3
638.853,893.3
638.985,896.8
639.117,894.3
639.248,899.9
639.38,900.8
639.512,895.6
639.644,897.3
639.776,897.4
639.907,901.3
640.039,896.0
640.171,896.8
640.303,894.6
640.435,900.7
640.566,896.9
640.698,899.1
640.83,895.0
640.962,900.2
641.093,897.1
641.225,899.2
641.357,895.5
641.489,902.6
641.62,897.5
641.752,898.7
641.884,900.0
642.016,896.7
642.147,900.9
642.279,899.6
642.411,897.0
642.543,899.2
642.674,901.1
642.806,897.3
642.938,902.3
643.069,898.6
643.201,898.0
643.333,902.1
643.465,902.2
643.596,900.4
643.728,900.1
643.86,895.9
643.991,898.0
644.123,899.9
644.255,899.4
644.386,899.9
644.518,898.6
644.65,899.1
644.781,902.2
644.913,901.7
645.045,899.5
645.176,902.5
645.308,900.0
645.44,904.2
645.571,900.8
645.703,900.6
645.835,899.8
645.966,902.1
646.098,897.8
646.23,901.3
646.361,902.1
646.493,903.6
646.625,903.9
646.756,903.5
646.888,905.0
647.019,903.7
647.151,904.6
647.283,905.7
647.414,907.7
647.546,901.7
647.678,904.9
647.809,904.1
647.941,901.8
648.072,907.0
648.204,904.8
648.336,908.9
648.467,903.6
648.599,902.2
648.73,905.9
648.862,902.2
648.993,905.6
649.125,906.1
649.257,905.6
649.388,901.7
649.52,902.4
649.651,904.6
649.783,905.6
649.914,906.2
650.046,907.1
650.178,904.4
650.309,909.1
650.441,906.2
650.572,908.0
650.704,906.1
650.835,905.5
650.967,910.6
651.098,902.9
651.23,904.9
651.361,905.9
651.493,907.1
651.625,907.5
651.756,903.1
651.888,902.2
652.019,906.3
652.151,909.3
652.282,906.1
652.414,908.0
652.545,907.6
652.677,905.8
652.808,904.2
652.94,907.2
653.071,908.0
653.203,908.8
653.334,908.3
653.466,909.6
653.597,908.3
653.729,911.1
653.86,908.2
653.992,907.5
654.123,905.8
654.255,908.0
654.386,905.6
654.518,904.2
654.649,906.9
654.78,905.2
654.912,906.5
655.043,905.6
655.175,905.6
655.306,906.9
655.438,904.7
655.569,908.2
655.701,907.4
655.832,909.1
655.964,902.5
656.095,903.4
656.226,904.2
656.358,906.1
656.489,902.3
656.621,901.2
656.752,904.2
656.884,902.7
657.015,904.4
657.146,902.0
657.278,901.8
657.409,903.6
657.541,904.0
657.672,903.5
657.804,904.4
657.935,902.3
658.066,906.1
658.198,901.3
658.329,900.1
658.461,902.9
658.592,900.5
658.723,900.1
658.855,898.4
658.986,903.9
659.118,901.9
659.249,898.9
659.38,899.4
659.512,900.2
659.643,900.9
659.774,899.9
659.906,900.2
660.037,897.9
660.169,902.7
660.3,898.9
660.431,895.9
660.563,897.0
660.694,897.0
660.825,896.4
660.957,896.4
661.088,896.4
661.22,895.9
661.351,894.0
661.482,891.0
661.614,894.4
661.745,898.2
661.876,893.4
662.008,888.0
662.139,895.3
662.27,891.4
662.402,891.4
662.533,888.9
662.664,889.6
662.796,891.6
662.927,890.4
663.058,889.7