File: spectra/VLFR_01-LDPE_bio_Raman_dbd5b781.csv
nm,Intensity
526.547,832.0
526.684,833.1
526.821,832.7
526.958,833.15
527.095,832.3
527.232,831.0
527.368,833.5
527.505,832.9
527.642,832.75
527.779,832.3
527.916,832.7
528.052,832.35
528.189,831.95
528.326,832.75
528.463,832.0
528.599,831.3
528.736,831.6
528.873,831.9
529.009,833.1
529.146,832.9
529.283,832.15
529.419,831.8
529.556,832.3
529.693,832.9
529.829,832.45
529.966,832.05
530.103,833.0
530.239,832.15
530.376,831.85
530.512,832.7
530.649,831.95
530.785,832.05
530.922,832.65
531.059,833.05
531.195,832.55
531.332,831.8
531.468,832.1
531.605,832.75
531.741,832.6
531.878,832.9
532.014,843.05
532.151,885.55
532.287,873.7
532.423,839.8
532.56,832.8
532.696,832.0
532.833,831.85
532.969,831.7
533.106,833.0
533.242,832.95
533.378,832.5
533.515,832.05
533.651,832.3
533.787,834.75
533.924,844.35
534.06,853.45
534.196,855.25
534.333,856.85
534.469,854.0
534.605,854.45
534.742,854.9
534.878,852.5
535.014,851.85
535.15,852.35
535.287,852.2
535.423,852.05
535.559,850.9
535.695,850.85
535.832,851.1
535.968,851.75
536.104,850.75
536.24,850.55
536.376,850.7
536.513,852.1
536.649,849.1
536.785,851.4
536.921,850.6
537.057,850.8
537.193,851.75
537.329,851.2
537.465,851.9
537.602,852.15
537.738,850.5
537.874,851.7
538.01,852.45
538.146,850.55
538.282,850.15
538.418,850.8
538.554,850.25
538.69,850.15
538.826,852.65
538.962,852.45
539.098,851.45
539.234,852.2
539.37,851.7
539.506,850.55
539.642,851.35
539.778,850.9
539.914,851.25
540.05,849.65
540.186,849.75
540.322,851.9
540.458,850.65
540.594,850.7
540.729,851.05
540.865,851.65
541.001,851.35
541.137,850.65
541.273,851.8
541.409,851.5
541.545,851.9
541.68,851.1
541.816,852.0
541.952,852.45
542.088,852.3
542.224,851.8
542.36,852.05
542.495,851.95
542.631,851.3
542.767,852.35
542.903,850.3
543.038,850.05
543.174,850.0
543.31,852.3
543.446,849.25
543.581,850.3
543.717,849.75
543.853,851.15
543.988,850.25
544.124,851.4
544.26,850.8
544.395,848.9
544.531,851.4
544.667,849.85
544.802,850.5
544.938,849.95
545.074,851.4
545.209,849.55
545.345,850.2
545.481,848.9
545.616,850.55
545.752,850.15
545.887,850.05
546.023,850.5
546.158,850.15
546.294,851.5
546.43,850.6
546.565,850.6
546.701,852.3
546.836,851.25
546.972,849.1
547.107,850.05
547.243,849.65
547.378,851.3
547.514,848.9
547.649,852.35
547.785,850.65
547.92,850.65
548.056,849.95
548.191,850.45
548.326,851.05
548.462,851.0
548.597,850.5
548.733,850.75
548.868,850.4
549.004,852.25
549.139,851.65
549.274,851.25
549.41,850.45
549.545,851.2
549.68,850.95
549.816,852.2
549.951,850.2
550.086,849.85
550.222,849.85
550.357,850.8
550.492,850.8
550.628,851.6
550.763,848.85
550.898,849.8
551.034,851.9
551.169,851.75
551.304,850.65
551.439,850.2
551.575,851.1
551.71,851.25
551.845,850.65
551.98,851.25
552.116,850.95
552.251,853.05
552.386,852.25
552.521,849.65
552.656,850.45
552.792,850.85
552.927,849.85
553.062,850.85
553.197,851.4
553.332,852.6
553.467,852.85
553.603,851.45
553.738,853.4
553.873,852.3
554.008,852.7
554.143,852.1
554.278,854.2
554.413,852.9
554.548,852.15
554.683,853.85
554.819,852.05
554.954,853.0
555.089,853.75
555.224,852.7
555.359,853.55
555.494,852.65
555.629,850.9
555.764,853.8
555.899,853.55
556.034,853.25
556.169,852.0
556.304,854.35
556.439,855.0
556.574,852.8
556.709,853.5
556.844,854.5
556.979,853.5
557.114,853.55
557.249,852.2
557.384,854.0
557.519,853.1
557.653,853.85
557.788,854.15
557.923,854.2
558.058,856.1
558.193,856.1
558.328,853.55
558.463,855.05
558.598,854.6
558.733,854.0
558.867,854.4
559.002,853.5
559.137,855.45
559.272,853.0
559.407,854.95
559.542,854.35
559.677,853.45
559.811,853.15
559.946,853.65
560.081,853.65
560.216,855.6
560.351,852.45
560.485,854.05
560.62,854.75
560.755,854.35
560.89,856.0
561.024,855.4
561.159,855.6
561.294,855.0
561.429,854.25
561.563,855.55
561.698,854.25
561.833,854.75
561.967,855.05
562.102,854.5
562.237,853.75
562.371,856.1
562.506,857.05
562.641,856.45
562.775,855.6
562.91,857.05
563.045,856.05
563.179,856.25
563.314,856.6
563.449,856.3
563.583,856.95
563.718,857.65
563.853,859.25
563.987,865.3
564.122,868.1
564.256,862.75
564.391,860.45
564.525,859.6
564.66,859.3
564.795,861.1
564.929,859.4
565.064,858.2
565.198,857.65
565.333,858.0
565.467,858.85
565.602,859.05
565.736,858.75
565.871,860.85
566.005,863.2
566.14,868.9
566.274,868.35
566.409,860.95
566.543,859.2
566.678,858.6
566.812,857.95
566.947,857.85
567.081,858.7
567.216,858.0
567.35,857.5
567.484,859.05
567.619,859.35
567.753,857.85
567.888,857.3
568.022,857.4
568.156,855.65
568.291,857.95
568.425,858.05
568.56,857.6
568.694,856.4
568.828,859.1
568.963,857.75
569.097,859.0
569.231,857.35
569.366,857.05
569.5,858.35
569.634,856.8
569.769,858.7
569.903,858.6
570.037,858.7
570.172,858.5
570.306,859.1
570.44,860.25
570.575,857.95
570.709,860.2
570.843,858.85
570.977,860.55
571.112,861.45
571.246,862.75
571.38,865.0
571.514,874.3
571.649,878.9
571.783,870.25
571.917,864.95
572.051,863.85
572.185,864.65
572.32,864.05
572.454,863.8
572.588,861.55
572.722,861.9
572.856,860.15
572.991,859.55
573.125,863.1
573.259,861.95
573.393,861.4
573.527,863.15
573.661,861.8
573.795,862.6
573.93,863.15
574.064,862.85
574.198,863.45
574.332,863.6
574.466,861.6
574.6,863.4
574.734,860.65
574.868,862.8
575.002,862.0
575.136,861.95
575.271,864.15
575.405,867.7
575.539,869.45
575.673,872.2
575.807,870.6
575.941,871.15
576.075,872.15
576.209,876.25
576.343,879.1
576.477,878.85
576.611,873.7
576.745,875.05
576.879,875.65
577.013,875.6
577.147,873.6
577.281,874.6
577.415,872.0
577.549,869.35
577.683,870.3
577.817,869.6
577.951,868.45
578.085,868.6
578.218,869.55
578.352,869.4
578.486,867.55
578.62,869.9
578.754,869.95
578.888,870.9
579.022,872.7
579.156,869.15
579.29,872.75
579.424,869.95
579.557,870.35
579.691,871.0
579.825,874.0
579.959,871.45
580.093,873.95
580.227,873.9
580.361,873.45
580.494,873.55
580.628,874.05
580.762,873.05
580.896,875.4
581.03,875.45
581.164,875.25
581.297,875.5
581.431,876.95
581.565,874.9
581.699,876.3
581.832,876.7
581.966,877.05
582.1,878.75
582.234,877.5
582.368,878.7
582.501,878.2
582.635,879.85
582.769,880.2
582.903,878.9
583.036,880.2
583.17,879.9
583.304,882.85
583.437,882.4
583.571,881.3
583.705,881.85
583.838,883.35
583.972,883.1
584.106,880.8
584.24,882.85
584.373,884.05
584.507,887.05
584.641,887.7
584.774,885.55
584.908,883.95
585.041,885.5
585.175,887.5
585.309,887.2
585.442,885.95
585.576,887.35
585.71,890.5
585.843,886.75
585.977,891.7
586.11,889.5
586.244,889.05
586.378,890.6
586.511,891.95
586.645,890.5
586.778,892.65
586.912,893.6
587.045,893.75
587.179,894.65
587.313,895.45
587.446,896.5
587.58,897.75
587.713,901.1
587.847,900.1
587.98,901.0
588.114,900.3
588.247,899.95
588.381,901.4
588.514,900.55
588.648,901.8
588.781,902.25
588.915,903.05
589.048,904.95
589.182,904.05
589.315,906.1
589.449,904.45
589.582,907.75
589.715,906.25
589.849,908.4
589.982,908.45
590.116,907.3
590.249,910.1
590.383,912.25
590.516,909.7
590.649,911.4
590.783,913.3
590.916,914.55
591.05,915.4
591.183,913.75
591.316,915.75
591.45,916.85
591.583,917.45
591.717,917.95
591.85,919.9
591.983,919.0
592.117,921.9
592.25,918.6
592.383,919.9
592.517,919.95
592.65,920.4
592.783,923.2
592.917,923.15
593.05,922.45
593.183,924.7
593.317,925.7
593.45,924.45
593.583,925.65
593.717,926.95
593.85,929.55
593.983,927.85
594.116,929.8
594.25,928.35
594.383,929.8
594.516,931.9
594.649,934.4
594.783,931.7
594.916,934.4
595.049,935.75
595.182,937.45
595.316,938.25
595.449,938.2
595.582,940.45
595.715,943.2
595.849,941.85
595.982,942.05
596.115,942.25
596.248,942.35
596.381,947.85
596.514,952.55
596.648,949.9
596.781,950.8
596.914,951.0
597.047,953.4
597.18,956.25
597.313,957.7
597.447,958.7
597.58,961.3
597.713,959.65
597.846,960.65
597.979,960.15
598.112,964.8
598.245,963.75
598.379,969.35
598.512,967.3
598.645,971.6
598.778,971.5
598.911,975.35
599.044,972.25
599.177,973.8
599.31,973.4
599.443,974.9
599.576,976.65
599.709,978.0
599.842,975.15
599.975,976.5
600.109,979.35
600.242,981.25
600.375,977.25
600.508,981.1
600.641,979.55
600.774,980.75
600.907,981.15
601.04,980.0
601.173,976.5
601.306,980.4
601.439,978.9
601.572,977.35
601.705,980.85
601.838,977.35
601.971,979.5
602.104,976.2
602.237,978.85
602.37,979.0
602.503,974.0
602.636,973.7
602.768,970.85
602.901,975.85
603.034,973.15
603.167,973.4
603.3,972.9
603.433,971.1
603.566,967.6
603.699,969.15
603.832,969.3
603.965,963.25
604.098,964.95
604.231,963.15
604.364,962.85
604.496,962.65
604.629,961.6
604.762,958.95
604.895,955.7
605.028,958.0
605.161,950.85
605.294,953.0
605.427,951.0
605.559,949.6
605.692,945.85
605.825,948.2
605.958,945.15
606.091,944.15
606.224,944.3
606.356,943.7
606.489,938.95
606.622,940.45
606.755,937.3
606.888,938.5
607.02,938.5
607.153,935.75
607.286,932.95
607.419,938.35
607.552,935.0
607.684,935.7
607.817,933.2
607.95,932.55
608.083,931.15
608.215,932.25
608.348,931.45
608.481,930.3
608.614,929.4
608.746,929.85
608.879,926.9
609.012,926.6
609.145,930.65
609.277,926.1
609.41,924.0
609.543,925.1
609.675,922.2
609.808,922.9
609.941,924.95
610.074,921.7
610.206,922.35
610.339,921.05
610.472,917.6
610.604,920.8
610.737,920.05
610.87,919.4
611.002,917.55
611.135,916.45
611.268,916.55
611.4,917.25
611.533,918.8
611.666,918.25
611.798,915.95
611.931,914.75
612.063,913.75
612.196,916.1
612.329,915.45
612.461,914.2
612.594,916.0
612.727,917.4
612.859,913.6
612.992,914.85
613.124,915.0
613.257,914.85
613.39,914.2
613.522,911.95
613.655,915.0
613.787,914.45
613.92,913.15
614.052,912.2
614.185,910.65
614.317,909.55
614.45,911.6
614.583,907.65
614.715,910.8
614.848,909.6
614.98,910.45
615.113,909.2
615.245,907.95
615.378,909.3
615.51,906.4
615.643,906.95
615.775,908.35
615.908,907.45
616.04,906.05
616.173,906.4
616.305,903.4
616.438,904.6
616.57,904.15
616.703,905.95
616.835,905.45
616.968,905.0
617.1,903.9
617.233,904.5
617.365,903.85
617.498,903.9
617.63,904.5
617.762,902.25
617.895,903.35
618.027,901.4
618.16,903.5
618.292,902.35
618.425,901.85
618.557,900.35
618.689,901.8
618.822,901.8
618.954,900.75
619.087,899.95
619.219,900.75
619.351,899.7
619.484,903.25
619.616,899.6
619.749,897.5
619.881,898.8
620.013,898.6
620.146,899.35
620.278,899.2
620.41,898.95
620.543,900.45
620.675,898.3
620.808,897.5
620.94,900.25
621.072,898.1
621.205,897.9
621.337,899.15
621.469,897.6
621.602,899.65
621.734,897.6
621.866,898.55
621.998,899.6
622.131,899.65
622.263,900.8
622.395,899.5
622.528,900.1
622.66,900.7
622.792,899.65
622.925,897.4
623.057,898.85
623.189,893.85
623.321,896.1
623.454,895.45
623.586,895.05
623.718,895.8
623.85,896.3
623.983,894.15
624.115,893.4
624.247,897.15
624.379,894.9
624.512,892.8
624.644,895.15
624.776,895.1
624.908,895.0
625.041,893.3
625.173,895.1
625.305,892.05
625.437,893.9
625.569,893.6
625.702,894.0
625.834,895.65
625.966,893.7
626.098,895.8
626.23,893.7
626.363,897.1
626.495,895.5
626.627,899.7
626.759,909.55
626.891,918.3
627.024,934.5
627.156,953.1
627.288,959.35
627.42,954.05
627.552,945.9
627.684,938.2
627.816,930.9
627.949,929.05
628.081,928.5
628.213,931.25
628.345,934.55
628.477,953.05
628.609,967.0
628.741,953.15
628.874,943.1
629.006,937.95
629.138,936.15
629.27,933.6
629.402,928.8
629.534,928.45
629.666,924.45
629.798,919.4
629.93,917.9
630.062,917.75
630.195,916.6
630.327,918.35
630.459,916.55
630.591,915.4
630.723,912.05
630.855,910.5
630.987,905.75
631.119,902.05
631.251,897.15
631.383,895.75
631.515,894.8
631.647,893.45
631.779,893.8
631.911,892.4
632.043,891.7
632.175,889.15
632.307,888.95
632.439,887.7
632.571,890.75
632.703,892.25
632.835,887.45
632.967,888.1
633.099,889.8
633.231,887.75
633.363,888.05
633.495,888.0
633.627,890.85
633.759,890.15
633.891,888.35
634.023,886.35
634.155,889.5
634.287,888.9
634.419,887.75
634.551,887.4
634.683,887.15
634.815,886.35
634.947,888.25
635.079,886.1
635.211,888.3
635.343,887.6
635.475,887.95
635.607,889.5
635.739,886.95
635.871,889.25
636.003,887.5
636.135,888.5
636.267,888.95
636.398,888.75
636.53,889.3
636.662,887.7
636.794,888.85
636.926,889.75
637.058,890.0
637.19,887.7
637.322,890.0
637.454,886.7
637.586,889.9
637.717,888.4
637.849,889.25
637.981,890.9
638.113,889.65
638.245,890.2
638.377,891.3
638.509,890.8
638.641,891.25
638.773,889.95
638.904,891.0
639.036,890.1
639.168,889.7
639.3,890.5
639.432,892.65
639.564,890.6
639.695,890.2
639.827,894.25
639.959,890.4
640.091,890.25
640.223,893.0
640.355,893.1
640.486,892.95
640.618,890.45
640.75,892.2
640.882,891.3
641.014,893.35
641.146,891.55
641.277,894.7
641.409,892.95
641.541,893.3
641.673,893.0
641.805,892.9
641.936,893.45
642.068,893.15
642.2,894.3
642.332,891.3
642.464,894.6
642.595,895.1
642.727,893.85
642.859,894.3
642.991,893.35
643.122,894.95
643.254,896.95
643.386,896.0
643.518,895.35
643.649,895.7
643.781,893.9
643.913,895.9
644.045,894.85
644.176,896.1
644.308,896.3
644.44,896.55
644.572,898.7
644.703,893.4
644.835,896.1
644.967,897.55
645.099,898.55
645.23,896.85
645.362,896.05
645.494,893.85
645.625,896.75
645.757,897.15
645.889,896.65
646.021,898.2
646.152,895.5
646.284,897.8
646.416,896.8
646.547,897.1
646.679,898.4
646.811,899.4
646.942,897.3
647.074,895.7
647.206,900.45
647.337,899.5
647.469,900.45
647.601,900.55
647.732,897.15
647.864,901.25
647.996,902.8
648.127,900.1
648.259,899.65
648.391,900.45
648.522,899.7
648.654,898.95
648.786,901.95
648.917,900.35
649.049,902.1
649.181,904.55
649.312,901.35
649.444,900.7
649.576,901.95
649.707,903.3
649.839,900.45
649.971,899.4
650.102,899.25
650.234,900.5
650.365,900.95
650.497,901.85
650.629,902.1
650.76,903.4
650.892,900.4
651.023,903.0
651.155,904.25
651.287,903.75
651.418,900.4
651.55,903.1
651.682,901.75
651.813,902.55
651.945,901.95
652.076,905.3
652.208,904.35
652.339,903.2
652.471,903.9
652.603,905.35
652.734,903.55
652.866,905.05
652.997,903.95
653.129,904.7
653.261,904.4
653.392,903.9
653.524,904.6
653.655,902.25
653.787,904.45
653.918,907.6
654.05,904.65
654.181,904.35
654.313,904.95
654.445,903.7
654.576,905.5
654.708,903.75
654.839,903.5
654.971,903.5
655.102,903.4
655.234,904.25
655.365,902.9
655.497,904.5
655.628,903.15
655.76,904.15
655.892,903.4
656.023,905.45
656.155,902.5
656.286,905.3
656.418,902.85
656.549,900.55
656.681,901.45
656.812,902.25
656.944,905.35
657.075,901.05
657.207,901.45
657.338,901.7
657.47,899.9
657.601,897.9
657.733,899.2
657.864,897.8
657.996,900.15
658.127,898.85
658.259,897.95
658.39,898.2
658.522,897.45
658.653,897.2
658.785,898.3
658.916,897.0
659.048,897.35
659.179,897.45
659.311,895.1
659.442,896.65
659.574,898.85
659.705,895.2
659.836,895.85
659.968,893.45
660.099,893.4
660.231,893.55
660.362,891.5
660.494,893.45
660.625,893.0
660.757,890.45
660.888,890.55
661.02,889.45
661.151,890.2
661.283,889.4
661.414,890.0
661.545,887.15
661.677,888.9
661.808,887.95
661.94,888.0
662.071,885.8
662.203,885.0
662.334,885.05
662.466,884.9
662.597,885.25
662.728,884.8
662.86,885.65
662.991,882.7
663.123,884.35