File: spectra/VLFR_06-PET_bio_Raman_1d57b388.csv
nm,Intensity
528.65,1844.35
528.819,1846.0
528.987,1846.75
529.155,1846.85
529.324,1847.25
529.492,1846.6
529.66,1847.25
529.829,1845.8
529.997,1847.1
530.165,1845.25
530.334,1846.6
530.502,1846.25
530.67,1847.9
530.839,1847.5
531.007,1847.95
531.175,1849.2
531.344,1850.2
531.512,1852.2
531.68,1875.2
531.848,2303.3
532.017,3939.2
532.185,3721.95
532.353,2055.35
532.521,1851.5
532.69,1850.15
532.858,1851.9
533.026,1850.95
533.194,1858.5
533.363,1871.25
533.531,2034.15
533.699,3017.9
533.867,4899.15
534.036,6044.0
534.204,6234.15
534.372,5957.7
534.54,5652.85
534.708,5598.9
534.877,5282.25
535.045,5180.55
535.213,5018.3
535.381,4897.4
535.549,4686.05
535.717,4568.2
535.886,4429.6
536.054,4312.7
536.222,4289.35
536.39,4226.0
536.558,4299.1
536.726,4166.0
536.894,4159.5
537.062,4162.25
537.231,4198.3
537.399,4197.05
537.567,4295.05
537.735,4241.4
537.903,4216.15
538.071,4226.55
538.239,4264.6
538.407,4248.6
538.575,4212.15
538.743,4265.65
538.911,4296.95
539.079,4319.85
539.247,4326.15
539.415,4392.35
539.583,4415.6
539.751,4461.2
539.919,4486.7
540.087,4436.05
540.255,4422.95
540.423,4389.9
540.591,4400.1
540.759,4433.75
540.927,4464.15
541.095,4445.7
541.263,4394.6
541.431,4427.1
541.599,4469.55
541.767,4453.9
541.935,4489.75
542.103,4540.15
542.271,4543.85
542.439,4571.85
542.607,4597.45
542.775,4634.75
542.943,4588.9
543.111,4546.45
543.279,4656.75
543.446,4632.1
543.614,4659.55
543.782,4660.35
543.95,4682.25
544.118,4646.7
544.286,4715.75
544.454,4744.6
544.622,4671.95
544.789,4813.65
544.957,4740.35
545.125,4791.25
545.293,4781.0
545.461,4798.85
545.629,4827.7
545.796,4834.55
545.964,4829.9
546.132,4844.15
546.3,4807.9
546.468,4923.1
546.635,4936.1
546.803,4911.65
546.971,4889.7
547.139,4903.3
547.306,4856.5
547.474,4925.95
547.642,4997.85
547.81,4967.0
547.977,4977.65
548.145,5067.25
548.313,5106.25
548.481,5072.85
548.648,5111.2
548.816,5070.95
548.984,5129.6
549.151,5065.7
549.319,5062.15
549.487,5110.65
549.655,5127.75
549.822,5154.6
549.99,5236.6
550.158,5177.35
550.325,5253.5
550.493,5395.35
550.66,5639.95
550.828,5499.6
550.996,5353.15
551.163,5347.75
551.331,5391.0
551.499,5384.75
551.666,5445.25
551.834,5380.95
552.001,5453.0
552.169,5414.45
552.337,5406.5
552.504,5414.3
552.672,5611.85
552.839,5555.3
553.007,5478.45
553.174,5487.5
553.342,5512.2
553.509,5509.05
553.677,5530.1
553.844,5527.25
554.012,5560.6
554.179,5517.2
554.347,5564.9
554.514,5628.25
554.682,5596.65
554.849,5665.35
555.017,5799.55
555.184,5658.5
555.352,5740.15
555.519,5918.5
555.687,5923.0
555.854,5971.5
556.022,5942.0
556.189,6036.05
556.357,6022.2
556.524,6018.3
556.691,6074.15
556.859,6067.75
557.026,6159.1
557.194,6414.7
557.361,6468.0
557.528,6629.65
557.696,6459.95
557.863,6317.9
558.031,6294.2
558.198,6186.25
558.365,6266.05
558.533,6276.5
558.7,6258.05
558.867,6242.8
559.035,6266.55
559.202,6136.75
559.369,6084.65
559.537,6145.75
559.704,6144.05
559.871,6214.0
560.038,6277.85
560.206,6253.8
560.373,6168.95
560.54,6221.45
560.708,6331.4
560.875,6282.2
561.042,6338.6
561.209,6307.05
561.377,6354.55
561.544,6411.9
561.711,6381.3
561.878,6594.0
562.045,6556.0
562.213,6497.5
562.38,6535.65
562.547,6530.5
562.714,6603.9
562.881,6570.35
563.049,6667.45
563.216,6610.25
563.383,6624.05
563.55,6619.65
563.717,6672.8
563.884,6676.9
564.052,6642.15
564.219,6676.3
564.386,6755.0
564.553,6761.45
564.72,6897.7
564.887,6928.05
565.054,7058.1
565.221,7182.7
565.388,7167.0
565.556,7169.8
565.723,7275.45
565.89,7287.3
566.057,7284.9
566.224,7056.1
566.391,7071.15
566.558,6968.85
566.725,7049.05
566.892,7026.5
567.059,7001.35
567.226,6992.95
567.393,7058.85
567.56,7347.0
567.727,7290.75
567.894,7316.15
568.061,7278.35
568.228,7201.25
568.395,7226.45
568.562,7234.45
568.729,7328.15
568.896,7233.1
569.063,7339.65
569.23,7354.4
569.396,7465.45
569.563,7470.3
569.73,7543.95
569.897,7375.95
570.064,7631.6
570.231,7753.3
570.398,7773.8
570.565,7861.8
570.732,8195.7
570.898,8176.65
571.065,8520.5
571.232,8562.7
571.399,8396.4
571.566,8304.3
571.733,8244.05
571.9,8262.55
572.066,8091.45
572.233,7991.95
572.4,7962.9
572.567,7922.0
572.734,7951.05
572.9,7903.8
573.067,7888.9
573.234,7910.4
573.401,7874.15
573.567,7765.95
573.734,7748.35
573.901,7871.8
574.068,7993.05
574.234,7929.95
574.401,7780.6
574.568,7865.0
574.734,7898.55
574.901,7864.4
575.068,7965.7
575.235,8109.25
575.401,7926.4
575.568,7967.55
575.735,8056.85
575.901,7994.15
576.068,7902.75
576.235,7987.45
576.401,8094.15
576.568,8103.05
576.734,8117.7
576.901,8121.15
577.068,8066.6
577.234,8056.4
577.401,8032.0
577.567,7879.6
577.734,8033.2
577.901,7934.0
578.067,8004.25
578.234,7925.45
578.4,8005.4
578.567,8056.9
578.733,8036.8
578.9,8162.25
579.066,8048.3
579.233,8134.95
579.399,8192.45
579.566,8322.15
579.732,8231.0
579.899,8265.45
580.065,8309.4
580.232,8505.6
580.398,8497.4
580.565,8494.25
580.731,8654.85
580.898,8472.95
581.064,8650.6
581.231,8782.9
581.397,8841.85
581.563,8880.45
581.73,9565.6
581.896,10495.9
582.063,11741.5
582.229,11379.9
582.395,9628.35
582.562,8651.45
582.728,8478.05
582.895,8282.85
583.061,8220.4
583.227,8248.35
583.394,8224.0
583.56,8338.4
583.726,8182.95
583.893,8220.6
584.059,8113.9
584.225,8119.0
584.391,8245.95
584.558,8254.1
584.724,8229.7
584.89,8292.2
585.057,8313.5
585.223,8441.3
585.389,8747.3
585.555,9149.1
585.722,9728.1
585.888,10232.2
586.054,10413.2
586.22,9823.9
586.386,9648.95
586.553,9256.1
586.719,8611.8
586.885,8444.15
587.051,8458.25
587.217,8293.95
587.384,8416.55
587.55,8299.15
587.716,8358.55
587.882,8267.3
588.048,8357.0
588.214,8413.75
588.38,8429.25
588.546,8309.15
588.713,8365.35
588.879,8331.85
589.045,8299.8
589.211,8366.6
589.377,8270.35
589.543,8336.3
589.709,8377.25
589.875,8316.45
590.041,8346.65
590.207,8293.6
590.373,8332.75
590.539,8497.6
590.705,8308.8
590.871,8358.5
591.037,8367.2
591.203,8495.95
591.369,8441.55
591.535,8448.35
591.701,8446.0
591.867,8465.85
592.033,8331.3
592.199,8508.3
592.365,8676.55
592.531,8417.55
592.697,8405.8
592.863,8581.35
593.029,8468.35
593.195,8518.05
593.361,8479.9
593.526,8470.85
593.692,8600.7
593.858,8518.7
594.024,8407.85
594.19,8519.45
594.356,8459.6
594.522,8469.45
594.687,8571.3
594.853,8523.65
595.019,8574.8
595.185,8595.45
595.351,8653.3
595.516,8654.1
595.682,8771.2
595.848,8626.15
596.014,8666.9
596.18,8706.0
596.345,8695.4
596.511,8506.1
596.677,8767.05
596.843,8701.4
597.008,8667.75
597.174,8735.8
597.34,8731.65
597.505,8620.45
597.671,8761.25
597.837,8787.2
598.002,8685.4
598.168,8594.15
598.334,8584.9
598.499,8801.2
598.665,8767.2
598.831,8703.7
598.996,8798.05
599.162,8859.95
599.328,8763.95
599.493,8855.1
599.659,8856.4
599.824,8651.45
599.99,8792.35
600.156,8606.95
600.321,8799.9
600.487,8836.95
600.652,8708.25
600.818,8659.15
600.983,8978.0
601.149,8794.9
601.314,8847.25
601.48,8902.75
601.645,8867.1
601.811,8710.55
601.976,8674.95
602.142,8788.45
602.307,8771.8
602.473,8792.85
602.638,8739.65
602.804,8906.35
602.969,8873.95
603.135,8845.55
603.3,8754.65
603.466,8926.4
603.631,8836.4
603.796,8901.3
603.962,8867.6
604.127,8671.0
604.293,8742.55
604.458,8809.1
604.623,8919.35
604.789,8842.8
604.954,8916.6
605.119,8713.85
605.285,8676.15
605.45,8616.55
605.615,8814.85
605.781,8807.55
605.946,8779.45
606.111,8760.85
606.277,8855.05
606.442,8841.6
606.607,9005.05
606.772,8746.3
606.938,8742.4
607.103,8834.4
607.268,8888.1
607.433,8801.1
607.599,8842.75
607.764,9012.25
607.929,8780.7
608.094,8755.65
608.259,8843.55
608.425,8788.25
608.59,8814.55
608.755,8842.1
608.92,8704.5
609.085,8796.85
609.25,8759.15
609.415,8719.45
609.581,8881.8
609.746,8862.4
609.911,8791.8
610.076,8686.2
610.241,8811.85
610.406,8800.45
610.571,8958.55
610.736,8676.7
610.901,9040.9
611.066,8696.35
611.231,8723.9
611.396,8816.25
611.561,8880.15
611.727,8725.05
611.892,8716.15
612.057,8828.3
612.222,8717.45
612.386,8775.95
612.551,8699.65
612.716,8853.3
612.881,8700.3
613.046,8767.25
613.211,8804.25
613.376,8716.15
613.541,8745.25
613.706,8777.75
613.871,8800.65
614.036,8901.1
614.201,8716.2
614.366,8692.95
614.531,8798.7
614.695,8765.2
614.86,8875.95
615.025,8872.6
615.19,8711.55
615.355,8803.2
615.52,8840.1
615.684,8746.5
615.849,8650.45
616.014,8731.5
616.179,8773.9
616.344,8862.85
616.508,8848.6
616.673,8592.9
616.838,8781.7
617.003,8852.0
617.168,8769.9
617.332,8687.4
617.497,8919.7
617.662,8624.9
617.826,8940.05
617.991,8644.4
618.156,8706.4
618.32,8901.9
618.485,8747.7
618.65,8814.1
618.814,8899.8
618.979,8835.8
619.144,8763.45
619.308,8814.05
619.473,8771.25
619.638,8683.85
619.802,8753.75
619.967,8672.0
620.131,8864.3
620.296,8887.95
620.461,8742.5
620.625,8769.8
620.79,8727.3
620.954,8640.65
621.119,8777.4
621.283,8901.7
621.448,8735.6
621.612,8566.5
621.777,8789.65
621.941,8718.6
622.106,8777.9
622.27,8760.6
622.435,8579.05
622.599,8709.5
622.764,8944.5
622.928,8740.15
623.093,8849.35
623.257,8793.6
623.422,8679.35
623.586,8696.7
623.75,8678.5
623.915,8742.8
624.079,8826.55
624.244,8741.25
624.408,8801.45
624.572,8949.8
624.737,8830.55
624.901,8798.15
625.065,8837.95
625.23,8790.5
625.394,8800.55
625.558,8664.9
625.723,8643.0
625.887,8808.8
626.051,8760.65
626.215,8711.6
626.38,8731.95
626.544,8761.15
626.708,8653.65
626.872,8593.15
627.037,8784.4
627.201,8585.35
627.365,8748.75
627.529,8798.2
627.693,8832.75
627.858,8663.6
628.022,8847.2
628.186,8969.25
628.35,8727.95
628.514,8941.95
628.678,8977.15
628.843,8750.1
629.007,9045.5
629.171,8894.8
629.335,8959.95
629.499,9035.25
629.663,8829.3
629.827,8950.8
629.991,8843.7
630.155,8903.45
630.319,9030.5
630.483,8840.35
630.647,8744.85
630.812,9089.75
630.976,9257.5
631.14,9067.9
631.304,9340.5
631.468,9601.6
631.632,9300.85
631.796,9555.45
631.959,9515.65
632.123,9522.55
632.287,9444.2
632.451,9332.45
632.615,9244.15
632.779,9154.25
632.943,9269.85
633.107,9293.75
633.271,9258.9
633.435,9160.55
633.599,9097.5
633.763,9266.8
633.926,9101.0
634.09,8845.8
634.254,9082.4
634.418,8922.35
634.582,8963.65
634.746,8971.7
634.909,9018.0
635.073,8902.65
635.237,8928.5
635.401,8924.05
635.564,8955.7
635.728,9059.15
635.892,9252.85
636.056,9327.35
636.219,9567.1
636.383,9819.55
636.547,9633.95
636.711,9632.0
636.874,9322.0
637.038,9224.6
637.202,9160.2
637.365,9037.9
637.529,9061.0
637.693,8865.85
637.856,9060.1
638.02,9009.65
638.184,8888.6
638.347,8904.85
638.511,8902.4
638.674,8878.85
638.838,8872.8
639.002,9013.05
639.165,8989.15
639.329,8923.1
639.492,8931.5
639.656,8777.95
639.819,8794.6
639.983,8807.55
640.146,9023.0
640.31,8768.35
640.473,8743.35
640.637,8793.95
640.8,8779.8
640.964,8667.6
641.127,8765.1
641.291,8688.6
641.454,8771.6
641.618,8861.1
641.781,8838.0
641.944,8776.8
642.108,8678.9
642.271,8926.4
642.435,8885.0
642.598,8822.9
642.761,8719.8
642.925,8823.95
643.088,8708.95
643.251,8531.85
643.415,8602.45
643.578,8929.8
643.741,8887.25
643.905,8721.6
644.068,8706.45
644.231,8819.05
644.394,8713.85
644.558,8644.8
644.721,8532.85
644.884,8606.7
645.047,8564.05
645.211,8947.15
645.374,8815.4
645.537,8566.65
645.7,8696.7
645.863,8494.5
646.027,8682.45
646.19,8688.85
646.353,8580.75
646.516,8657.85
646.679,8756.1
646.842,8620.2
647.005,8535.15
647.169,8487.0
647.332,8407.05
647.495,8597.35
647.658,8511.3
647.821,8446.65
647.984,8673.3
648.147,8596.55
648.31,8429.95
648.473,8260.15
648.636,8476.7
648.799,8440.4
648.962,8443.6
649.125,8536.1
649.288,8380.75
649.451,8277.45
649.614,8414.15
649.777,8196.9
649.94,8401.75
650.103,8297.6
650.266,8304.5
650.429,8528.45
650.592,8325.15
650.755,8313.35
650.918,8234.1
651.08,8311.6
651.243,8373.85
651.406,8179.35
651.569,8129.95
651.732,8279.3
651.895,8217.3
652.058,8056.8
652.22,8378.9
652.383,8197.2
652.546,8069.45
652.709,8067.35
652.872,8026.5
653.034,8010.65
653.197,7976.15
653.36,7826.15
653.523,7945.3
653.685,7813.2
653.848,7882.55
654.011,8234.4
654.173,7848.75
654.336,7747.25
654.499,7954.3
654.662,7740.55
654.824,7861.0
654.987,7774.45
655.149,7642.6
655.312,7745.85
655.475,7908.05
655.637,7750.3
655.8,7748.9
655.963,7637.8
656.125,7588.35
656.288,7793.0
656.45,7756.7
656.613,7656.15
656.775,7640.55
656.938,7594.75
657.1,7569.35
657.263,7788.05
657.425,7690.35
657.588,7539.95
657.75,7461.75
657.913,7498.5
658.075,7434.7
658.238,7376.15
658.4,7304.6
658.563,7361.35
658.725,7301.8
658.888,7519.35
659.05,7152.45
659.212,7218.1
659.375,7382.2
659.537,7183.6
659.7,7227.85
659.862,7269.15
660.024,6918.8
660.187,7086.0
660.349,7310.3
660.511,7231.75
660.674,6930.6
660.836,7057.75
660.998,7099.35
661.079,7158.05