File: spectra/VLFR_02-HDPE_bio_Raman_a11d4e02.csv
nm,Intensity
528.626,1865.8
528.795,1868.3
528.963,1867.2
529.132,1867.4
529.3,1867.6
529.469,1867.2
529.637,1868.6
529.806,1869.5
529.974,1868.9
530.143,1867.4
530.311,1867.7
530.48,1868.1
530.648,1867.5
530.816,1869.5
530.985,1870.9
531.153,1870.4
531.322,1871.4
531.49,1874.6
531.658,1893.4
531.827,2201.8
531.995,3816.7
532.164,3382.9
532.332,2109.9
532.5,1872.3
532.669,1870.3
532.837,1868.7
533.006,1868.8
533.174,1866.9
533.342,1869.5
533.511,1871.6
533.679,1917.9
533.847,2010.4
534.016,2088.5
534.184,2105.4
534.352,2099.2
534.521,2091.1
534.689,2109.1
534.857,2116.7
535.025,2116.0
535.194,2099.1
535.362,2081.9
535.53,2047.9
535.699,2029.1
535.867,2026.7
536.035,2017.3
536.203,2002.1
536.372,2011.8
536.54,2016.2
536.708,1998.2
536.876,2013.2
537.044,2001.7
537.213,2001.6
537.381,2002.6
537.549,2012.7
537.717,2008.2
537.885,2007.7
538.054,2007.1
538.222,2006.5
538.39,2001.9
538.558,1998.6
538.726,2002.6
538.894,2004.8
539.063,2003.2
539.231,2005.5
539.399,1995.3
539.567,1989.9
539.735,1993.2
539.903,1995.2
540.071,1986.4
540.239,1994.0
540.408,1988.2
540.576,1992.2
540.744,1991.1
540.912,2000.9
541.08,1992.4
541.248,1985.9
541.416,1989.1
541.584,1992.6
541.752,1996.4
541.92,1997.1
542.088,1992.4
542.256,1990.2
542.424,1986.2
542.592,2000.8
542.76,1997.0
542.928,1989.5
543.096,1997.1
543.264,2002.1
543.432,2005.5
543.6,1992.1
543.768,2002.7
543.936,2004.9
544.104,1999.9
544.272,1989.3
544.44,1999.2
544.608,1990.0
544.776,1999.5
544.944,2005.8
545.112,1989.1
545.28,1991.5
545.448,1988.2
545.616,1998.7
545.784,1996.6
545.951,1997.1
546.119,1997.0
546.287,2000.2
546.455,1998.9
546.623,2001.3
546.791,2008.1
546.959,2002.1
547.127,2005.1
547.294,1996.4
547.462,2007.4
547.63,2002.0
547.798,1998.0
547.966,2003.2
548.134,2008.0
548.301,2004.3
548.469,2004.9
548.637,2003.0
548.805,2004.4
548.972,2000.9
549.14,2005.8
549.308,2005.9
549.476,2002.8
549.644,2002.9
549.811,2004.1
549.979,2011.1
550.147,2014.5
550.315,1998.6
550.482,2007.7
550.65,2008.2
550.818,2011.4
550.985,2018.5
551.153,2009.9
551.321,2006.6
551.488,2024.0
551.656,2007.5
551.824,2020.5
551.991,2024.3
552.159,2020.3
552.327,2010.2
552.494,2014.0
552.662,2016.0
552.83,2010.9
552.997,2007.0
553.165,2029.2
553.333,2028.1
553.5,2023.6
553.668,2028.3
553.835,2020.7
554.003,2031.2
554.171,2026.7
554.338,2024.6
554.506,2036.2
554.673,2033.7
554.841,2032.9
555.008,2036.1
555.176,2031.7
555.343,2040.1
555.511,2031.7
555.679,2038.3
555.846,2041.0
556.014,2033.5
556.181,2043.2
556.349,2032.0
556.516,2041.6
556.684,2047.0
556.851,2046.7
557.018,2044.4
557.186,2052.2
557.353,2061.9
557.521,2055.8
557.688,2056.9
557.856,2066.8
558.023,2064.4
558.191,2061.9
558.358,2063.5
558.525,2065.3
558.693,2063.4
558.86,2063.4
559.028,2063.5
559.195,2071.6
559.362,2072.8
559.53,2053.7
559.697,2058.5
559.864,2062.9
560.032,2058.6
560.199,2059.4
560.366,2058.7
560.534,2072.3
560.701,2072.1
560.868,2068.6
561.036,2070.6
561.203,2073.9
561.37,2068.3
561.538,2066.6
561.705,2072.8
561.872,2086.9
562.039,2079.7
562.207,2086.6
562.374,2089.1
562.541,2087.5
562.708,2091.3
562.876,2097.4
563.043,2085.4
563.21,2092.0
563.377,2104.7
563.545,2130.4
563.712,2214.4
563.879,2398.9
564.046,2521.1
564.213,2355.0
564.38,2190.9
564.548,2171.0
564.715,2167.4
564.882,2156.8
565.049,2143.4
565.216,2131.8
565.383,2123.7
565.551,2145.0
565.718,2164.1
565.885,2225.6
566.052,2387.3
566.219,2458.4
566.386,2300.8
566.553,2156.7
566.72,2107.9
566.887,2114.6
567.054,2125.7
567.221,2143.5
567.388,2171.6
567.555,2172.3
567.722,2129.3
567.889,2112.5
568.057,2107.7
568.224,2105.0
568.391,2098.5
568.558,2109.0
568.725,2119.8
568.892,2116.0
569.058,2114.4
569.225,2117.0
569.392,2106.7
569.559,2115.4
569.726,2113.7
569.893,2126.7
570.06,2124.1
570.227,2131.6
570.394,2146.7
570.561,2148.0
570.728,2159.5
570.895,2167.9
571.062,2190.0
571.229,2295.1
571.395,2629.1
571.562,2900.9
571.729,2592.3
571.896,2280.8
572.063,2212.0
572.23,2195.2
572.397,2161.7
572.563,2153.4
572.73,2139.9
572.897,2138.9
573.064,2135.9
573.231,2126.1
573.397,2135.8
573.564,2149.8
573.731,2151.0
573.898,2179.6
574.064,2170.7
574.231,2163.6
574.398,2142.7
574.565,2140.9
574.731,2136.6
574.898,2141.3
575.065,2150.8
575.232,2178.7
575.398,2298.3
575.565,2379.6
575.732,2346.9
575.898,2371.1
576.065,2524.3
576.232,2718.8
576.398,2717.2
576.565,2596.2
576.732,2525.3
576.898,2507.6
577.065,2518.0
577.232,2423.4
577.398,2347.0
577.565,2261.6
577.731,2224.5
577.898,2188.7
578.065,2191.0
578.231,2174.2
578.398,2171.2
578.564,2174.8
578.731,2187.5
578.897,2163.1
579.064,2183.2
579.23,2181.7
579.397,2171.7
579.563,2186.0
579.73,2190.9
579.896,2175.6
580.063,2180.4
580.229,2191.7
580.396,2191.0
580.562,2186.7
580.729,2184.7
580.895,2196.4
581.062,2205.5
581.228,2202.6
581.395,2187.1
581.561,2207.2
581.728,2217.8
581.894,2212.6
582.06,2205.8
582.227,2232.4
582.393,2224.0
582.56,2236.9
582.726,2235.0
582.892,2252.6
583.059,2240.1
583.225,2251.4
583.391,2261.1
583.558,2267.1
583.724,2258.0
583.89,2261.4
584.057,2262.2
584.223,2274.3
584.389,2289.3
584.556,2282.2
584.722,2314.3
584.888,2293.5
585.054,2288.8
585.221,2305.3
585.387,2311.9
585.553,2326.2
585.719,2312.4
585.886,2321.7
586.052,2334.7
586.218,2328.1
586.384,2308.2
586.55,2359.3
586.717,2348.4
586.883,2362.2
587.049,2364.0
587.215,2354.8
587.381,2377.3
587.548,2393.4
587.714,2411.1
587.88,2400.5
588.046,2419.0
588.212,2406.1
588.378,2401.4
588.544,2410.3
588.71,2421.9
588.876,2439.4
589.043,2401.8
589.209,2430.4
589.375,2409.4
589.541,2441.5
589.707,2434.0
589.873,2449.3
590.039,2455.4
590.205,2448.5
590.371,2450.7
590.537,2468.5
590.703,2471.7
590.869,2464.7
591.035,2467.4
591.201,2481.4
591.367,2462.2
591.533,2480.5
591.699,2476.2
591.865,2497.7
592.031,2508.7
592.197,2486.5
592.363,2508.9
592.529,2500.3
592.694,2496.8
592.86,2484.6
593.026,2519.5
593.192,2512.2
593.358,2498.7
593.524,2487.0
593.69,2494.9
593.856,2513.0
594.021,2517.5
594.187,2500.6
594.353,2526.5
594.519,2532.3
594.685,2510.6
594.851,2528.5
595.016,2530.7
595.182,2526.8
595.348,2535.0
595.514,2532.6
595.68,2541.5
595.845,2526.5
596.011,2547.7
596.177,2526.6
596.342,2549.6
596.508,2524.1
596.674,2570.3
596.84,2541.7
597.005,2540.6
597.171,2538.3
597.337,2551.7
597.502,2539.1
597.668,2554.7
597.834,2529.6
597.999,2550.6
598.165,2546.2
598.331,2534.2
598.496,2550.6
598.662,2550.3
598.828,2556.9
598.993,2556.0
599.159,2524.4
599.324,2569.3
599.49,2549.5
599.656,2562.7
599.821,2543.9
599.987,2546.0
600.152,2571.0
600.318,2562.7
600.483,2555.6
600.649,2557.0
600.814,2536.3
600.98,2570.7
601.145,2535.6
601.311,2554.0
601.476,2569.5
601.642,2577.4
601.807,2582.7
601.973,2611.9
602.138,2588.8
602.304,2566.1
602.469,2537.1
602.635,2542.8
602.8,2541.7
602.965,2590.2
603.131,2584.2
603.296,2558.8
603.462,2550.0
603.627,2566.7
603.792,2590.9
603.958,2566.3
604.123,2569.1
604.288,2561.5
604.454,2586.3
604.619,2570.1
604.784,2572.4
604.95,2578.2
605.115,2560.9
605.28,2583.7
605.446,2560.6
605.611,2540.8
605.776,2556.0
605.941,2563.6
606.107,2540.4
606.272,2572.5
606.437,2569.2
606.602,2568.5
606.767,2565.9
606.933,2561.8
607.098,2553.9
607.263,2577.6
607.428,2573.6
607.593,2573.2
607.759,2560.4
607.924,2552.1
608.089,2572.4
608.254,2573.9
608.419,2581.2
608.584,2585.1
608.749,2562.5
608.915,2565.6
609.08,2572.2
609.245,2574.9
609.41,2565.5
609.575,2578.6
609.74,2563.7
609.905,2573.1
610.07,2584.4
610.235,2587.5
610.4,2552.6
610.565,2570.9
610.73,2602.3
610.895,2603.6
611.06,2557.9
611.225,2593.8
611.39,2576.8
611.555,2584.1
611.72,2540.5
611.885,2574.1
612.05,2570.1
612.215,2562.6
612.38,2548.1
612.545,2552.1
612.71,2549.4
612.875,2580.6
613.04,2556.2
613.204,2555.1
613.369,2572.4
613.534,2546.3
613.699,2553.1
613.864,2554.0
614.029,2546.2
614.194,2528.2
614.358,2542.0
614.523,2545.9
614.688,2526.0
614.853,2551.5
615.018,2553.7
615.182,2515.1
615.347,2537.7
615.512,2535.8
615.677,2540.4
615.841,2526.3
616.006,2539.1
616.171,2517.6
616.336,2517.8
616.5,2554.1
616.665,2531.3
616.83,2549.1
616.994,2525.6
617.159,2552.2
617.324,2580.0
617.489,2562.0
617.653,2568.3
617.818,2565.9
617.982,2548.8
618.147,2558.9
618.312,2528.1
618.476,2543.1
618.641,2548.8
618.805,2534.2
618.97,2539.3
619.135,2544.2
619.299,2576.9
619.464,2526.3
619.628,2554.6
619.793,2562.9
619.957,2559.1
620.122,2539.5
620.286,2527.0
620.451,2543.8
620.615,2549.2
620.78,2559.1
620.944,2559.8
621.109,2587.5
621.273,2607.3
621.438,2656.4
621.602,2658.0
621.767,2699.8
621.931,2810.5
622.095,2847.9
622.26,2853.5
622.424,2821.8
622.589,2760.7
622.753,2670.7
622.917,2593.8
623.082,2597.2
623.246,2545.5
623.41,2532.4
623.575,2514.2
623.739,2506.5
623.903,2491.3
624.068,2488.7
624.232,2504.4
624.396,2482.8
624.561,2494.2
624.725,2487.8
624.889,2502.4
625.053,2491.8
625.218,2497.2
625.382,2529.6
625.546,2525.3
625.71,2532.8
625.875,2555.7
626.039,2617.7
626.203,2735.3
626.367,2897.2
626.531,3277.6
626.695,4091.9
626.86,5319.1
627.024,6515.4
627.188,7021.1
627.352,7021.0
627.516,6186.8
627.68,5628.4
627.844,5296.7
628.008,5172.6
628.172,5509.9
628.337,6577.2
628.501,7526.3
628.665,6851.9
628.829,5486.7
628.993,4999.2
629.157,4822.4
629.321,4587.0
629.485,4334.7
629.649,4162.5
629.813,3941.4
629.977,3799.7
630.141,3710.8
630.305,3742.6
630.469,3619.8
630.633,3514.0
630.797,3227.0
630.96,3031.4
631.124,2800.3
631.288,2654.5
631.452,2566.7
631.616,2520.2
631.78,2508.1
631.944,2458.1
632.108,2472.1
632.272,2436.2
632.435,2443.5
632.599,2424.5
632.763,2419.5
632.927,2425.3
633.091,2409.2
633.254,2409.2
633.418,2397.7
633.582,2399.1
633.746,2371.3
633.91,2388.9
634.073,2389.1
634.237,2389.3
634.401,2349.6
634.564,2346.6
634.728,2351.7
634.892,2365.2
635.056,2356.3
635.219,2358.9
635.383,2343.0
635.547,2319.3
635.71,2342.9
635.874,2337.9
636.038,2321.3
636.201,2348.8
636.365,2338.8
636.528,2324.6
636.692,2325.7
636.856,2326.5
637.019,2316.9
637.183,2316.9
637.346,2316.3
637.51,2308.8
637.673,2335.6
637.837,2291.1
638.0,2296.9
638.164,2295.1
638.327,2305.5
638.491,2316.0
638.654,2303.2
638.818,2282.5
638.981,2296.8
639.145,2306.9
639.308,2298.7
639.472,2289.7
639.635,2304.1
639.799,2282.3
639.962,2304.1
640.125,2299.7
640.289,2280.5
640.452,2288.7
640.616,2274.4
640.779,2270.1
640.942,2282.6
641.106,2289.2
641.269,2273.9
641.432,2283.4
641.596,2291.2
641.759,2265.5
641.922,2278.5
642.085,2273.9
642.249,2282.3
642.412,2287.9
642.575,2282.2
642.738,2300.1
642.902,2280.4
643.065,2270.6
643.228,2268.8
643.391,2268.5
643.555,2273.9
643.718,2261.2
643.881,2253.9
644.044,2255.8
644.207,2271.3
644.37,2276.1
644.534,2267.1
644.697,2264.1
644.86,2254.1
645.023,2267.2
645.186,2243.4
645.349,2265.4
645.512,2253.7
645.675,2239.7
645.838,2250.5
646.001,2245.3
646.164,2259.2
646.327,2243.9
646.49,2256.6
646.653,2257.5
646.816,2249.7
646.979,2256.0
647.142,2233.9
647.305,2236.9
647.468,2254.5
647.631,2240.3
647.794,2220.8
647.957,2223.5
648.12,2246.8
648.283,2228.8
648.446,2229.1
648.609,2242.4
648.772,2241.6
648.935,2221.4
649.098,2233.0
649.26,2232.7
649.423,2217.2
649.586,2214.8
649.749,2221.8
649.912,2216.7
650.075,2211.8
650.237,2228.6
650.4,2225.1
650.563,2210.4
650.726,2219.2
650.888,2218.2
651.051,2228.6
651.214,2224.4
651.377,2208.6
651.539,2221.3
651.702,2215.4
651.865,2220.3
652.027,2205.4
652.19,2208.1
652.353,2209.4
652.515,2189.0
652.678,2213.6
652.841,2188.9
653.003,2204.2
653.166,2206.5
653.329,2188.4
653.491,2174.4
653.654,2190.5
653.816,2177.4
653.979,2191.1
654.142,2193.6
654.304,2182.0
654.467,2193.4
654.629,2182.5
654.792,2193.8
654.954,2192.4
655.117,2186.1
655.279,2180.0
655.442,2199.4
655.604,2164.6
655.767,2168.7
655.929,2177.6
656.091,2161.1
656.254,2156.4
656.416,2169.3
656.579,2156.7
656.741,2163.9
656.904,2165.1
657.066,2177.2
657.228,2158.9
657.391,2158.9
657.553,2155.2
657.715,2167.6
657.878,2162.4
658.04,2160.7
658.202,2160.6
658.365,2150.5
658.527,2160.5
658.689,2148.0
658.851,2141.4
659.014,2140.9
659.176,2140.5
659.338,2144.5
659.5,2140.6
659.663,2153.0
659.825,2156.6
659.987,2140.1
660.149,2147.6
660.311,2166.5
660.474,2154.9
660.636,2141.0
660.798,2134.1
660.96,2132.6
661.041,2129.0