File: spectra/VLFR_07-PET_bio_Raman_04a5bad1.csv
nm,Intensity
791.588,7974.8
791.862,7862.0
792.136,7764.9
792.411,7717.5
792.685,7623.5
792.959,7567.2
793.233,7509.8
793.507,7572.1
793.781,7458.2
794.056,7400.1
794.33,7432.6
794.604,7424.5
794.878,7400.7
795.152,7382.8
795.426,7346.9
795.701,7335.1
795.975,7250.8
796.249,7307.2
796.523,7282.8
796.797,7264.5
797.071,7245.6
797.345,7208.4
797.619,7274.5
797.894,7339.4
798.168,7299.4
798.442,7236.2
798.716,7236.2
798.99,7236.8
799.264,7254.1
799.538,7281.3
799.812,7226.1
800.086,7214.9
800.36,7205.9
800.634,7176.3
800.908,7124.3
801.182,7150.4
801.456,7181.7
801.73,7160.3
802.004,7143.0
802.278,7117.7
802.552,7145.5
802.826,7118.0
803.1,7147.6
803.374,7109.6
803.648,7100.1
803.922,7084.0
804.196,7037.4
804.47,7004.2
804.744,6996.3
805.018,7047.3
805.292,7010.6
805.566,7032.8
805.84,7029.5
806.114,7020.7
806.388,7039.7
806.662,7025.9
806.936,7007.0
807.209,6942.8
807.483,6953.7
807.757,6989.9
808.031,7011.2
808.305,7001.5
808.579,6943.0
808.853,6967.1
809.127,6981.0
809.4,6927.5
809.674,6875.4
809.948,6887.6
810.222,6894.5
810.496,6876.2
810.77,6832.7
811.043,6829.7
811.317,6927.9
811.591,6864.3
811.865,6846.0
812.139,6868.0
812.412,6816.0
812.686,6804.7
812.96,6795.6
813.234,6800.0
813.507,6767.0
813.781,6758.6
814.055,6749.7
814.329,6733.3
814.602,6744.0
814.876,6648.5
815.15,6651.5
815.424,6665.0
815.697,6695.1
815.971,6675.1
816.245,6652.1
816.518,6651.9
816.792,6615.3
817.066,6596.2
817.34,6596.3
817.613,6602.8
817.887,6586.2
818.161,6588.7
818.434,6531.6
818.708,6514.9
818.981,6538.8
819.255,6521.1
819.529,6556.5
819.802,6529.4
820.076,6508.3
820.35,6495.9
820.623,6531.6
820.897,6526.0
821.17,6464.1
821.444,6450.2
821.718,6449.3
821.991,6432.5
822.265,6418.5
822.538,6368.5
822.812,6307.4
823.085,6283.0
823.359,6283.1
823.632,6331.1
823.906,6322.4
824.179,6355.6
824.453,6353.7
824.727,6356.9
825.0,6361.7
825.274,6343.0
825.547,6293.6
825.821,6334.8
826.094,6369.6
826.367,6308.6
826.641,6269.1
826.914,6248.1
827.188,6189.1
827.461,6189.0
827.735,6149.6
828.008,6153.5
828.282,6176.1
828.555,6171.2
828.828,6153.5
829.102,6170.7
829.375,6143.6
829.649,6141.5
829.922,6149.7
830.195,6147.2
830.469,6106.7
830.742,6096.6
831.016,6135.2
831.289,6097.9
831.562,6123.5
831.836,6088.5
832.109,6031.3
832.382,6006.2
832.656,6005.8
832.929,6028.7
833.202,6025.6
833.476,6008.4
833.749,6008.7
834.022,5973.3
834.295,5991.2
834.569,5954.7
834.842,5943.1
835.115,5965.2
835.388,5965.6
835.662,5972.9
835.935,5917.3
836.208,5961.9
836.481,5954.6
836.755,5972.0
837.028,6004.9
837.301,5955.5
837.574,5967.9
837.848,5968.6
838.121,5975.7
838.394,5925.3
838.667,5927.7
838.94,5980.1
839.213,5961.0
839.487,5921.0
839.76,5871.9
840.033,5902.2
840.306,5894.6
840.579,5941.1
840.852,5932.5
841.125,5916.5
841.399,5975.5
841.672,5988.3
841.945,5949.3
842.218,5893.1
842.491,5915.1
842.764,5866.9
843.037,5871.9
843.31,5913.8
843.583,5871.7
843.856,5819.7
844.129,5823.8
844.402,5783.6
844.675,5788.4
844.948,5776.8
845.221,5752.8
845.495,5750.2
845.768,5733.6
846.041,5736.3
846.314,5740.8
846.586,5687.8
846.859,5723.1
847.132,5711.4
847.405,5680.6
847.678,5682.4
847.951,5688.0
848.224,5677.7
848.497,5645.1
848.77,5673.0
849.043,5606.6
849.316,5632.1
849.589,5649.6
849.862,5657.4
850.135,5628.7
850.408,5602.7
850.68,5625.9
850.953,5602.8
851.226,5601.0
851.499,5599.6
851.772,5610.6
852.045,5620.7
852.318,5619.3
852.591,5593.9
852.863,5585.1
853.136,5591.5
853.409,5575.5
853.682,5564.8
853.955,5543.9
854.227,5535.8
854.5,5536.0
854.773,5554.2
855.046,5537.4
855.318,5514.8
855.591,5535.0
855.864,5525.4
856.137,5526.3
856.409,5501.8
856.682,5500.4
856.955,5469.2
857.228,5467.3
857.5,5501.1
857.773,5526.9
858.046,5538.5
858.318,5517.1
858.591,5491.7
858.864,5521.1
859.136,5529.5
859.409,5510.7
859.682,5507.3
859.954,5502.0
860.227,5525.5
860.5,5498.1
860.772,5480.6
861.045,5478.8
861.318,5454.0
861.59,5460.6
861.863,5427.0
862.135,5388.3
862.408,5365.0
862.681,5379.5
862.953,5388.5
863.226,5347.9
863.498,5353.3
863.771,5372.0
864.043,5382.8
864.316,5394.1
864.588,5396.7
864.861,5358.5
865.133,5343.0
865.406,5356.2
865.678,5298.6
865.951,5293.3
866.223,5315.3
866.496,5271.8
866.768,5279.6
867.041,5248.7
867.313,5253.8
867.586,5285.3
867.858,5270.9
868.131,5263.3
868.403,5255.9
868.675,5255.2
868.948,5241.3
869.22,5256.9
869.493,5253.7
869.765,5252.2
870.037,5253.4
870.31,5285.7
870.582,5254.5
870.854,5264.3
871.127,5266.9
871.399,5301.7
871.672,5307.6
871.944,5319.6
872.216,5328.4
872.488,5320.5
872.761,5335.1
873.033,5320.5
873.305,5311.4
873.578,5284.9
873.85,5264.0
874.122,5267.2
874.394,5248.4
874.667,5223.8
874.939,5173.7
875.211,5180.1
875.483,5183.9
875.756,5166.1
876.028,5143.0
876.3,5142.2
876.572,5152.6
876.845,5142.9
877.117,5120.9
877.389,5112.1
877.661,5121.0
877.933,5135.2
878.205,5098.0
878.478,5046.9
878.75,5067.4
879.022,5071.6
879.294,5073.3
879.566,5083.1
879.838,5077.3
880.11,5054.0
880.382,5027.9
880.654,5039.4
880.927,5055.9
881.199,5046.8
881.471,5023.7
881.743,5041.1
882.015,5022.7
882.287,5030.6
882.559,5022.6
882.831,5014.7
883.103,5034.9
883.375,5008.1
883.647,4990.0
883.919,4997.3
884.191,4981.4
884.463,4978.9
884.735,4994.6
885.007,4967.8
885.279,4989.7
885.551,4991.5
885.823,4995.5
886.095,4981.4
886.367,4959.7
886.639,4971.0
886.91,4918.8
887.182,4946.4
887.454,4908.6
887.726,4909.6
887.998,4907.7
888.27,4900.2
888.542,4893.1
888.814,4900.1
889.085,4873.4
889.357,4869.8
889.629,4861.2
889.901,4872.6
890.173,4880.9
890.445,4858.2
890.716,4859.7
890.988,4870.5
891.26,4856.5
891.532,4866.1
891.804,4841.2
892.075,4831.1
892.347,4845.5
892.619,4838.8
892.891,4845.6
893.162,4810.8
893.434,4783.8
893.706,4785.3
893.978,4778.3
894.249,4788.8
894.521,4763.1
894.793,4764.0
895.064,4759.8
895.336,4772.4
895.608,4738.4
895.879,4741.5
896.151,4755.8
896.423,4749.3
896.694,4725.3
896.966,4721.7
897.237,4755.8
897.509,4806.4
897.781,4867.3
898.052,4905.8
898.324,4898.3
898.595,4897.0
898.867,4887.1
899.139,4833.3
899.41,4812.3
899.682,4792.4
899.953,4744.8
900.225,4723.4
900.496,4675.4
900.768,4631.8
901.039,4630.1
901.311,4641.1
901.582,4640.5
901.854,4626.2
902.125,4633.5
902.397,4624.0
902.668,4613.2
902.94,4607.2
903.211,4598.5
903.482,4622.4
903.754,4621.4
904.025,4611.6
904.297,4607.1
904.568,4603.5
904.839,4602.5
905.111,4579.0
905.382,4589.2
905.654,4602.8
905.925,4609.9
906.196,4609.7
906.468,4630.8
906.739,4656.1
907.01,4664.2
907.282,4705.0
907.553,4684.2
907.824,4692.0
908.096,4688.2
908.367,4678.9
908.638,4660.0
908.909,4633.9
909.181,4598.0
909.452,4585.3
909.723,4558.0
909.994,4535.8
910.266,4530.7
910.537,4499.6
910.808,4482.9
911.079,4488.6
911.35,4482.0
911.622,4476.5
911.893,4458.5
912.164,4438.7
912.435,4429.1
912.706,4436.9
912.977,4447.5
913.249,4444.2
913.52,4444.4
913.791,4436.6
914.062,4425.1
914.333,4411.8
914.604,4397.2
914.875,4405.4
915.146,4415.2
915.417,4415.9
915.688,4410.2
915.959,4393.7
916.231,4389.0
916.502,4383.8
916.773,4391.1
917.044,4373.0
917.315,4360.9
917.586,4368.4
917.857,4373.2
918.128,4357.9
918.399,4379.1
918.67,4358.7
918.941,4380.2
919.211,4359.3
919.482,4355.7
919.753,4377.7
920.024,4339.4
920.295,4341.9
920.566,4342.7
920.837,4328.9
921.108,4345.7
921.379,4348.1
921.65,4329.8
921.921,4325.8
922.191,4313.5
922.462,4301.8
922.733,4309.1
923.004,4304.2
923.275,4307.3
923.546,4300.0
923.816,4289.3
924.087,4276.5
924.358,4282.2
924.629,4271.3
924.9,4270.7
925.17,4268.5
925.441,4270.2
925.712,4264.3
925.983,4274.4
926.253,4260.2
926.524,4255.4
926.795,4252.2
927.065,4250.1
927.336,4234.0
927.607,4236.8
927.877,4229.2
928.148,4231.9
928.419,4214.9
928.689,4207.0
928.96,4195.4
929.231,4190.4
929.501,4184.0
929.772,4184.5
930.043,4182.1
930.313,4170.4
930.584,4159.1
930.854,4176.6
931.125,4175.0
931.396,4170.6
931.666,4165.5
931.937,4149.3
932.207,4143.3
932.478,4142.3
932.748,4133.8
933.019,4140.6
933.289,4132.9
933.56,4136.4
933.83,4132.2
934.101,4134.5
934.371,4130.4
934.642,4129.2
934.912,4124.5
935.183,4126.8
935.453,4117.7
935.723,4107.8
935.994,4114.2
936.264,4101.0
936.535,4098.3
936.805,4090.7
937.075,4093.4
937.346,4082.1
937.616,4102.1
937.886,4085.2
938.157,4093.5
938.427,4089.0
938.697,4078.5
938.968,4072.0
939.238,4080.1
939.508,4077.1
939.779,4065.5
940.049,4069.9
940.319,4064.3
940.59,4067.2
940.86,4069.8
941.13,4062.1
941.4,4060.7
941.671,4060.6
941.941,4054.3
942.211,4050.0
942.481,4049.8
942.751,4050.1
943.022,4040.6
943.292,4036.3
943.562,4040.8
943.832,4030.9
944.102,4036.0
944.372,4024.4
944.642,4024.8
944.913,4020.5
945.183,4018.1
945.453,4011.6
945.723,4010.2
945.993,4007.7
946.263,4010.8
946.533,4012.3
946.803,4009.9
947.073,4006.4
947.343,4010.6
947.613,4011.6
947.883,4012.5
948.153,4002.7
948.423,3997.2
948.693,3996.5
948.963,3991.4
949.233,3993.7
949.503,3981.1
949.773,3985.2
950.043,3981.3
950.313,3975.4
950.583,3979.6
950.853,3973.7
951.123,3970.9
951.393,3977.6
951.663,3977.2
951.933,3964.8
952.202,3964.2
952.472,3959.3
952.742,3964.0
953.012,3967.8
953.282,3959.8
953.552,3962.4
953.822,3958.8
954.091,3960.6
954.361,3953.4
954.631,3952.7
954.901,3953.1
955.17,3943.3
955.44,3943.4
955.71,3938.1
955.98,3939.9
956.25,3946.6
956.519,3949.8
956.789,3935.8
957.059,3935.4
957.328,3926.5
957.598,3930.0
957.868,3934.7
958.137,3935.3
958.407,3932.4
958.677,3931.2
958.946,3928.3
959.216,3922.6
959.486,3918.8
959.755,3915.2
960.025,3920.7
960.294,3924.1
960.564,3921.0
960.834,3918.7
961.103,3909.8
961.373,3913.8
961.642,3914.8
961.912,3910.0
962.181,3913.4
962.451,3909.4
962.72,3904.0
962.99,3904.0
963.259,3904.5
963.529,3908.6
963.798,3903.3
964.068,3903.5
964.337,3900.9
964.607,3905.4
964.876,3905.8
965.146,3899.3
965.415,3899.9
965.684,3897.0
965.954,3892.5
966.223,3887.1
966.493,3897.4
966.762,3895.6
967.031,3891.3
967.301,3888.1
967.57,3887.8
967.839,3887.4
968.109,3888.3
968.378,3893.4
968.647,3889.4
968.917,3889.6
969.186,3886.2
969.455,3885.5
969.724,3883.3
969.994,3885.3
970.263,3884.1
970.532,3881.0
970.801,3882.6
971.071,3880.6
971.34,3879.4
971.609,3881.4
971.878,3876.1
972.147,3872.1
972.417,3870.9
972.686,3871.9
972.955,3871.5
973.224,3871.0
973.493,3870.4
973.762,3871.8
974.031,3867.6
974.3,3863.2
974.57,3861.2
974.839,3858.3
975.108,3860.9
975.377,3857.9
975.646,3862.6
975.915,3856.0
976.184,3857.6
976.453,3856.9
976.722,3861.0
976.991,3853.5
977.26,3852.5
977.529,3851.2
977.798,3852.5
978.067,3856.7
978.336,3848.8
978.605,3855.2
978.874,3853.6
979.143,3854.3
979.412,3848.9
979.68,3852.5
979.949,3852.0
980.218,3848.2
980.487,3845.7
980.756,3845.4
981.025,3846.3
981.294,3845.0
981.563,3843.3
981.831,3842.9
982.1,3843.8
982.369,3840.8
982.638,3840.9
982.907,3840.7
983.175,3840.3
983.444,3836.7
983.713,3835.6
983.982,3840.5
984.25,3835.6
984.519,3839.6
984.788,3834.2
985.057,3832.6
985.325,3836.3
985.594,3838.1
985.863,3835.4
986.131,3838.4
986.4,3837.2
986.669,3839.0
986.937,3834.8
987.206,3830.6
987.475,3830.8
987.743,3832.4
988.012,3830.2
988.28,3826.9
988.549,3831.5
988.817,3824.9
989.086,3824.4
989.355,3821.0
989.623,3828.6
989.892,3826.3
990.16,3827.3
990.429,3826.1
990.697,3822.4
990.966,3824.5
991.234,3822.4
991.503,3820.2
991.771,3822.4
992.04,3819.0
992.308,3817.7
992.576,3816.7
992.845,3819.2
993.113,3816.4
993.382,3813.8
993.65,3816.5
993.918,3817.1
994.187,3817.4
994.455,3814.2
994.723,3813.0
994.992,3810.7
995.26,3812.4
995.528,3812.5
995.797,3810.5
996.065,3815.4
996.333,3815.9
996.602,3810.9
996.87,3809.4
997.138,3810.3
997.406,3809.7
997.675,3810.2
997.943,3806.9
998.211,3808.8
998.479,3810.3
998.747,3805.8
999.016,3805.6
999.284,3808.4
999.552,3803.0
999.82,3804.9
1000.09,3802.7
1000.36,3804.7
1000.62,3800.4
1000.89,3804.9
1001.16,3798.8
1001.43,3801.1
1001.7,3802.5
1001.97,3800.4
1002.23,3800.8
1002.5,3798.5
1002.77,3799.6
1003.04,3796.3
1003.31,3798.0
1003.57,3796.2
1003.84,3793.3
1004.11,3794.2
1004.38,3794.1
1004.65,3794.1
1004.91,3794.5
1005.18,3794.4
1005.45,3795.6
1005.72,3796.1
1005.98,3793.0
1006.25,3792.1
1006.52,3791.3
1006.79,3790.8
1007.06,3792.0
1007.32,3794.5
1007.59,3788.7
1007.86,3788.2
1008.13,3789.4
1008.4,3790.0
1008.66,3789.1
1008.93,3788.9
1009.2,3786.3
1009.47,3785.7
1009.73,3787.9
1010.0,3785.8
1010.27,3786.9
1010.54,3787.0
1010.81,3786.6
1011.07,3786.4
1011.34,3785.3
1011.61,3784.7
1011.88,3788.5
1012.14,3784.0
1012.41,3786.4
1012.68,3784.0
1012.95,3784.3
1013.21,3783.6
1013.48,3780.2
1013.75,3784.7
1014.02,3781.9
1014.29,3781.0
1014.55,3780.3
1014.82,3780.6
1015.09,3781.6
1015.36,3780.4
1015.62,3781.3
1015.89,3779.2
1016.16,3782.2
1016.43,3779.4
1016.69,3778.7
1016.96,3782.4
1017.23,3778.5
1017.5,3781.2
1017.76,3779.0
1018.03,3776.9
1018.3,3777.4
1018.57,3776.9
1018.83,3777.0
1019.1,3776.4
1019.37,3778.1
1019.63,3777.5
1019.9,3775.7
1020.17,3774.5
1020.44,3776.0
1020.7,3775.9
1020.97,3776.4
1021.24,3776.4
1021.51,3777.9
1021.77,3775.4
1022.04,3778.1
1022.31,3775.5
1022.58,3776.4
1022.84,3776.6
1023.11,3775.4
1023.38,3777.2
1023.64,3775.3
1023.91,3774.2
1024.18,3776.4
1024.45,3773.4
1024.71,3772.9
1024.98,3774.7
1025.25,3774.8
1025.51,3774.1
1025.78,3772.7
1026.05,3772.9
1026.32,3772.3
1026.58,3770.9
1026.85,3771.3
1027.12,3770.4
1027.38,3770.9
1027.65,3769.9
1027.92,3771.2
1028.19,3769.6
1028.45,3768.5
1028.72,3769.7
1028.99,3768.4
1029.25,3766.6
1029.52,3766.6
1029.79,3769.6
1030.05,3767.3
1030.32,3768.5
1030.59,3765.1
1030.85,3767.0
1031.12,3767.5
1031.39,3767.4
1031.66,3765.9
1031.92,3766.1
1032.19,3764.3
1032.46,3768.1
1032.72,3765.8
1032.99,3767.2
1033.26,3766.4
1033.52,3767.5
1033.79,3767.6
1034.06,3766.9
1034.32,3765.8
1034.59,3767.8
1034.86,3766.2
1035.12,3766.7
1035.39,3765.7
1035.66,3767.1
1035.92,3765.6
1036.19,3766.2
1036.46,3766.1
1036.72,3765.4
1036.99,3766.8
1037.26,3765.4
1037.52,3764.5
1037.79,3765.0
1038.06,3765.7
1038.32,3762.1
1038.59,3762.3
1038.86,3764.3
1039.12,3763.2
1039.39,3763.2
1039.66,3760.1
1039.92,3763.7
1040.19,3762.9
1040.46,3761.7
1040.72,3763.6
1040.99,3760.7
1041.26,3760.1
1041.52,3763.1
1041.79,3761.3
1042.06,3759.1
1042.32,3761.1
1042.59,3761.6
1042.86,3760.4
1043.12,3760.4
1043.39,3760.0
1043.65,3761.4
1043.92,3760.2
1044.19,3760.8
1044.45,3761.5
1044.72,3760.0
1044.99,3760.5
1045.25,3759.8
1045.52,3759.3
1045.79,3758.0
1046.05,3759.7
1046.32,3759.5
1046.58,3760.7
1046.85,3760.6
1047.12,3760.7
1047.38,3759.8
1047.65,3758.4
1047.92,3757.7
1048.18,3760.2
1048.45,3761.0
1048.71,3760.3
1048.98,3759.2
1049.25,3759.3
1049.51,3759.9
1049.78,3758.0
1050.04,3757.3
1050.31,3759.5
1050.58,3758.0
1050.84,3760.6
1051.11,3759.6
1051.37,3759.3
1051.64,3758.7
1051.91,3758.4
1052.17,3760.4
1052.44,3757.2
1052.7,3758.8
1052.97,3758.6
1053.24,3755.9
1053.5,3758.9
1053.77,3759.4
1054.03,3757.8
1054.3,3757.5
1054.57,3757.1
1054.83,3757.8
1055.1,3758.7
1055.36,3759.7
1055.63,3758.7
1055.9,3757.6
1056.16,3757.8
1056.43,3757.1
1056.69,3758.1
1056.96,3757.6
1057.23,3756.0
1057.49,3756.2
1057.76,3759.0
1058.02,3756.7
1058.29,3758.7
1058.55,3757.8
1058.82,3756.6
1059.09,3755.8
1059.35,3756.9
1059.62,3756.2
1059.88,3757.2
1060.15,3757.0
1060.41,3756.7
1060.68,3756.7
1060.95,3755.5
1061.21,3756.1
1061.48,3758.3
1061.74,3755.6
1062.01,3757.1
1062.27,3757.2
1062.54,3755.7
1062.8,3755.2
1063.07,3758.4
1063.34,3757.0
1063.6,3755.5
1063.87,3758.6
1064.13,3758.2
1064.4,3757.5
1064.66,3756.1
1064.93,3757.2
1065.19,3755.7
1065.46,3755.8
1065.73,3757.4
1065.99,3755.4
1066.26,3756.2
1066.52,3757.0
1066.79,3756.4
1067.05,3755.4
1067.32,3753.3
1067.58,3755.0
1067.85,3755.3
1068.11,3753.3