File: spectra/VLFR_01-LDPE_bio_Raman_86a5d224.csv
nm,Intensity
528.625,1844.8
528.793,1844.5
528.962,1844.0
529.13,1843.8
529.299,1844.3
529.467,1845.6
529.636,1844.8
529.804,1844.5
529.973,1844.3
530.141,1845.4
530.31,1844.7
530.478,1845.6
530.646,1846.5
530.815,1845.3
530.983,1846.0
531.152,1846.8
531.32,1847.3
531.488,1852.9
531.657,1887.5
531.825,2412.2
531.994,3989.5
532.162,3305.1
532.33,1987.8
532.499,1848.4
532.667,1846.1
532.836,1845.6
533.004,1845.7
533.172,1846.4
533.341,1851.4
533.509,1878.2
533.677,2035.5
533.846,2326.3
534.014,2443.4
534.182,2453.3
534.35,2426.2
534.519,2399.4
534.687,2401.3
534.855,2357.6
535.024,2333.0
535.192,2295.4
535.36,2278.4
535.528,2250.6
535.697,2223.4
535.865,2197.5
536.033,2169.0
536.201,2166.2
536.37,2167.8
536.538,2148.7
536.706,2141.5
536.874,2148.7
537.043,2141.8
537.211,2154.6
537.379,2150.9
537.547,2145.5
537.715,2147.2
537.884,2150.5
538.052,2142.5
538.22,2135.7
538.388,2118.1
538.556,2122.2
538.724,2108.9
538.893,2104.4
539.061,2089.3
539.229,2098.8
539.397,2094.6
539.565,2072.9
539.733,2081.7
539.901,2090.0
540.069,2071.0
540.238,2086.3
540.406,2081.3
540.574,2081.7
540.742,2075.9
540.91,2082.3
541.078,2087.5
541.246,2081.5
541.414,2072.9
541.582,2070.0
541.75,2083.9
541.918,2080.2
542.086,2084.6
542.254,2085.8
542.422,2078.4
542.59,2074.6
542.758,2071.5
542.926,2085.2
543.094,2082.0
543.262,2083.6
543.43,2068.9
543.598,2085.1
543.766,2082.2
543.934,2078.6
544.102,2088.2
544.27,2090.2
544.438,2093.0
544.606,2084.2
544.774,2079.5
544.942,2077.5
545.11,2083.1
545.278,2088.8
545.446,2082.9
545.614,2086.8
545.781,2093.0
545.949,2090.8
546.117,2088.7
546.285,2093.8
546.453,2090.5
546.621,2099.0
546.789,2091.0
546.957,2100.9
547.124,2101.0
547.292,2098.6
547.46,2099.9
547.628,2113.5
547.796,2099.4
547.964,2091.8
548.131,2105.7
548.299,2102.9
548.467,2110.3
548.635,2096.7
548.803,2100.0
548.97,2107.8
549.138,2085.4
549.306,2093.7
549.474,2101.0
549.641,2096.0
549.809,2090.9
549.977,2102.0
550.145,2091.5
550.312,2103.6
550.48,2101.7
550.648,2098.3
550.816,2107.8
550.983,2103.7
551.151,2112.9
551.319,2113.9
551.486,2124.1
551.654,2116.0
551.822,2107.4
551.989,2126.5
552.157,2135.6
552.325,2118.6
552.492,2131.6
552.66,2125.7
552.828,2133.7
552.995,2143.1
553.163,2150.7
553.33,2171.5
553.498,2185.9
553.666,2164.8
553.833,2178.8
554.001,2162.7
554.168,2163.7
554.336,2178.5
554.504,2174.1
554.671,2181.8
554.839,2193.1
555.006,2186.5
555.174,2186.2
555.341,2200.7
555.509,2193.4
555.676,2211.2
555.844,2220.7
556.011,2230.7
556.179,2227.6
556.346,2235.0
556.514,2232.0
556.681,2250.9
556.849,2246.8
557.016,2271.5
557.184,2276.8
557.351,2286.2
557.519,2292.1
557.686,2300.0
557.854,2318.7
558.021,2323.1
558.188,2324.5
558.356,2332.2
558.523,2346.7
558.691,2345.6
558.858,2317.0
559.025,2295.2
559.193,2300.7
559.36,2284.9
559.528,2269.2
559.695,2284.1
559.862,2283.0
560.03,2264.3
560.197,2269.2
560.364,2274.3
560.532,2267.7
560.699,2257.8
560.866,2278.9
561.034,2287.7
561.201,2260.0
561.368,2277.0
561.536,2286.7
561.703,2300.6
561.87,2296.2
562.037,2318.5
562.205,2325.9
562.372,2326.0
562.539,2350.2
562.706,2340.6
562.874,2376.3
563.041,2357.1
563.208,2395.5
563.375,2434.2
563.543,2471.4
563.71,2708.1
563.877,3073.9
564.044,3352.9
564.211,2987.0
564.378,2663.3
564.546,2616.9
564.713,2602.1
564.88,2568.1
565.047,2550.8
565.214,2517.1
565.381,2492.2
565.549,2522.2
565.716,2621.9
565.883,2949.6
566.05,3445.8
566.217,3396.6
566.384,2850.1
566.551,2533.7
566.718,2476.3
566.885,2449.5
567.052,2457.0
567.219,2474.2
567.386,2485.8
567.554,2470.5
567.721,2447.4
567.888,2398.9
568.055,2380.1
568.222,2397.5
568.389,2403.6
568.556,2386.9
568.723,2390.3
568.89,2399.6
569.057,2401.6
569.224,2411.0
569.391,2409.3
569.558,2428.0
569.724,2420.2
569.891,2435.7
570.058,2465.0
570.225,2488.5
570.392,2494.6
570.559,2556.0
570.726,2577.7
570.893,2571.2
571.06,2672.6
571.227,2996.0
571.394,3752.4
571.56,4252.1
571.727,3483.3
571.894,3030.9
572.061,2901.5
572.228,2764.2
572.395,2706.7
572.562,2659.6
572.728,2615.6
572.895,2602.4
573.062,2597.4
573.229,2618.9
573.396,2601.3
573.562,2657.7
573.729,2677.5
573.896,2719.2
574.063,2737.2
574.23,2691.3
574.396,2657.1
574.563,2650.2
574.73,2673.7
574.897,2683.7
575.063,2729.5
575.23,2905.1
575.397,3187.5
575.563,3486.2
575.73,3468.8
575.897,3510.1
576.063,3954.7
576.23,4241.5
576.397,4224.9
576.563,3970.3
576.73,3957.4
576.897,3855.5
577.063,3800.8
577.23,3615.4
577.397,3405.1
577.563,3237.6
577.73,3177.5
577.897,3191.9
578.063,3196.8
578.23,3186.6
578.396,3252.1
578.563,3260.8
578.729,3252.2
578.896,3275.2
579.063,3324.5
579.229,3373.0
579.396,3373.7
579.562,3407.4
579.729,3422.3
579.895,3453.1
580.062,3524.9
580.228,3517.9
580.395,3556.1
580.561,3616.7
580.728,3638.6
580.894,3650.0
581.061,3706.9
581.227,3730.4
581.393,3767.1
581.56,3801.3
581.726,3824.2
581.893,3805.8
582.059,3858.2
582.226,3824.8
582.392,3918.6
582.558,3926.5
582.725,3962.1
582.891,3972.9
583.058,3963.6
583.224,4103.1
583.39,4113.4
583.557,4080.2
583.723,4080.4
583.889,4127.7
584.056,4156.8
584.222,4202.3
584.388,4148.5
584.555,4202.0
584.721,4184.4
584.887,4181.6
585.053,4274.6
585.22,4211.8
585.386,4315.8
585.552,4305.2
585.718,4314.1
585.885,4307.7
586.051,4275.9
586.217,4450.5
586.383,4393.2
586.55,4373.6
586.716,4408.7
586.882,4498.3
587.048,4486.4
587.214,4585.0
587.381,4554.6
587.547,4545.9
587.713,4535.7
587.879,4680.1
588.045,4699.5
588.211,4629.6
588.377,4735.5
588.544,4732.6
588.71,4785.8
588.876,4791.2
589.042,4770.5
589.208,4865.8
589.374,4859.7
589.54,4796.6
589.706,4967.2
589.872,4898.6
590.038,4913.6
590.204,4985.1
590.37,4919.3
590.536,5041.3
590.702,5011.4
590.869,5064.7
591.035,5086.1
591.201,5051.9
591.367,5118.4
591.532,5096.0
591.698,5161.0
591.864,5239.5
592.03,5161.7
592.196,5090.3
592.362,5201.2
592.528,5190.1
592.694,5253.3
592.86,5215.7
593.026,5034.8
593.192,5182.3
593.358,5080.2
593.524,5281.2
593.69,5188.1
593.855,5199.0
594.021,5234.3
594.187,5212.1
594.353,5218.9
594.519,5241.1
594.685,5191.0
594.851,5200.3
595.016,5271.5
595.182,5285.4
595.348,5254.6
595.514,5343.4
595.68,5291.3
595.845,5318.5
596.011,5342.8
596.177,5350.4
596.343,5357.2
596.508,5367.7
596.674,5354.5
596.84,5534.5
597.006,5400.8
597.171,5393.4
597.337,5480.3
597.503,5597.1
597.668,5560.5
597.834,5539.0
598.0,5528.9
598.165,5485.8
598.331,5641.8
598.497,5542.7
598.662,5556.7
598.828,5671.8
598.994,5763.4
599.159,5627.9
599.325,5647.9
599.49,5819.8
599.656,5749.9
599.822,5884.9
599.987,5784.5
600.153,5826.7
600.318,5843.6
600.484,5882.6
600.649,5728.1
600.815,5799.9
600.98,5906.5
601.146,5902.6
601.311,5764.7
601.477,5904.5
601.642,5863.7
601.808,5924.6
601.973,5783.0
602.139,5725.9
602.304,5887.8
602.47,5932.6
602.635,5745.8
602.801,5632.3
602.966,5797.8
603.132,5784.3
603.297,5711.9
603.462,5619.1
603.628,5655.8
603.793,5484.9
603.959,5546.4
604.124,5529.6
604.289,5530.7
604.455,5401.6
604.62,5444.9
604.785,5449.5
604.951,5277.3
605.116,5331.8
605.281,5261.4
605.447,5213.6
605.612,5179.3
605.777,5094.3
605.943,5201.1
606.108,5116.6
606.273,4993.1
606.438,5015.0
606.604,5038.6
606.769,4994.1
606.934,4932.6
607.099,4944.9
607.265,4889.7
607.43,4863.8
607.595,4838.4
607.76,4810.5
607.925,4678.8
608.09,4737.4
608.256,4711.1
608.421,4625.9
608.586,4629.4
608.751,4650.6
608.916,4588.7
609.081,4571.9
609.246,4518.1
609.412,4507.0
609.577,4510.0
609.742,4503.8
609.907,4461.9
610.072,4453.7
610.237,4439.1
610.402,4438.3
610.567,4471.8
610.732,4401.4
610.897,4409.6
611.062,4419.0
611.227,4345.2
611.392,4379.2
611.557,4317.9
611.722,4306.0
611.887,4289.3
612.052,4180.8
612.217,4160.5
612.382,4215.5
612.547,4192.6
612.712,4166.9
612.877,4121.3
613.042,4126.1
613.207,4126.1
613.372,4051.7
613.536,4107.9
613.701,4091.8
613.866,4017.2
614.031,4049.3
614.196,4036.6
614.361,3987.4
614.526,4043.3
614.691,3929.4
614.855,3967.2
615.02,3959.6
615.185,3956.0
615.35,3923.3
615.515,3903.5
615.679,3904.7
615.844,3884.2
616.009,3879.7
616.174,3851.4
616.338,3887.3
616.503,3857.2
616.668,3837.3
616.833,3844.9
616.997,3838.7
617.162,3850.2
617.327,3839.0
617.491,3805.0
617.656,3829.8
617.821,3803.0
617.985,3819.8
618.15,3798.2
618.315,3727.7
618.479,3754.8
618.644,3788.5
618.809,3742.1
618.973,3666.4
619.138,3776.9
619.302,3766.9
619.467,3732.3
619.632,3727.7
619.796,3769.0
619.961,3730.4
620.125,3698.6
620.29,3682.7
620.454,3750.5
620.619,3734.7
620.783,3777.8
620.948,3751.0
621.112,3776.7
621.277,3811.0
621.441,3849.7
621.606,3877.5
621.77,3913.6
621.935,4035.6
622.099,4125.4
622.264,4087.8
622.428,4026.8
622.592,3986.3
622.757,3851.1
622.921,3769.6
623.086,3703.4
623.25,3732.9
623.414,3655.7
623.579,3557.6
623.743,3611.4
623.907,3629.2
624.072,3634.0
624.236,3604.2
624.4,3601.4
624.565,3601.1
624.729,3616.6
624.893,3578.0
625.058,3651.6
625.222,3643.2
625.386,3647.8
625.55,3667.9
625.715,3674.9
625.879,3806.7
626.043,3801.6
626.207,4065.7
626.372,4316.5
626.536,4779.6
626.7,6034.0
626.864,8161.6
627.028,10265.0
627.192,11385.1
627.357,10928.2
627.521,9832.9
627.685,9071.5
627.849,8396.6
628.013,8383.0
628.177,8939.9
628.341,10222.9
628.505,11351.3
628.67,11126.0
628.834,9528.0
628.998,8788.0
629.162,8571.5
629.326,8345.1
629.49,7780.5
629.654,7467.4
629.818,6961.6
629.982,6759.0
630.146,6663.8
630.31,6501.9
630.474,6422.3
630.638,6144.9
630.802,5904.3
630.966,5122.5
631.13,4561.3
631.294,4391.3
631.458,4224.0
631.621,4139.8
631.785,4007.4
631.949,3968.0
632.113,3844.4
632.277,3830.5
632.441,3714.8
632.605,3681.3
632.769,3775.8
632.933,3705.0
633.096,3655.9
633.26,3703.2
633.424,3661.8
633.588,3612.1
633.752,3663.9
633.915,3719.7
634.079,3628.3
634.243,3583.1
634.407,3577.3
634.57,3622.2
634.734,3571.2
634.898,3585.9
635.062,3600.8
635.225,3645.8
635.389,3522.2
635.553,3525.1
635.716,3558.9
635.88,3551.1
636.044,3571.3
636.207,3577.1
636.371,3582.0
636.535,3605.4
636.698,3524.3
636.862,3523.8
637.026,3619.5
637.189,3548.8
637.353,3564.1
637.516,3565.9
637.68,3526.3
637.844,3587.8
638.007,3577.2
638.171,3542.6
638.334,3570.9
638.498,3582.2
638.661,3575.0
638.825,3656.2
638.988,3576.0
639.152,3583.0
639.315,3623.6
639.479,3541.8
639.642,3570.3
639.806,3617.9
639.969,3606.1
640.133,3578.7
640.296,3545.0
640.459,3532.2
640.623,3617.4
640.786,3614.2
640.95,3531.8
641.113,3630.3
641.276,3542.2
641.44,3596.7
641.603,3591.7
641.766,3619.4
641.93,3556.6
642.093,3625.3
642.256,3680.4
642.42,3568.4
642.583,3549.1
642.746,3630.1
642.909,3624.7
643.073,3626.5
643.236,3554.5
643.399,3609.1
643.562,3688.4
643.726,3667.5
643.889,3573.8
644.052,3626.4
644.215,3640.7
644.379,3604.1
644.542,3639.6
644.705,3633.9
644.868,3658.6
645.031,3584.6
645.194,3607.6
645.357,3575.2
645.521,3607.4
645.684,3621.0
645.847,3591.2
646.01,3580.3
646.173,3607.9
646.336,3606.4
646.499,3550.1
646.662,3619.1
646.825,3582.0
646.988,3559.9
647.151,3513.7
647.314,3610.0
647.477,3566.1
647.64,3540.5
647.803,3485.6
647.966,3554.9
648.129,3535.6
648.292,3469.4
648.455,3500.1
648.618,3521.7
648.781,3512.7
648.944,3483.4
649.107,3489.0
649.27,3448.6
649.433,3418.6
649.595,3512.7
649.758,3421.1
649.921,3427.0
650.084,3372.4
650.247,3414.4
650.41,3417.4
650.572,3425.8
650.735,3500.4
650.898,3438.3
651.061,3401.2
651.224,3408.0
651.386,3445.9
651.549,3473.9
651.712,3386.1
651.875,3395.9
652.037,3412.0
652.2,3457.8
652.363,3385.8
652.526,3429.0
652.688,3371.4
652.851,3390.0
653.014,3333.9
653.176,3279.5
653.339,3330.7
653.502,3344.4
653.664,3348.4
653.827,3306.1
653.989,3311.4
654.152,3308.1
654.315,3294.4
654.477,3322.1
654.64,3253.0
654.802,3280.2
654.965,3258.7
655.127,3358.7
655.29,3278.5
655.452,3279.7
655.615,3230.0
655.777,3253.0
655.94,3244.5
656.102,3215.9
656.265,3273.3
656.427,3239.1
656.59,3199.7
656.752,3194.3
656.915,3211.9
657.077,3206.7
657.24,3210.8
657.402,3165.7
657.564,3094.3
657.727,3135.1
657.889,3165.8
658.051,3141.0
658.214,3084.2
658.376,3039.1
658.538,3090.1
658.701,3074.4
658.863,3012.9
659.025,2973.3
659.188,3004.1
659.35,2980.9
659.512,2985.1
659.674,2984.8
659.837,2935.3
659.999,2981.4
660.161,2949.2
660.323,2960.4
660.486,2941.6
660.648,2903.3
660.81,2850.2
660.972,2883.3
661.053,2875.1