File: spectra/VLFR_01-LDPE_bio_Raman_7192871e.csv
nm,Intensity
528.65,1850.7
528.819,1850.65
528.987,1851.45
529.155,1850.4
529.324,1851.3
529.492,1851.7
529.66,1851.0
529.829,1851.15
529.997,1851.1
530.165,1850.3
530.334,1852.55
530.502,1851.4
530.67,1852.0
530.839,1851.1
531.007,1851.6
531.175,1854.15
531.344,1855.0
531.512,1858.85
531.68,1883.9
531.848,2337.35
532.017,3915.75
532.185,4206.1
532.353,2246.75
532.521,1856.9
532.69,1853.5
532.858,1853.1
533.026,1853.2
533.194,1851.7
533.363,1853.6
533.531,1864.4
533.699,1933.0
533.867,2086.15
534.036,2190.05
534.204,2212.9
534.372,2219.55
534.54,2203.0
534.708,2205.2
534.877,2220.35
535.045,2209.35
535.213,2200.1
535.381,2196.35
535.549,2196.1
535.717,2182.75
535.886,2178.85
536.054,2167.45
536.222,2167.55
536.39,2169.5
536.558,2157.05
536.726,2173.8
536.894,2168.9
537.062,2163.05
537.231,2164.25
537.399,2181.55
537.567,2172.3
537.735,2169.25
537.903,2160.0
538.071,2171.15
538.239,2175.8
538.407,2152.0
538.575,2160.25
538.743,2158.95
538.911,2163.95
539.079,2168.3
539.247,2166.2
539.415,2175.05
539.583,2172.65
539.751,2160.25
539.919,2162.9
540.087,2164.6
540.255,2166.25
540.423,2161.45
540.591,2164.05
540.759,2163.85
540.927,2173.8
541.095,2159.2
541.263,2157.7
541.431,2158.2
541.599,2161.1
541.767,2162.95
541.935,2166.55
542.103,2166.75
542.271,2169.2
542.439,2170.05
542.607,2169.9
542.775,2173.2
542.943,2169.1
543.111,2165.8
543.279,2175.75
543.446,2164.95
543.614,2168.3
543.782,2156.4
543.95,2165.35
544.118,2174.55
544.286,2167.8
544.454,2172.9
544.622,2164.95
544.789,2159.15
544.957,2169.35
545.125,2167.55
545.293,2173.8
545.461,2174.75
545.629,2167.0
545.796,2173.85
545.964,2169.85
546.132,2164.75
546.3,2170.5
546.468,2175.55
546.635,2176.55
546.803,2171.45
546.971,2169.1
547.139,2182.3
547.306,2183.0
547.474,2178.6
547.642,2172.05
547.81,2174.8
547.977,2185.15
548.145,2188.2
548.313,2180.35
548.481,2183.0
548.648,2175.95
548.816,2184.95
548.984,2184.75
549.151,2181.7
549.319,2185.35
549.487,2172.2
549.655,2178.35
549.822,2179.15
549.99,2177.2
550.158,2178.8
550.325,2178.2
550.493,2177.5
550.66,2193.3
550.828,2188.65
550.996,2184.5
551.163,2183.35
551.331,2192.6
551.499,2197.2
551.666,2195.25
551.834,2193.5
552.001,2191.65
552.169,2190.0
552.337,2194.35
552.504,2184.6
552.672,2200.8
552.839,2191.2
553.007,2209.65
553.174,2202.55
553.342,2203.15
553.509,2193.2
553.677,2208.65
553.844,2207.65
554.012,2204.1
554.179,2211.9
554.347,2217.6
554.514,2216.3
554.682,2212.15
554.849,2213.7
555.017,2213.65
555.184,2223.15
555.352,2216.4
555.519,2217.05
555.687,2212.25
555.854,2221.9
556.022,2225.15
556.189,2226.8
556.357,2224.65
556.524,2233.2
556.691,2235.2
556.859,2243.9
557.026,2242.2
557.194,2250.5
557.361,2247.7
557.528,2245.25
557.696,2245.65
557.863,2250.5
558.031,2255.35
558.198,2267.5
558.365,2257.25
558.533,2267.25
558.7,2274.0
558.867,2253.15
559.035,2253.75
559.202,2259.05
559.369,2259.85
559.537,2249.35
559.704,2255.45
559.871,2264.5
560.038,2270.5
560.206,2256.7
560.373,2261.35
560.54,2255.65
560.708,2258.15
560.875,2270.9
561.042,2260.25
561.209,2267.15
561.377,2279.15
561.544,2268.2
561.711,2284.25
561.878,2283.05
562.045,2273.05
562.213,2289.4
562.38,2296.55
562.547,2295.5
562.714,2312.45
562.881,2295.45
563.049,2303.6
563.216,2310.4
563.383,2320.2
563.55,2324.75
563.717,2364.4
563.884,2456.05
564.052,2559.55
564.219,2474.35
564.386,2387.7
564.553,2383.65
564.72,2378.1
564.887,2377.5
565.054,2363.85
565.221,2340.15
565.388,2343.55
565.556,2342.8
565.723,2380.1
565.89,2432.85
566.057,2554.35
566.224,2550.8
566.391,2468.3
566.558,2370.9
566.725,2359.6
566.892,2345.75
567.059,2354.55
567.226,2346.95
567.393,2365.0
567.56,2361.15
567.727,2342.5
567.894,2344.15
568.061,2336.55
568.228,2346.7
568.395,2341.65
568.562,2351.95
568.729,2346.15
568.896,2350.75
569.063,2352.3
569.23,2351.9
569.396,2354.45
569.563,2364.15
569.73,2368.7
569.897,2346.15
570.064,2375.6
570.231,2365.95
570.398,2386.45
570.565,2374.2
570.732,2396.65
570.898,2412.15
571.065,2392.1
571.232,2478.2
571.399,2665.0
571.566,2777.4
571.733,2666.2
571.9,2522.25
572.066,2479.05
572.233,2450.55
572.4,2434.4
572.567,2421.3
572.734,2406.4
572.9,2403.95
573.067,2394.55
573.234,2407.75
573.401,2402.85
573.567,2405.45
573.734,2397.8
573.901,2418.8
574.068,2421.45
574.234,2411.05
574.401,2381.05
574.568,2390.05
574.734,2387.1
574.901,2385.55
575.068,2415.0
575.235,2425.1
575.401,2494.55
575.568,2563.0
575.735,2560.6
575.901,2576.7
576.068,2681.95
576.235,2786.65
576.401,2804.8
576.568,2720.6
576.734,2705.45
576.901,2674.25
577.068,2659.75
577.234,2601.35
577.401,2535.75
577.567,2501.35
577.734,2471.8
577.901,2461.8
578.067,2450.35
578.234,2443.65
578.4,2438.45
578.567,2443.7
578.733,2455.15
578.9,2458.9
579.066,2449.05
579.233,2448.85
579.399,2472.45
579.566,2469.45
579.732,2472.5
579.899,2473.2
580.065,2490.25
580.232,2472.2
580.398,2476.1
580.565,2491.35
580.731,2467.4
580.898,2489.0
581.064,2491.0
581.231,2487.45
581.397,2505.2
581.563,2493.75
581.73,2490.35
581.896,2487.0
582.063,2488.25
582.229,2488.95
582.395,2491.85
582.562,2516.4
582.728,2506.95
582.895,2509.35
583.061,2492.2
583.227,2500.2
583.394,2485.0
583.56,2510.8
583.726,2513.95
583.893,2516.3
584.059,2525.4
584.225,2517.6
584.391,2502.65
584.558,2514.6
584.724,2511.6
584.89,2523.35
585.057,2532.25
585.223,2509.4
585.389,2519.55
585.555,2509.2
585.722,2523.6
585.888,2518.85
586.054,2508.75
586.22,2528.7
586.386,2539.6
586.553,2542.9
586.719,2547.4
586.885,2540.1
587.051,2538.4
587.217,2548.0
587.384,2563.7
587.55,2558.7
587.716,2565.75
587.882,2566.8
588.048,2569.4
588.214,2582.55
588.38,2581.65
588.546,2559.1
588.713,2579.0
588.879,2591.5
589.045,2581.95
589.211,2592.05
589.377,2602.5
589.543,2592.1
589.709,2604.9
589.875,2600.95
590.041,2606.9
590.207,2618.7
590.373,2602.85
590.539,2611.75
590.705,2602.9
590.871,2621.6
591.037,2614.85
591.203,2625.35
591.369,2633.2
591.535,2635.0
591.701,2651.95
591.867,2667.05
592.033,2645.0
592.199,2645.25
592.365,2664.6
592.531,2672.5
592.697,2656.15
592.863,2658.45
593.029,2668.55
593.195,2654.65
593.361,2682.45
593.526,2679.5
593.692,2651.2
593.858,2670.3
594.024,2676.7
594.19,2680.95
594.356,2703.45
594.522,2675.95
594.687,2671.8
594.853,2706.55
595.019,2706.75
595.185,2694.2
595.351,2682.7
595.516,2718.6
595.682,2739.4
595.848,2708.8
596.014,2744.9
596.18,2732.05
596.345,2742.65
596.511,2754.7
596.677,2727.4
596.843,2757.4
597.008,2739.7
597.174,2772.7
597.34,2780.65
597.505,2789.35
597.671,2782.15
597.837,2798.15
598.002,2800.75
598.168,2794.5
598.334,2801.05
598.499,2823.7
598.665,2813.35
598.831,2827.45
598.996,2822.9
599.162,2842.2
599.328,2858.55
599.493,2869.75
599.659,2841.6
599.824,2853.45
599.99,2880.3
600.156,2857.4
600.321,2845.3
600.487,2839.05
600.652,2864.6
600.818,2883.85
600.983,2866.2
601.149,2869.15
601.314,2864.3
601.48,2855.15
601.645,2898.1
601.811,2871.45
601.976,2863.95
602.142,2847.25
602.307,2857.0
602.473,2826.8
602.638,2834.9
602.804,2853.05
602.969,2867.5
603.135,2819.25
603.3,2819.95
603.466,2845.7
603.631,2823.95
603.796,2815.55
603.962,2808.3
604.127,2790.8
604.293,2807.05
604.458,2788.3
604.623,2776.2
604.789,2758.5
604.954,2776.75
605.119,2723.25
605.285,2753.85
605.45,2746.9
605.615,2728.4
605.781,2764.4
605.946,2720.25
606.111,2697.45
606.277,2721.3
606.442,2689.35
606.607,2677.45
606.772,2672.45
606.938,2692.4
607.103,2681.0
607.268,2672.0
607.433,2682.65
607.599,2670.1
607.764,2671.15
607.929,2633.2
608.094,2639.2
608.259,2636.55
608.425,2632.45
608.59,2634.3
608.755,2618.9
608.92,2628.85
609.085,2621.25
609.25,2618.6
609.415,2589.9
609.581,2608.8
609.746,2587.8
609.911,2609.4
610.076,2602.3
610.241,2590.9
610.406,2594.65
610.571,2590.35
610.736,2594.2
610.901,2591.8
611.066,2626.15
611.231,2560.25
611.396,2587.3
611.561,2570.3
611.727,2568.2
611.892,2548.3
612.057,2564.45
612.222,2549.55
612.386,2545.65
612.551,2554.35
612.716,2550.65
612.881,2543.4
613.046,2536.8
613.211,2547.1
613.376,2542.0
613.541,2517.6
613.706,2541.95
613.871,2536.05
614.036,2536.2
614.201,2533.95
614.366,2532.35
614.531,2529.5
614.695,2529.2
614.86,2527.65
615.025,2494.65
615.19,2512.65
615.355,2519.05
615.52,2534.0
615.684,2515.8
615.849,2513.3
616.014,2514.65
616.179,2501.6
616.344,2499.15
616.508,2507.8
616.673,2512.4
616.838,2504.85
617.003,2507.75
617.168,2507.1
617.332,2498.0
617.497,2488.55
617.662,2492.25
617.826,2504.85
617.991,2502.9
618.156,2511.3
618.32,2513.9
618.485,2486.0
618.65,2495.45
618.814,2494.3
618.979,2505.9
619.144,2494.5
619.308,2496.55
619.473,2498.55
619.638,2502.7
619.802,2507.45
619.967,2504.65
620.131,2512.9
620.296,2482.85
620.461,2496.95
620.625,2482.4
620.79,2498.7
620.954,2506.45
621.119,2539.3
621.283,2518.75
621.448,2529.45
621.612,2550.6
621.777,2553.1
621.941,2582.75
622.106,2606.3
622.27,2600.4
622.435,2579.7
622.599,2585.65
622.764,2533.7
622.928,2517.7
623.093,2509.75
623.257,2466.2
623.422,2500.1
623.586,2457.75
623.75,2459.8
623.915,2464.75
624.079,2469.8
624.244,2470.9
624.408,2468.05
624.572,2465.2
624.737,2468.25
624.901,2448.95
625.065,2471.05
625.23,2482.95
625.394,2466.9
625.558,2480.95
625.723,2471.9
625.887,2492.85
626.051,2522.85
626.215,2543.95
626.38,2611.1
626.544,2759.95
626.708,3001.7
626.872,3506.9
627.037,4091.55
627.201,4565.35
627.365,4448.7
627.529,4062.0
627.693,3803.25
627.858,3671.2
628.022,3673.25
628.186,3811.2
628.35,4161.25
628.514,4572.4
628.678,4423.3
628.843,3922.9
629.007,3776.35
629.171,3693.15
629.335,3618.85
629.499,3507.25
629.663,3387.8
629.827,3289.0
629.991,3214.05
630.155,3189.4
630.319,3215.1
630.483,3152.5
630.647,3052.75
630.812,2972.4
630.976,2824.45
631.14,2675.5
631.304,2589.65
631.468,2581.5
631.632,2515.75
631.796,2519.1
631.959,2502.35
632.123,2469.95
632.287,2456.1
632.451,2440.55
632.615,2440.6
632.779,2432.55
632.943,2427.9
633.107,2421.2
633.271,2414.9
633.435,2399.7
633.599,2405.95
633.763,2397.9
633.926,2406.75
634.09,2398.05
634.254,2374.45
634.418,2391.65
634.582,2378.7
634.746,2370.35
634.909,2381.55
635.073,2370.8
635.237,2365.7
635.401,2374.05
635.564,2360.05
635.728,2369.35
635.892,2365.1
636.056,2368.05
636.219,2352.6
636.383,2355.0
636.547,2369.3
636.711,2355.7
636.874,2345.25
637.038,2362.3
637.202,2364.05
637.365,2331.55
637.529,2341.2
637.693,2336.0
637.856,2344.35
638.02,2339.25
638.184,2356.6
638.347,2354.55
638.511,2322.6
638.674,2325.75
638.838,2341.35
639.002,2346.05
639.165,2324.6
639.329,2326.15
639.492,2352.7
639.656,2328.95
639.819,2329.75
639.983,2328.35
640.146,2343.75
640.31,2327.7
640.473,2327.95
640.637,2330.4
640.8,2325.55
640.964,2343.25
641.127,2316.05
641.291,2317.45
641.454,2320.25
641.618,2315.0
641.781,2329.8
641.944,2312.9
642.108,2313.7
642.271,2316.95
642.435,2331.25
642.598,2331.1
642.761,2314.0
642.925,2319.05
643.088,2307.6
643.251,2316.4
643.415,2319.0
643.578,2338.45
643.741,2324.05
643.905,2317.05
644.068,2319.95
644.231,2327.1
644.394,2324.5
644.558,2315.35
644.721,2322.65
644.884,2326.05
645.047,2311.8
645.211,2310.0
645.374,2308.2
645.537,2313.45
645.7,2307.0
645.863,2315.4
646.027,2294.7
646.19,2310.65
646.353,2321.1
646.516,2320.6
646.679,2302.0
646.842,2300.3
647.005,2300.5
647.169,2316.25
647.332,2310.05
647.495,2306.0
647.658,2311.15
647.821,2301.15
647.984,2288.75
648.147,2315.75
648.31,2313.75
648.473,2303.3
648.636,2285.6
648.799,2295.5
648.962,2307.05
649.125,2300.7
649.288,2304.5
649.451,2295.45
649.614,2291.95
649.777,2300.95
649.94,2302.5
650.103,2284.3
650.266,2285.8
650.429,2288.05
650.592,2295.15
650.755,2282.6
650.918,2295.25
651.08,2289.25
651.243,2285.15
651.406,2280.35
651.569,2280.7
651.732,2275.05
651.895,2286.5
652.058,2271.15
652.22,2295.8
652.383,2288.4
652.546,2273.1
652.709,2278.6
652.872,2271.35
653.034,2261.1
653.197,2266.8
653.36,2264.6
653.523,2268.3
653.685,2282.1
653.848,2271.95
654.011,2270.5
654.173,2266.2
654.336,2269.45
654.499,2247.4
654.662,2247.65
654.824,2256.4
654.987,2245.35
655.149,2251.35
655.312,2238.7
655.475,2251.8
655.637,2242.75
655.8,2259.2
655.963,2251.35
656.125,2234.1
656.288,2236.1
656.45,2237.8
656.613,2228.6
656.775,2232.9
656.938,2238.65
657.1,2228.4
657.263,2226.05
657.425,2225.1
657.588,2215.25
657.75,2227.1
657.913,2204.65
658.075,2196.55
658.238,2191.4
658.4,2187.85
658.563,2214.6
658.725,2206.65
658.888,2202.65
659.05,2208.1
659.212,2186.5
659.375,2188.05
659.537,2180.0
659.7,2193.6
659.862,2187.95
660.024,2183.8
660.187,2179.5
660.349,2175.15
660.511,2179.15
660.674,2176.25
660.836,2169.35
660.998,2175.7
661.079,2164.95