File: spectra/VLFR_02-HDPE_bio_Raman_2f16ce2b.csv
nm,Intensity
526.495,828.8
526.632,828.5
526.768,830.4
526.905,830.0
527.042,829.0
527.179,829.7
527.315,830.2
527.452,830.3
527.589,829.5
527.725,828.0
527.862,827.5
527.999,830.5
528.136,829.3
528.272,829.1
528.409,829.3
528.546,829.3
528.682,829.1
528.819,829.7
528.955,829.6
529.092,829.8
529.229,828.3
529.365,828.6
529.502,828.3
529.639,830.1
529.775,829.1
529.912,829.6
530.048,829.3
530.185,830.2
530.321,828.9
530.458,828.9
530.594,828.3
530.731,828.8
530.867,829.8
531.004,829.1
531.14,829.3
531.277,830.1
531.413,829.0
531.55,829.0
531.686,829.5
531.823,829.3
531.959,833.3
532.096,861.9
532.232,873.1
532.369,839.2
532.505,831.1
532.641,827.9
532.778,830.4
532.914,828.9
533.051,829.3
533.187,828.9
533.323,829.1
533.46,829.2
533.596,827.7
533.732,833.9
533.869,857.3
534.005,893.0
534.141,910.0
534.278,913.0
534.414,905.9
534.55,904.4
534.687,904.5
534.823,904.0
534.959,901.4
535.095,898.4
535.232,895.4
535.368,890.6
535.504,889.1
535.64,886.1
535.777,886.2
535.913,883.2
536.049,879.3
536.185,882.8
536.321,880.8
536.457,878.8
536.594,879.1
536.73,877.6
536.866,878.4
537.002,876.6
537.138,876.6
537.274,875.8
537.41,875.3
537.547,874.3
537.683,871.5
537.819,876.0
537.955,873.0
538.091,874.3
538.227,873.6
538.363,873.2
538.499,870.6
538.635,870.7
538.771,870.4
538.907,872.5
539.043,874.3
539.179,870.2
539.315,868.6
539.451,864.6
539.587,867.3
539.723,866.8
539.859,864.6
539.995,861.5
540.131,862.4
540.267,862.2
540.403,864.8
540.539,868.2
540.675,863.8
540.811,863.3
540.947,862.6
541.083,862.5
541.219,862.5
541.354,862.4
541.49,860.4
541.626,864.7
541.762,862.6
541.898,863.6
542.034,864.9
542.17,867.1
542.305,864.6
542.441,865.4
542.577,865.7
542.713,865.7
542.849,863.3
542.984,863.0
543.12,866.7
543.256,864.4
543.392,863.9
543.528,863.8
543.663,864.6
543.799,868.1
543.935,862.7
544.071,862.8
544.206,862.6
544.342,863.2
544.478,864.2
544.613,865.2
544.749,864.1
544.885,863.3
545.02,865.5
545.156,864.3
545.292,866.1
545.427,864.2
545.563,863.8
545.699,863.8
545.834,862.8
545.97,864.1
546.106,865.2
546.241,864.2
546.377,863.3
546.512,863.8
546.648,865.4
546.784,865.5
546.919,864.6
547.055,863.1
547.19,865.3
547.326,863.3
547.461,862.6
547.597,864.3
547.732,863.1
547.868,863.6
548.003,863.4
548.139,864.9
548.274,862.9
548.41,863.7
548.545,863.7
548.681,864.8
548.816,863.1
548.952,864.9
549.087,866.0
549.223,863.7
549.358,866.2
549.494,865.6
549.629,867.3
549.764,866.4
549.9,867.3
550.035,865.9
550.171,866.9
550.306,866.3
550.441,866.5
550.577,867.4
550.712,867.4
550.847,867.1
550.983,867.0
551.118,866.8
551.253,865.0
551.389,865.6
551.524,868.7
551.659,869.0
551.795,864.9
551.93,866.3
552.065,866.8
552.201,867.2
552.336,867.6
552.471,868.9
552.606,867.7
552.742,863.8
552.877,866.9
553.012,867.2
553.147,866.6
553.283,866.1
553.418,865.6
553.553,866.2
553.688,868.9
553.823,867.3
553.959,866.8
554.094,871.2
554.229,868.0
554.364,866.5
554.499,868.2
554.634,868.0
554.769,866.8
554.905,867.7
555.04,868.4
555.175,870.9
555.31,863.4
555.445,865.9
555.58,868.2
555.715,866.6
555.85,866.9
555.985,867.8
556.121,868.9
556.256,869.1
556.391,866.2
556.526,867.2
556.661,867.9
556.796,868.0
556.931,869.0
557.066,868.5
557.201,867.7
557.336,868.6
557.471,866.5
557.606,871.4
557.741,868.4
557.876,869.6
558.011,869.2
558.146,868.3
558.281,868.0
558.416,870.0
558.551,867.8
558.685,871.0
558.82,868.8
558.955,868.6
559.09,868.3
559.225,868.6
559.36,868.6
559.495,870.0
559.63,870.1
559.765,866.0
559.9,869.4
560.034,868.2
560.169,870.3
560.304,870.4
560.439,869.0
560.574,866.6
560.709,867.6
560.843,869.4
560.978,867.9
561.113,870.9
561.248,869.3
561.383,872.1
561.517,870.0
561.652,876.0
561.787,874.7
561.922,873.3
562.057,876.2
562.191,870.9
562.326,873.1
562.461,872.2
562.596,872.3
562.73,873.5
562.865,875.1
563.0,871.4
563.134,872.6
563.269,873.6
563.404,872.0
563.539,874.3
563.673,873.6
563.808,880.7
563.943,896.9
564.077,913.0
564.212,899.1
564.346,879.2
564.481,881.5
564.616,879.6
564.75,880.2
564.885,877.5
565.02,874.7
565.154,874.6
565.289,875.6
565.423,874.4
565.558,874.6
565.693,876.7
565.827,877.9
565.962,883.0
566.096,904.0
566.231,916.3
566.365,896.5
566.5,881.2
566.634,877.6
566.769,872.5
566.903,875.2
567.038,873.5
567.172,870.6
567.307,876.0
567.441,880.1
567.576,883.2
567.71,874.3
567.845,874.8
567.979,874.4
568.114,873.6
568.248,873.5
568.383,875.5
568.517,872.9
568.652,876.7
568.786,873.9
568.92,873.8
569.055,876.4
569.189,873.4
569.324,876.5
569.458,875.7
569.592,876.9
569.727,876.2
569.861,875.9
569.996,878.0
570.13,879.0
570.264,880.1
570.399,879.4
570.533,880.6
570.667,882.8
570.802,881.1
570.936,879.9
571.07,881.0
571.205,881.2
571.339,889.9
571.473,921.7
571.607,953.9
571.742,914.3
571.876,893.8
572.01,885.3
572.144,883.6
572.279,881.4
572.413,880.5
572.547,880.1
572.681,879.9
572.816,878.9
572.95,880.6
573.084,878.2
573.218,878.3
573.353,878.5
573.487,879.4
573.621,881.4
573.755,880.7
573.889,880.7
574.023,887.2
574.158,883.6
574.292,879.4
574.426,880.0
574.56,879.6
574.694,881.6
574.828,878.8
574.963,880.3
575.097,881.7
575.231,882.1
575.365,885.9
575.499,897.9
575.633,906.9
575.767,892.5
575.901,892.7
576.035,895.1
576.169,915.4
576.303,937.9
576.438,935.9
576.572,915.4
576.706,906.2
576.84,913.2
576.974,912.3
577.108,913.8
577.242,909.8
577.376,900.5
577.51,895.2
577.644,889.8
577.778,887.4
577.912,885.8
578.046,884.8
578.18,884.6
578.314,885.5
578.448,887.0
578.582,885.2
578.716,885.7
578.85,884.1
578.984,887.2
579.117,886.5
579.251,883.6
579.385,885.3
579.519,884.7
579.653,886.7
579.787,887.2
579.921,887.0
580.055,887.1
580.189,886.4
580.323,888.5
580.456,888.6
580.59,886.2
580.724,885.0
580.858,886.9
580.992,892.5
581.126,885.8
581.26,889.7
581.393,893.1
581.527,889.0
581.661,892.9
581.795,889.8
581.929,890.3
582.063,893.7
582.196,893.0
582.33,894.5
582.464,893.0
582.598,894.4
582.731,896.2
582.865,894.3
582.999,894.0
583.133,896.9
583.267,898.7
583.4,897.4
583.534,895.6
583.668,897.7
583.801,899.6
583.935,897.3
584.069,895.8
584.203,901.0
584.336,901.6
584.47,900.2
584.604,899.6
584.737,895.4
584.871,902.1
585.005,902.5
585.138,900.2
585.272,902.5
585.406,904.5
585.539,908.2
585.673,901.9
585.807,905.1
585.94,907.4
586.074,906.7
586.208,908.3
586.341,907.0
586.475,907.8
586.608,909.8
586.742,909.9
586.876,910.3
587.009,909.7
587.143,914.1
587.276,916.2
587.41,914.7
587.543,914.5
587.677,915.9
587.811,916.8
587.944,918.7
588.078,912.8
588.211,916.8
588.345,918.9
588.478,918.1
588.612,918.8
588.745,921.0
588.879,924.7
589.012,922.2
589.146,927.1
589.279,923.6
589.413,923.8
589.546,925.6
589.68,926.2
589.813,928.5
589.947,930.7
590.08,929.7
590.214,932.3
590.347,932.9
590.48,932.7
590.614,935.6
590.747,935.2
590.881,936.7
591.014,936.1
591.148,941.5
591.281,940.9
591.414,941.5
591.548,940.3
591.681,942.2
591.815,939.6
591.948,941.2
592.081,940.5
592.215,945.4
592.348,942.9
592.481,949.1
592.615,942.1
592.748,940.8
592.881,944.7
593.015,943.8
593.148,942.7
593.281,944.2
593.415,947.7
593.548,948.2
593.681,944.1
593.815,944.2
593.948,947.1
594.081,950.1
594.215,947.2
594.348,948.4
594.481,950.1
594.614,948.3
594.748,948.4
594.881,945.2
595.014,949.7
595.147,953.7
595.281,949.8
595.414,948.0
595.547,951.7
595.68,948.5
595.814,952.3
595.947,949.9
596.08,952.4
596.213,953.3
596.347,951.5
596.48,954.0
596.613,951.0
596.746,953.5
596.879,952.9
597.012,955.8
597.146,953.3
597.279,955.7
597.412,957.7
597.545,954.5
597.678,956.2
597.811,957.4
597.945,959.5
598.078,963.4
598.211,958.8
598.344,960.5
598.477,962.9
598.61,959.5
598.743,963.9
598.876,961.2
599.009,960.8
599.143,964.7
599.276,962.0
599.409,963.3
599.542,964.7
599.675,964.4
599.808,966.8
599.941,966.6
600.074,962.3
600.207,966.0
600.34,967.0
600.473,961.8
600.606,963.4
600.739,969.5
600.872,959.5
601.005,962.7
601.138,960.9
601.271,962.6
601.404,964.6
601.537,962.7
601.67,965.0
601.803,962.4
601.936,966.8
602.069,960.1
602.202,958.1
602.335,961.7
602.468,961.4
602.601,961.6
602.734,963.2
602.867,960.8
603.0,961.7
603.133,958.0
603.266,963.4
603.399,960.5
603.532,958.7
603.665,965.7
603.798,957.6
603.931,958.5
604.064,955.4
604.196,953.4
604.329,956.4
604.462,957.6
604.595,953.8
604.728,957.7
604.861,950.4
604.994,952.1
605.127,951.1
605.259,948.9
605.392,950.7
605.525,949.9
605.658,947.0
605.791,948.5
605.924,950.3
606.057,943.5
606.189,944.7
606.322,944.6
606.455,950.0
606.588,942.3
606.721,939.4
606.853,943.3
606.986,941.3
607.119,940.4
607.252,943.3
607.385,943.7
607.517,941.5
607.65,939.1
607.783,939.1
607.916,935.8
608.049,938.8
608.181,941.8
608.314,938.6
608.447,935.6
608.58,936.9
608.712,941.0
608.845,934.8
608.978,939.6
609.111,930.9
609.243,936.3
609.376,935.5
609.509,935.1
609.641,931.5
609.774,931.4
609.907,936.4
610.039,934.8
610.172,932.5
610.305,928.8
610.438,934.4
610.57,933.5
610.703,932.6
610.836,927.7
610.968,927.8
611.101,928.1
611.234,929.3
611.366,930.7
611.499,925.8
611.631,931.9
611.764,927.9
611.897,933.5
612.029,928.8
612.162,926.2
612.295,928.7
612.427,930.8
612.56,928.5
612.692,927.7
612.825,927.2
612.958,928.5
613.09,930.5
613.223,927.1
613.355,928.8
613.488,927.6
613.621,928.0
613.753,930.4
613.886,925.5
614.018,925.8
614.151,927.1
614.283,929.2
614.416,928.5
614.548,926.6
614.681,925.5
614.814,926.3
614.946,921.1
615.079,924.3
615.211,925.2
615.344,927.1
615.476,928.6
615.609,921.6
615.741,921.6
615.874,923.2
616.006,921.7
616.139,923.9
616.271,919.7
616.404,918.0
616.536,923.9
616.669,925.1
616.801,922.8
616.933,921.6
617.066,922.5
617.198,923.7
617.331,926.3
617.463,924.4
617.596,925.6
617.728,917.5
617.861,921.4
617.993,922.3
618.125,924.8
618.258,923.8
618.39,922.2
618.523,924.8
618.655,921.2
618.788,921.0
618.92,919.4
619.052,921.9
619.185,921.3
619.317,921.0
619.45,917.4
619.582,923.6
619.714,920.9
619.847,917.8
619.979,921.8
620.111,922.1
620.244,919.0
620.376,917.6
620.509,922.0
620.641,922.6
620.773,918.7
620.906,919.4
621.038,919.5
621.17,922.1
621.303,923.7
621.435,923.7
621.567,928.0
621.7,929.1
621.832,931.3
621.964,931.1
622.096,936.3
622.229,938.4
622.361,939.1
622.493,938.2
622.626,935.5
622.758,932.1
622.89,929.6
623.022,922.9
623.155,918.5
623.287,919.5
623.419,919.1
623.552,918.3
623.684,915.4
623.816,916.0
623.948,913.3
624.081,917.4
624.213,915.9
624.345,915.4
624.477,912.0
624.61,917.8
624.742,911.9
624.874,918.4
625.006,913.3
625.138,915.4
625.271,914.8
625.403,920.0
625.535,917.5
625.667,915.9
625.799,916.8
625.932,922.3
626.064,923.9
626.196,925.8
626.328,928.4
626.46,938.9
626.593,955.7
626.725,992.3
626.857,1046.6
626.989,1110.7
627.121,1200.7
627.253,1240.8
627.386,1223.8
627.518,1177.9
627.65,1132.2
627.782,1104.0
627.914,1088.0
628.046,1076.3
628.178,1089.5
628.311,1116.9
628.443,1197.2
628.575,1322.4
628.707,1265.8
628.839,1136.6
628.971,1096.5
629.103,1074.7
629.235,1070.8
629.367,1059.2
629.5,1050.2
629.632,1028.6
629.764,1015.4
629.896,1010.3
630.028,1000.0
630.16,999.4
630.292,998.1
630.424,993.9
630.556,995.4
630.688,983.3
630.82,973.2
630.952,957.3
631.084,943.3
631.216,929.8
631.349,927.2
631.481,922.1
631.613,921.7
631.745,917.8
631.877,917.4
632.009,915.7
632.141,911.2
632.273,917.7
632.405,912.2
632.537,909.1
632.669,910.4
632.801,911.1
632.933,909.7
633.065,907.6
633.197,910.7
633.329,910.1
633.461,906.9
633.593,909.1
633.725,906.8
633.857,908.1
633.989,908.2
634.121,907.1
634.253,909.4
634.385,911.0
634.517,910.1
634.649,908.5
634.781,907.3
634.912,905.2
635.044,910.1
635.176,905.5
635.308,908.2
635.44,909.9
635.572,908.3
635.704,908.0
635.836,907.6
635.968,906.0
636.1,910.7
636.232,910.9
636.364,910.4
636.496,907.6
636.628,911.2
636.76,907.8
636.891,910.5
637.023,905.7
637.155,910.2
637.287,910.7
637.419,909.0
637.551,910.2
637.683,910.7
637.815,909.1
637.947,912.2
638.078,910.2
638.21,909.3
638.342,912.4
638.474,909.7
638.606,909.5
638.738,911.0
638.87,911.1
639.002,912.9
639.133,911.9
639.265,914.1
639.397,912.6
639.529,915.0
639.661,917.6
639.793,917.5
639.924,913.5
640.056,912.8
640.188,911.4
640.32,914.7
640.452,917.8
640.584,915.0
640.715,915.7
640.847,916.7
640.979,915.4
641.111,916.1
641.243,915.8
641.374,917.7
641.506,917.3
641.638,919.1
641.77,922.6
641.902,919.2
642.033,919.3
642.165,921.7
642.297,922.3
642.429,925.0
642.561,920.8
642.692,921.7
642.824,922.0
642.956,926.6
643.088,920.7
643.219,923.1
643.351,923.1
643.483,922.7
643.615,921.5
643.746,924.8
643.878,922.3
644.01,921.1
644.142,924.0
644.273,922.6
644.405,924.1
644.537,927.6
644.669,923.7
644.8,921.9
644.932,923.6
645.064,926.4
645.195,930.4
645.327,927.2
645.459,929.0
645.591,925.5
645.722,928.5
645.854,930.2
645.986,928.0
646.117,924.9
646.249,929.6
646.381,931.3
646.512,929.7
646.644,929.8
646.776,930.6
646.908,933.2
647.039,929.1
647.171,926.2
647.303,932.7
647.434,930.1
647.566,936.2
647.698,935.5
647.829,928.4
647.961,931.9
648.093,934.6
648.224,933.3
648.356,936.4
648.488,934.1
648.619,934.4
648.751,936.8
648.883,933.5
649.014,934.6
649.146,936.7
649.277,932.0
649.409,939.3
649.541,934.3
649.672,932.8
649.804,939.2
649.936,938.0
650.067,931.9
650.199,935.7
650.33,941.9
650.462,934.7
650.594,935.3
650.725,935.5
650.857,933.5
650.988,933.4
651.12,936.5
651.252,934.8
651.383,934.3
651.515,934.9
651.646,931.8
651.778,931.9
651.91,931.4
652.041,934.3
652.173,931.9
652.304,928.4
652.436,931.8
652.568,933.1
652.699,934.2
652.831,931.7
652.962,929.0
653.094,931.0
653.225,930.3
653.357,927.3
653.489,927.8
653.62,922.7
653.752,928.6
653.883,926.0
654.015,923.5
654.146,921.2
654.278,924.5
654.409,924.5
654.541,925.3
654.672,918.6
654.804,926.6
654.935,919.2
655.067,921.2
655.199,923.6
655.33,924.1
655.462,920.0
655.593,915.3
655.725,915.7
655.856,917.6
655.988,916.8
656.119,919.3
656.251,916.5
656.382,915.6
656.514,915.6
656.645,913.4
656.777,917.1
656.908,910.1
657.04,913.9
657.171,910.9
657.303,909.6
657.434,912.8
657.566,909.9
657.697,912.2
657.829,907.8
657.96,909.3
658.092,907.7
658.223,910.0
658.355,906.9
658.486,911.0
658.617,905.2
658.749,906.3
658.88,907.3
659.012,901.9
659.143,905.0
659.275,901.3
659.406,903.0
659.538,901.7
659.669,906.1
659.801,904.5
659.932,904.3
660.064,900.4
660.195,902.7
660.326,902.4
660.458,902.0
660.589,895.9
660.721,898.2
660.852,899.6
660.984,897.3
661.115,896.2
661.246,895.1
661.378,895.4
661.509,893.7
661.641,898.8
661.772,892.5
661.904,891.1
662.035,893.3
662.166,893.8
662.298,893.8
662.429,892.3
662.561,892.0
662.692,891.6
662.823,887.9
662.955,890.1
663.086,888.2