File: spectra/VLFR_01-LDPE_bio_Raman_b795649d.csv
nm,Intensity
528.65,1850.4
528.819,1849.1
528.987,1850.35
529.155,1849.35
529.324,1850.05
529.492,1849.7
529.66,1850.15
529.829,1850.0
529.997,1851.1
530.165,1850.4
530.334,1849.9
530.502,1850.8
530.67,1850.95
530.839,1851.2
531.007,1852.7
531.175,1851.5
531.344,1853.5
531.512,1857.35
531.68,1879.55
531.848,2250.95
532.017,3647.0
532.185,3828.15
532.353,2159.15
532.521,1855.5
532.69,1852.2
532.858,1850.85
533.026,1852.3
533.194,1851.1
533.363,1853.6
533.531,1868.05
533.699,1961.45
533.867,2162.6
534.036,2301.45
534.204,2333.95
534.372,2326.0
534.54,2306.05
534.708,2328.25
534.877,2337.3
535.045,2312.2
535.213,2304.6
535.381,2308.45
535.549,2299.45
535.717,2281.35
535.886,2267.55
536.054,2271.85
536.222,2261.0
536.39,2247.35
536.558,2262.7
536.726,2262.65
536.894,2260.05
537.062,2258.75
537.231,2248.4
537.399,2260.35
537.567,2263.65
537.735,2263.75
537.903,2256.55
538.071,2261.95
538.239,2254.4
538.407,2257.15
538.575,2250.45
538.743,2249.55
538.911,2269.6
539.079,2260.0
539.247,2268.9
539.415,2275.25
539.583,2262.0
539.751,2243.25
539.919,2238.6
540.087,2242.9
540.255,2231.35
540.423,2244.15
540.591,2241.95
540.759,2240.15
540.927,2237.5
541.095,2231.55
541.263,2235.7
541.431,2240.45
541.599,2236.05
541.767,2233.75
541.935,2239.0
542.103,2244.95
542.271,2248.85
542.439,2243.25
542.607,2248.25
542.775,2251.35
542.943,2251.75
543.111,2245.1
543.279,2249.0
543.446,2231.3
543.614,2251.2
543.782,2237.95
543.95,2242.75
544.118,2245.1
544.286,2241.2
544.454,2245.3
544.622,2232.15
544.789,2242.1
544.957,2231.4
545.125,2238.15
545.293,2245.9
545.461,2244.8
545.629,2240.4
545.796,2222.45
545.964,2239.0
546.132,2243.5
546.3,2242.1
546.468,2236.6
546.635,2241.5
546.803,2242.45
546.971,2252.95
547.139,2244.8
547.306,2240.5
547.474,2252.95
547.642,2251.85
547.81,2238.4
547.977,2243.1
548.145,2256.9
548.313,2256.15
548.481,2255.5
548.648,2240.1
548.816,2254.1
548.984,2258.7
549.151,2235.6
549.319,2245.95
549.487,2250.85
549.655,2224.15
549.822,2249.15
549.99,2245.7
550.158,2251.25
550.325,2250.95
550.493,2246.15
550.66,2254.7
550.828,2254.85
550.996,2257.55
551.163,2271.7
551.331,2255.95
551.499,2264.45
551.666,2264.2
551.834,2251.9
552.001,2257.0
552.169,2249.0
552.337,2267.4
552.504,2262.95
552.672,2263.25
552.839,2260.3
553.007,2275.7
553.174,2257.05
553.342,2258.75
553.509,2265.7
553.677,2280.6
553.844,2278.75
554.012,2263.7
554.179,2277.6
554.347,2279.2
554.514,2277.3
554.682,2277.7
554.849,2270.9
555.017,2278.35
555.184,2282.95
555.352,2279.3
555.519,2284.35
555.687,2287.75
555.854,2290.55
556.022,2295.5
556.189,2287.85
556.357,2294.5
556.524,2301.5
556.691,2301.75
556.859,2304.5
557.026,2319.8
557.194,2310.2
557.361,2323.75
557.528,2309.55
557.696,2313.45
557.863,2321.95
558.031,2319.8
558.198,2339.3
558.365,2327.05
558.533,2338.7
558.7,2338.2
558.867,2321.75
559.035,2330.35
559.202,2319.55
559.369,2330.8
559.537,2319.15
559.704,2325.95
559.871,2318.3
560.038,2320.95
560.206,2322.3
560.373,2337.0
560.54,2318.35
560.708,2335.15
560.875,2331.85
561.042,2316.55
561.209,2341.7
561.377,2323.0
561.544,2344.3
561.711,2341.5
561.878,2348.7
562.045,2356.4
562.213,2354.2
562.38,2360.6
562.547,2363.3
562.714,2374.0
562.881,2374.9
563.049,2367.45
563.216,2388.75
563.383,2398.15
563.55,2407.55
563.717,2464.4
563.884,2609.4
564.052,2713.45
564.219,2625.3
564.386,2485.05
564.553,2477.75
564.72,2475.1
564.887,2470.2
565.054,2461.0
565.221,2444.45
565.388,2434.95
565.556,2441.0
565.723,2473.05
565.89,2555.6
566.057,2683.4
566.224,2726.1
566.391,2567.25
566.558,2469.65
566.725,2433.35
566.892,2424.05
567.059,2441.3
567.226,2435.55
567.393,2427.45
567.56,2448.95
567.727,2431.35
567.894,2414.95
568.061,2422.4
568.228,2414.15
568.395,2421.65
568.562,2433.1
568.729,2425.6
568.896,2426.85
569.063,2444.35
569.23,2416.7
569.396,2428.4
569.563,2445.35
569.73,2450.5
569.897,2429.65
570.064,2447.0
570.231,2453.6
570.398,2465.3
570.565,2488.6
570.732,2483.85
570.898,2500.15
571.065,2528.05
571.232,2595.65
571.399,2846.45
571.566,3064.25
571.733,2862.35
571.9,2672.8
572.066,2620.9
572.233,2582.4
572.4,2538.05
572.567,2535.35
572.734,2505.9
572.9,2508.05
573.067,2495.55
573.234,2495.65
573.401,2473.4
573.567,2478.95
573.734,2506.6
573.901,2518.25
574.068,2522.1
574.234,2507.35
574.401,2485.7
574.568,2485.8
574.734,2488.7
574.901,2503.6
575.068,2499.45
575.235,2523.9
575.401,2597.1
575.568,2708.45
575.735,2716.1
575.901,2734.9
576.068,2870.3
576.235,3036.7
576.401,3025.8
576.568,2910.55
576.734,2880.15
576.901,2849.25
577.068,2844.8
577.234,2767.4
577.401,2670.85
577.567,2598.75
577.734,2571.65
577.901,2541.5
578.067,2563.3
578.234,2551.8
578.4,2540.2
578.567,2550.85
578.733,2529.05
578.9,2549.15
579.066,2549.8
579.233,2534.65
579.399,2551.35
579.566,2581.65
579.732,2570.7
579.899,2575.0
580.065,2559.0
580.232,2572.3
580.398,2591.55
580.565,2561.6
580.731,2580.05
580.898,2579.05
581.064,2593.25
581.231,2600.4
581.397,2572.75
581.563,2588.4
581.73,2615.6
581.896,2570.6
582.063,2602.6
582.229,2598.25
582.395,2606.95
582.562,2606.75
582.728,2592.85
582.895,2599.55
583.061,2618.55
583.227,2609.8
583.394,2622.35
583.56,2631.9
583.726,2625.7
583.893,2648.2
584.059,2652.8
584.225,2641.45
584.391,2635.45
584.558,2631.25
584.724,2639.55
584.89,2657.05
585.057,2660.5
585.223,2641.55
585.389,2644.3
585.555,2653.85
585.722,2653.65
585.888,2667.0
586.054,2666.85
586.22,2693.8
586.386,2684.9
586.553,2681.5
586.719,2708.75
586.885,2691.95
587.051,2676.3
587.217,2703.0
587.384,2736.25
587.55,2737.45
587.716,2727.25
587.882,2714.25
588.048,2749.1
588.214,2759.4
588.38,2755.65
588.546,2757.55
588.713,2752.25
588.879,2771.25
589.045,2771.45
589.211,2755.65
589.377,2780.7
589.543,2780.65
589.709,2772.9
589.875,2785.3
590.041,2772.3
590.207,2770.15
590.373,2795.75
590.539,2787.9
590.705,2796.95
590.871,2799.5
591.037,2812.4
591.203,2822.2
591.369,2825.8
591.535,2791.5
591.701,2827.65
591.867,2823.1
592.033,2832.5
592.199,2838.0
592.365,2855.95
592.531,2842.55
592.697,2839.95
592.863,2856.4
593.029,2849.75
593.195,2867.75
593.361,2842.1
593.526,2840.5
593.692,2818.55
593.858,2874.8
594.024,2874.85
594.19,2847.2
594.356,2847.65
594.522,2879.85
594.687,2888.3
594.853,2872.15
595.019,2891.55
595.185,2892.85
595.351,2886.0
595.516,2891.75
595.682,2912.95
595.848,2921.65
596.014,2888.8
596.18,2923.8
596.345,2948.75
596.511,2926.75
596.677,2926.4
596.843,2929.1
597.008,2941.6
597.174,2952.5
597.34,2952.6
597.505,2963.45
597.671,2955.35
597.837,2960.8
598.002,2967.85
598.168,2987.3
598.334,2976.1
598.499,2990.8
598.665,3002.45
598.831,2996.95
598.996,3020.65
599.162,3003.85
599.328,3010.7
599.493,3030.55
599.659,3038.15
599.824,3027.85
599.99,3030.7
600.156,3057.75
600.321,3036.3
600.487,3000.9
600.652,3053.0
600.818,3051.6
600.983,3034.9
601.149,3003.15
601.314,3034.35
601.48,3028.7
601.645,3049.85
601.811,2999.2
601.976,3036.15
602.142,3012.05
602.307,3026.05
602.473,2999.45
602.638,2995.3
602.804,2973.85
602.969,2995.95
603.135,2980.55
603.3,2994.15
603.466,2969.1
603.631,2950.15
603.796,2993.5
603.962,2916.25
604.127,2933.55
604.293,2919.65
604.458,2914.9
604.623,2932.9
604.789,2903.95
604.954,2923.4
605.119,2925.65
605.285,2871.15
605.45,2859.15
605.615,2863.55
605.781,2850.2
605.946,2842.2
606.111,2850.6
606.277,2847.9
606.442,2814.3
606.607,2822.1
606.772,2810.1
606.938,2803.8
607.103,2805.2
607.268,2798.35
607.433,2795.3
607.599,2746.5
607.764,2785.15
607.929,2746.6
608.094,2745.15
608.259,2759.65
608.425,2766.6
608.59,2743.55
608.755,2711.7
608.92,2746.2
609.085,2731.3
609.25,2725.6
609.415,2711.15
609.581,2736.7
609.746,2700.45
609.911,2720.75
610.076,2717.25
610.241,2690.9
610.406,2717.3
610.571,2705.9
610.736,2680.35
610.901,2692.35
611.066,2679.9
611.231,2696.35
611.396,2688.05
611.561,2672.4
611.727,2673.2
611.892,2665.65
612.057,2664.3
612.222,2640.45
612.386,2669.45
612.551,2664.4
612.716,2642.3
612.881,2632.75
613.046,2641.2
613.211,2646.1
613.376,2642.75
613.541,2603.2
613.706,2638.15
613.871,2626.0
614.036,2627.75
614.201,2610.2
614.366,2612.95
614.531,2633.8
614.695,2616.7
614.86,2621.8
615.025,2599.35
615.19,2614.3
615.355,2601.7
615.52,2608.1
615.684,2599.45
615.849,2600.85
616.014,2604.95
616.179,2596.0
616.344,2582.9
616.508,2572.45
616.673,2592.65
616.838,2593.5
617.003,2617.6
617.168,2609.0
617.332,2624.25
617.497,2598.55
617.662,2595.9
617.826,2600.2
617.991,2604.9
618.156,2594.0
618.32,2607.25
618.485,2591.55
618.65,2582.3
618.814,2607.3
618.979,2600.65
619.144,2587.1
619.308,2581.2
619.473,2596.35
619.638,2614.2
619.802,2603.8
619.967,2582.35
620.131,2596.8
620.296,2590.35
620.461,2596.0
620.625,2590.8
620.79,2589.1
620.954,2606.65
621.119,2589.4
621.283,2620.05
621.448,2622.35
621.612,2656.7
621.777,2680.0
621.941,2695.05
622.106,2716.05
622.27,2733.95
622.435,2725.5
622.599,2696.35
622.764,2664.4
622.928,2617.85
623.093,2602.9
623.257,2581.55
623.422,2566.15
623.586,2571.2
623.75,2567.0
623.915,2545.7
624.079,2555.3
624.244,2540.1
624.408,2557.0
624.572,2551.0
624.737,2560.85
624.901,2568.7
625.065,2542.7
625.23,2565.65
625.394,2561.6
625.558,2587.25
625.723,2566.15
625.887,2589.3
626.051,2628.35
626.215,2653.6
626.38,2765.3
626.544,2922.95
626.708,3281.85
626.872,3892.1
627.037,4674.0
627.201,5215.15
627.365,5046.8
627.529,4705.95
627.693,4465.9
627.858,4181.9
628.022,4159.65
628.186,4281.35
628.35,4821.45
628.514,5289.55
628.678,5199.3
628.843,4542.2
629.007,4333.85
629.171,4224.55
629.335,4108.6
629.499,3926.25
629.663,3799.9
629.827,3647.95
629.991,3592.7
630.155,3582.3
630.319,3529.25
630.483,3467.8
630.647,3378.3
630.812,3192.05
630.976,3047.7
631.14,2857.85
631.304,2745.1
631.468,2709.65
631.632,2654.85
631.796,2622.7
631.959,2590.25
632.123,2574.2
632.287,2536.9
632.451,2535.55
632.615,2544.85
632.779,2512.35
632.943,2507.3
633.107,2501.05
633.271,2480.25
633.435,2484.05
633.599,2474.05
633.763,2483.85
633.926,2463.3
634.09,2469.05
634.254,2476.85
634.418,2446.95
634.582,2466.9
634.746,2455.6
634.909,2468.85
635.073,2434.65
635.237,2433.75
635.401,2443.55
635.564,2429.25
635.728,2443.95
635.892,2440.9
636.056,2427.05
636.219,2443.9
636.383,2435.95
636.547,2436.55
636.711,2432.9
636.874,2409.35
637.038,2430.6
637.202,2417.65
637.365,2427.5
637.529,2412.4
637.693,2410.05
637.856,2422.35
638.02,2417.6
638.184,2427.4
638.347,2399.25
638.511,2430.7
638.674,2411.0
638.838,2407.2
639.002,2406.0
639.165,2408.3
639.329,2415.15
639.492,2414.2
639.656,2405.35
639.819,2403.2
639.983,2402.7
640.146,2433.2
640.31,2393.8
640.473,2400.35
640.637,2394.65
640.8,2386.2
640.964,2401.8
641.127,2404.75
641.291,2401.65
641.454,2392.9
641.618,2400.8
641.781,2399.0
641.944,2399.7
642.108,2396.65
642.271,2403.65
642.435,2406.9
642.598,2390.75
642.761,2393.65
642.925,2393.75
643.088,2396.65
643.251,2390.3
643.415,2388.4
643.578,2400.75
643.741,2397.25
643.905,2402.6
644.068,2389.95
644.231,2397.2
644.394,2394.75
644.558,2389.95
644.721,2374.5
644.884,2383.65
645.047,2378.05
645.211,2394.5
645.374,2387.15
645.537,2391.85
645.7,2367.9
645.863,2385.15
646.027,2384.45
646.19,2365.1
646.353,2383.35
646.516,2382.05
646.679,2372.6
646.842,2374.85
647.005,2363.55
647.169,2368.15
647.332,2372.35
647.495,2383.45
647.658,2376.1
647.821,2365.2
647.984,2362.05
648.147,2359.6
648.31,2372.45
648.473,2351.55
648.636,2341.4
648.799,2353.1
648.962,2357.7
649.125,2351.7
649.288,2360.5
649.451,2336.9
649.614,2362.85
649.777,2338.15
649.94,2347.05
650.103,2335.25
650.266,2331.05
650.429,2341.9
650.592,2345.15
650.755,2351.65
650.918,2330.95
651.08,2345.6
651.243,2355.9
651.406,2334.6
651.569,2337.55
651.732,2339.75
651.895,2338.6
652.058,2324.45
652.22,2313.15
652.383,2334.4
652.546,2333.7
652.709,2326.65
652.872,2324.55
653.034,2300.5
653.197,2311.1
653.36,2319.45
653.523,2310.95
653.685,2308.55
653.848,2297.35
654.011,2293.35
654.173,2310.0
654.336,2305.7
654.499,2296.0
654.662,2274.7
654.824,2294.75
654.987,2275.5
655.149,2285.85
655.312,2279.3
655.475,2277.0
655.637,2287.7
655.8,2275.3
655.963,2272.65
656.125,2271.95
656.288,2267.25
656.45,2267.9
656.613,2265.3
656.775,2263.2
656.938,2256.05
657.1,2270.0
657.263,2263.4
657.425,2261.2
657.588,2238.2
657.75,2247.0
657.913,2243.45
658.075,2225.7
658.238,2235.15
658.4,2230.05
658.563,2217.85
658.725,2217.45
658.888,2215.7
659.05,2227.2
659.212,2210.25
659.375,2204.8
659.537,2211.55
659.7,2211.3
659.862,2200.05
660.024,2198.1
660.187,2208.65
660.349,2183.4
660.511,2188.25
660.674,2190.3
660.836,2179.55
660.998,2175.55
661.079,2172.25