File: spectra/VLFR_08-PLA_nobio_Raman_9e4f630f.csv
nm,Intensity
526.5,828.3
526.637,829.3
526.774,829.5
526.91,830.4
527.047,828.1
527.184,829.3
527.32,829.9
527.457,830.6
527.594,828.1
527.73,829.3
527.867,829.3
528.004,829.8
528.14,828.9
528.277,829.0
528.414,830.1
528.55,829.3
528.687,829.0
528.823,830.1
528.96,829.5
529.096,829.6
529.233,828.7
529.37,830.4
529.506,827.8
529.643,829.4
529.779,828.4
529.916,829.6
530.052,829.8
530.189,829.4
530.325,828.6
530.462,828.4
530.598,829.1
530.735,829.4
530.871,830.8
531.008,829.9
531.144,829.6
531.28,829.1
531.417,830.3
531.553,829.9
531.69,829.4
531.826,829.6
531.962,831.3
532.099,852.8
532.235,855.2
532.372,833.2
532.508,827.8
532.644,828.6
532.781,829.5
532.917,830.1
533.053,828.5
533.19,828.4
533.326,829.9
533.462,828.7
533.599,832.5
533.735,848.5
533.871,933.8
534.007,1054.7
534.144,1093.3
534.28,1089.1
534.416,1076.8
534.552,1059.3
534.689,1060.1
534.825,1045.8
534.961,1033.2
535.097,1025.8
535.234,1021.2
535.37,1016.9
535.506,1017.2
535.642,1011.1
535.778,1006.3
535.914,1001.8
536.051,1003.7
536.187,998.9
536.323,1000.3
536.459,1001.9
536.595,1007.4
536.731,1006.2
536.867,1006.0
537.003,995.6
537.14,999.7
537.276,994.6
537.412,996.8
537.548,999.4
537.684,998.2
537.82,1001.0
537.956,995.1
538.092,993.0
538.228,992.5
538.364,995.1
538.5,991.8
538.636,988.7
538.772,993.5
538.908,989.1
539.044,993.2
539.18,990.8
539.316,986.0
539.452,991.2
539.588,990.5
539.724,983.0
539.86,984.1
539.996,986.1
540.132,986.1
540.268,986.2
540.403,994.8
540.539,1003.0
540.675,999.9
540.811,1005.8
540.947,1006.5
541.083,1003.4
541.219,1011.5
541.355,1000.4
541.49,1008.7
541.626,1003.7
541.762,1001.7
541.898,997.2
542.034,997.9
542.17,997.7
542.305,995.4
542.441,994.7
542.577,998.0
542.713,999.9
542.848,1000.4
542.984,1004.7
543.12,1008.7
543.256,1018.9
543.391,1022.0
543.527,1027.8
543.663,1034.1
543.799,1031.0
543.934,1031.3
544.07,1031.9
544.206,1031.1
544.341,1019.7
544.477,1016.9
544.613,1012.4
544.748,1009.5
544.884,1009.7
545.02,1007.2
545.155,1004.2
545.291,1009.0
545.427,1003.2
545.562,1004.0
545.698,1006.6
545.833,1002.6
545.969,1004.5
546.105,1003.9
546.24,1002.8
546.376,1009.9
546.511,1009.3
546.647,1010.4
546.782,1010.8
546.918,1010.0
547.053,1014.2
547.189,1014.1
547.325,1012.8
547.46,1013.2
547.596,1017.2
547.731,1012.7
547.867,1011.9
548.002,1021.5
548.137,1017.7
548.273,1010.9
548.408,1011.2
548.544,1019.7
548.679,1013.6
548.815,1015.0
548.95,1020.5
549.086,1016.9
549.221,1025.8
549.356,1025.4
549.492,1021.8
549.627,1021.9
549.763,1023.5
549.898,1019.5
550.033,1021.7
550.169,1019.9
550.304,1020.6
550.439,1024.7
550.575,1023.0
550.71,1019.7
550.845,1029.7
550.981,1026.1
551.116,1029.3
551.251,1028.5
551.387,1029.8
551.522,1033.2
551.657,1037.5
551.793,1037.8
551.928,1033.0
552.063,1036.6
552.198,1039.6
552.334,1038.5
552.469,1034.9
552.604,1033.3
552.739,1033.2
552.874,1039.5
553.01,1042.4
553.145,1034.2
553.28,1035.5
553.415,1033.6
553.55,1033.5
553.686,1035.8
553.821,1046.4
553.956,1051.7
554.091,1049.0
554.226,1050.3
554.361,1044.2
554.497,1042.3
554.632,1049.8
554.767,1037.2
554.902,1040.3
555.037,1033.8
555.172,1038.4
555.307,1034.9
555.442,1035.7
555.577,1036.7
555.712,1036.1
555.848,1035.4
555.983,1033.2
556.118,1038.4
556.253,1030.8
556.388,1036.6
556.523,1035.4
556.658,1042.4
556.793,1038.2
556.928,1052.3
557.063,1047.6
557.198,1047.2
557.333,1052.2
557.468,1050.1
557.603,1071.3
557.738,1093.7
557.873,1140.2
558.008,1170.0
558.142,1180.4
558.277,1153.1
558.412,1107.7
558.547,1080.2
558.682,1056.6
558.817,1061.7
558.952,1055.1
559.087,1056.6
559.222,1056.1
559.357,1058.2
559.492,1054.8
559.626,1057.0
559.761,1051.5
559.896,1056.9
560.031,1055.1
560.166,1053.7
560.301,1058.0
560.435,1053.5
560.57,1052.0
560.705,1049.4
560.84,1050.0
560.975,1049.2
561.109,1048.4
561.244,1053.4
561.379,1048.9
561.514,1050.9
561.649,1051.7
561.783,1048.5
561.918,1052.4
562.053,1048.7
562.188,1056.4
562.322,1057.8
562.457,1049.9
562.592,1056.8
562.726,1062.0
562.861,1064.3
562.996,1067.6
563.131,1077.1
563.265,1085.6
563.4,1099.8
563.535,1097.6
563.669,1089.6
563.804,1086.7
563.939,1075.5
564.073,1071.1
564.208,1068.1
564.342,1073.7
564.477,1073.3
564.612,1081.1
564.746,1079.2
564.881,1090.6
565.015,1099.5
565.15,1100.0
565.285,1091.4
565.419,1092.9
565.554,1088.1
565.688,1098.8
565.823,1102.9
565.957,1108.1
566.092,1120.3
566.227,1122.6
566.361,1104.9
566.496,1097.6
566.63,1084.4
566.765,1081.3
566.899,1069.9
567.034,1069.9
567.168,1070.8
567.303,1071.7
567.437,1073.0
567.572,1075.3
567.706,1076.4
567.84,1082.1
567.975,1080.2
568.109,1082.6
568.244,1084.2
568.378,1075.7
568.513,1080.2
568.647,1080.8
568.781,1085.1
568.916,1082.6
569.05,1080.3
569.185,1083.9
569.319,1081.5
569.453,1080.8
569.588,1081.3
569.722,1083.5
569.857,1080.6
569.991,1082.7
570.125,1084.8
570.26,1085.1
570.394,1080.8
570.528,1081.6
570.663,1084.2
570.797,1086.8
570.931,1083.9
571.065,1085.7
571.2,1086.0
571.334,1095.3
571.468,1100.3
571.603,1107.8
571.737,1113.3
571.871,1108.8
572.005,1103.1
572.14,1095.1
572.274,1100.3
572.408,1097.4
572.542,1105.7
572.677,1105.5
572.811,1097.1
572.945,1108.3
573.079,1106.3
573.213,1108.8
573.348,1106.6
573.482,1112.0
573.616,1106.6
573.75,1109.3
573.884,1106.5
574.018,1104.2
574.153,1108.3
574.287,1112.8
574.421,1107.1
574.555,1122.3
574.689,1122.7
574.823,1108.8
574.957,1097.2
575.092,1096.4
575.226,1097.1
575.36,1091.5
575.494,1099.4
575.628,1093.3
575.762,1102.8
575.896,1103.3
576.03,1100.7
576.164,1102.6
576.298,1119.6
576.432,1134.5
576.566,1157.4
576.7,1174.5
576.834,1179.7
576.968,1168.4
577.103,1159.8
577.237,1135.7
577.371,1124.8
577.505,1113.8
577.639,1111.1
577.773,1110.5
577.907,1104.7
578.04,1103.3
578.174,1101.4
578.308,1100.2
578.442,1107.5
578.576,1103.9
578.71,1102.0
578.844,1103.3
578.978,1101.5
579.112,1102.9
579.246,1102.6
579.38,1111.1
579.514,1105.9
579.648,1100.7
579.782,1103.2
579.916,1102.2
580.049,1100.3
580.183,1100.7
580.317,1107.7
580.451,1102.4
580.585,1101.4
580.719,1103.4
580.853,1097.6
580.986,1109.6
581.12,1105.9
581.254,1102.2
581.388,1098.4
581.522,1109.4
581.656,1103.2
581.789,1105.2
581.923,1103.7
582.057,1101.9
582.191,1112.0
582.325,1106.9
582.458,1106.9
582.592,1107.9
582.726,1109.1
582.86,1108.9
582.993,1116.9
583.127,1114.5
583.261,1115.5
583.395,1113.4
583.528,1107.8
583.662,1114.7
583.796,1113.8
583.93,1110.9
584.063,1110.3
584.197,1116.2
584.331,1108.5
584.464,1109.1
584.598,1116.1
584.732,1119.4
584.865,1113.8
584.999,1115.6
585.133,1113.5
585.266,1111.8
585.4,1118.1
585.534,1110.4
585.667,1113.6
585.801,1115.0
585.935,1113.2
586.068,1120.8
586.202,1117.4
586.336,1126.2
586.469,1130.9
586.603,1145.4
586.736,1150.4
586.87,1165.7
587.004,1169.9
587.137,1176.4
587.271,1174.8
587.404,1186.1
587.538,1188.9
587.671,1186.2
587.805,1171.2
587.938,1159.9
588.072,1136.2
588.206,1130.5
588.339,1130.2
588.473,1123.0
588.606,1118.4
588.74,1119.6
588.873,1118.7
589.007,1122.3
589.14,1112.3
589.274,1116.8
589.407,1118.2
589.541,1112.1
589.674,1111.3
589.808,1113.0
589.941,1118.1
590.074,1120.5
590.208,1114.9
590.341,1110.3
590.475,1121.9
590.608,1120.6
590.742,1113.1
590.875,1124.3
591.009,1121.6
591.142,1113.3
591.275,1117.1
591.409,1113.7
591.542,1117.4
591.676,1117.2
591.809,1121.9
591.942,1117.4
592.076,1118.0
592.209,1113.8
592.342,1122.5
592.476,1112.4
592.609,1116.4
592.743,1110.3
592.876,1110.7
593.009,1117.5
593.143,1124.1
593.276,1111.1
593.409,1111.0
593.543,1115.5
593.676,1111.4
593.809,1113.7
593.942,1114.4
594.076,1113.9
594.209,1118.6
594.342,1113.2
594.476,1116.9
594.609,1112.7
594.742,1119.9
594.875,1119.8
595.009,1117.7
595.142,1118.7
595.275,1119.2
595.408,1124.0
595.542,1122.9
595.675,1113.0
595.808,1125.2
595.941,1122.7
596.075,1120.6
596.208,1122.6
596.341,1113.0
596.474,1114.8
596.607,1113.2
596.741,1117.5
596.874,1120.2
597.007,1124.2
597.14,1117.7
597.273,1121.3
597.406,1122.6
597.54,1126.1
597.673,1114.7
597.806,1125.6
597.939,1121.4
598.072,1129.2
598.205,1124.5
598.338,1121.3
598.472,1127.5
598.605,1123.3
598.738,1127.5
598.871,1123.2
599.004,1122.6
599.137,1118.2
599.27,1121.5
599.403,1122.1
599.536,1119.7
599.67,1127.6
599.803,1119.8
599.936,1129.9
600.069,1122.3
600.202,1122.1
600.335,1121.7
600.468,1116.3
600.601,1118.0
600.734,1118.2
600.867,1118.3
601.0,1122.9
601.133,1125.5
601.266,1115.5
601.399,1116.9
601.532,1120.8
601.665,1122.4
601.798,1116.7
601.931,1119.3
602.064,1119.2
602.197,1125.2
602.33,1121.1
602.463,1119.8
602.596,1115.0
602.729,1122.4
602.862,1120.6
602.995,1118.6
603.128,1120.8
603.261,1119.7
603.394,1125.6
603.527,1119.3
603.66,1118.7
603.793,1118.4
603.925,1120.8
604.058,1119.0
604.191,1112.4
604.324,1119.3
604.457,1114.9
604.59,1121.3
604.723,1116.9
604.856,1114.0
604.989,1112.2
605.122,1109.3
605.254,1114.8
605.387,1110.1
605.52,1108.3
605.653,1106.1
605.786,1109.4
605.919,1112.4
606.052,1107.3
606.184,1104.5
606.317,1107.6
606.45,1105.5
606.583,1108.7
606.716,1110.4
606.849,1107.9
606.981,1113.4
607.114,1101.7
607.247,1108.4
607.38,1107.2
607.513,1113.6
607.645,1113.7
607.778,1107.2
607.911,1111.3
608.044,1110.8
608.177,1113.6
608.309,1114.4
608.442,1107.4
608.575,1115.6
608.708,1115.6
608.84,1112.9
608.973,1103.7
609.106,1116.1
609.239,1117.1
609.371,1110.4
609.504,1113.0
609.637,1113.2
609.769,1110.6
609.902,1109.0
610.035,1107.5
610.168,1108.6
610.3,1108.1
610.433,1110.0
610.566,1105.4
610.698,1110.1
610.831,1107.9
610.964,1110.6
611.096,1102.2
611.229,1108.8
611.362,1109.6
611.494,1107.7
611.627,1106.0
611.76,1106.5
611.892,1112.1
612.025,1108.6
612.158,1115.4
612.29,1113.2
612.423,1116.1
612.556,1112.0
612.688,1108.8
612.821,1116.4
612.953,1116.3
613.086,1115.0
613.219,1120.9
613.351,1115.2
613.484,1118.2
613.616,1119.5
613.749,1123.4
613.882,1119.9
614.014,1120.7
614.147,1120.2
614.279,1115.7
614.412,1117.0
614.544,1118.1
614.677,1113.7
614.809,1118.0
614.942,1121.0
615.075,1120.7
615.207,1115.1
615.34,1112.3
615.472,1114.3
615.605,1115.7
615.737,1117.2
615.87,1106.6
616.002,1116.7
616.135,1121.0
616.267,1114.9
616.4,1116.8
616.532,1115.6
616.665,1118.4
616.797,1113.6
616.93,1112.1
617.062,1118.6
617.195,1116.3
617.327,1119.2
617.46,1119.0
617.592,1118.5
617.725,1122.6
617.857,1116.2
617.989,1119.8
618.122,1113.0
618.254,1119.8
618.387,1116.6
618.519,1112.6
618.652,1114.5
618.784,1111.8
618.917,1117.4
619.049,1109.6
619.181,1115.3
619.314,1116.6
619.446,1114.5
619.579,1111.7
619.711,1109.2
619.843,1113.3
619.976,1110.2
620.108,1118.7
620.241,1118.7
620.373,1108.1
620.505,1111.1
620.638,1110.0
620.77,1110.1
620.902,1112.4
621.035,1110.5
621.167,1104.5
621.299,1106.4
621.432,1108.2
621.564,1108.4
621.696,1102.9
621.829,1105.1
621.961,1114.7
622.093,1101.8
622.226,1111.1
622.358,1115.0
622.49,1116.3
622.623,1120.0
622.755,1124.2
622.887,1133.1
623.02,1124.1
623.152,1124.3
623.284,1123.6
623.416,1123.7
623.549,1128.9
623.681,1118.8
623.813,1119.2
623.946,1116.6
624.078,1122.2
624.21,1118.9
624.342,1120.1
624.475,1120.3
624.607,1116.8
624.739,1113.8
624.871,1113.2
625.004,1113.4
625.136,1113.8
625.268,1111.0
625.4,1114.5
625.533,1114.9
625.665,1108.6
625.797,1106.5
625.929,1109.1
626.061,1110.9
626.194,1107.5
626.326,1112.3
626.458,1109.5
626.59,1108.4
626.722,1110.6
626.855,1107.1
626.987,1115.8
627.119,1115.3
627.251,1111.3
627.383,1109.7
627.516,1115.1
627.648,1113.9
627.78,1115.8
627.912,1117.1
628.044,1128.6
628.176,1147.7
628.308,1176.6
628.441,1189.7
628.573,1194.5
628.705,1194.1
628.837,1173.2
628.969,1181.4
629.101,1167.9
629.233,1167.9
629.366,1175.2
629.498,1172.0
629.63,1169.0
629.762,1175.4
629.894,1178.3
630.026,1178.8
630.158,1180.0
630.29,1195.0
630.422,1215.0
630.554,1241.1
630.687,1296.3
630.819,1393.3
630.951,1535.5
631.083,1630.8
631.215,1635.3
631.347,1558.4
631.479,1448.5
631.611,1358.4
631.743,1308.5
631.875,1274.6
632.007,1247.7
632.139,1232.4
632.271,1226.4
632.403,1220.9
632.535,1216.0
632.667,1221.9
632.799,1235.4
632.931,1258.4
633.063,1297.0
633.195,1310.6
633.328,1321.3
633.46,1303.9
633.592,1301.1
633.724,1276.5
633.856,1250.2
633.988,1216.6
634.12,1201.2
634.252,1171.8
634.384,1154.3
634.516,1138.7
634.647,1127.1
634.779,1122.9
634.911,1118.9
635.043,1104.6
635.175,1109.1
635.307,1103.4
635.439,1101.3
635.571,1101.5
635.703,1094.6
635.835,1101.2
635.967,1100.6
636.099,1100.9
636.231,1093.2
636.363,1094.6
636.495,1093.9
636.627,1101.3
636.759,1094.3
636.891,1093.0
637.023,1089.9
637.155,1093.1
637.286,1088.2
637.418,1089.0
637.55,1087.2
637.682,1087.1
637.814,1090.8
637.946,1085.4
638.078,1090.0
638.21,1092.5
638.342,1086.8
638.474,1088.4
638.605,1084.8
638.737,1078.3
638.869,1089.9
639.001,1090.6
639.133,1081.2
639.265,1081.4
639.397,1090.3
639.529,1087.3
639.66,1085.1
639.792,1083.8
639.924,1086.8
640.056,1084.6
640.188,1082.8
640.32,1088.8
640.452,1082.3
640.583,1096.3
640.715,1085.7
640.847,1083.7
640.979,1086.8
641.111,1083.0
641.243,1079.6
641.374,1080.2
641.506,1084.9
641.638,1087.9
641.77,1086.8
641.902,1082.3
642.033,1077.9
642.165,1082.1
642.297,1081.3
642.429,1078.7
642.561,1084.8
642.692,1082.4
642.824,1081.0
642.956,1079.2
643.088,1072.2
643.22,1071.2
643.351,1074.5
643.483,1076.7
643.615,1073.2
643.747,1072.2
643.878,1075.9
644.01,1070.0
644.142,1069.2
644.274,1066.8
644.405,1068.2
644.537,1067.1
644.669,1068.4
644.801,1065.1
644.932,1068.4
645.064,1066.6
645.196,1069.5
645.328,1062.3
645.459,1063.7
645.591,1063.2
645.723,1062.5
645.854,1065.0
645.986,1065.4
646.118,1063.2
646.25,1059.6
646.381,1058.6
646.513,1061.7
646.645,1063.1
646.776,1062.4
646.908,1059.3
647.04,1066.9
647.172,1069.1
647.303,1061.6
647.435,1066.8
647.567,1063.1
647.698,1063.9
647.83,1061.2
647.962,1062.1
648.093,1057.2
648.225,1061.3
648.357,1064.9
648.488,1054.3
648.62,1058.8
648.752,1054.7
648.883,1054.3
649.015,1061.2
649.147,1058.4
649.278,1056.7
649.41,1052.5
649.542,1055.5
649.673,1051.9
649.805,1057.1
649.937,1056.9
650.068,1050.9
650.2,1055.7
650.331,1058.1
650.463,1051.6
650.595,1056.3
650.726,1054.0
650.858,1054.0
650.99,1049.0
651.121,1056.8
651.253,1052.1
651.384,1051.9
651.516,1047.6
651.648,1054.1
651.779,1049.0
651.911,1047.5
652.042,1051.8
652.174,1049.2
652.306,1055.1
652.437,1047.7
652.569,1047.6
652.7,1050.2
652.832,1051.0
652.963,1053.7
653.095,1046.7
653.227,1052.7
653.358,1051.3
653.49,1046.5
653.621,1053.7
653.753,1048.2
653.884,1046.7
654.016,1043.9
654.148,1048.4
654.279,1051.3
654.411,1050.3
654.542,1050.9
654.674,1048.2
654.805,1046.7
654.937,1045.5
655.068,1049.2
655.2,1049.1
655.331,1043.9
655.463,1049.2
655.595,1044.6
655.726,1049.4
655.858,1044.0
655.989,1043.0
656.121,1043.7
656.252,1040.6
656.384,1043.6
656.515,1046.3
656.647,1046.2
656.778,1045.5
656.91,1047.7
657.041,1045.5
657.173,1043.4
657.304,1043.1
657.436,1042.3
657.567,1043.5
657.699,1044.5
657.83,1044.7
657.962,1049.0
658.093,1044.8
658.225,1045.9
658.356,1042.6
658.488,1041.2
658.619,1042.7
658.751,1040.4
658.882,1044.3
659.013,1037.2
659.145,1040.7
659.276,1046.5
659.408,1041.2
659.539,1039.1
659.671,1039.2
659.802,1038.6
659.934,1038.9
660.065,1036.8
660.197,1035.0
660.328,1037.3
660.459,1033.6
660.591,1039.0
660.722,1038.1
660.854,1039.5
660.985,1034.3
661.117,1032.4
661.248,1041.9
661.38,1035.9
661.511,1032.2
661.642,1038.5
661.774,1034.1
661.905,1035.1
662.037,1031.3
662.168,1027.6
662.299,1031.8
662.431,1029.7
662.562,1029.6
662.694,1037.1
662.825,1033.4
662.957,1030.5
663.088,1032.5