File: spectra/VLFR_06-PET_nobio_Raman_eeccc400.csv
nm,Intensity
528.65,1841.47
528.819,1841.7
528.987,1841.93
529.155,1841.83
529.324,1840.87
529.492,1841.4
529.66,1840.57
529.829,1840.77
529.997,1840.8
530.165,1842.53
530.334,1841.07
530.502,1841.93
530.67,1840.6
530.839,1842.33
531.007,1842.17
531.175,1842.47
531.344,1844.33
531.512,1847.27
531.68,1864.63
531.848,2137.83
532.017,3265.47
532.185,2840.5
532.353,1898.97
532.521,1844.77
532.69,1843.13
532.858,1843.07
533.026,1844.53
533.194,1845.93
533.363,1853.83
533.531,1929.8
533.699,2375.07
533.867,3267.2
534.036,3679.33
534.204,3657.53
534.372,3453.03
534.54,3324.23
534.708,3240.87
534.877,3126.13
535.045,3003.5
535.213,2895.67
535.381,2805.1
535.549,2699.17
535.717,2614.57
535.886,2537.03
536.054,2486.5
536.222,2458.7
536.39,2405.6
536.558,2410.47
536.726,2393.97
536.894,2368.93
537.062,2355.67
537.231,2358.53
537.399,2358.47
537.567,2371.33
537.735,2367.97
537.903,2371.0
538.071,2381.37
538.239,2388.63
538.407,2387.6
538.575,2383.17
538.743,2378.43
538.911,2385.0
539.079,2399.43
539.247,2413.23
539.415,2435.97
539.583,2432.9
539.751,2443.87
539.919,2467.1
540.087,2444.53
540.255,2432.43
540.423,2421.53
540.591,2392.13
540.759,2384.07
540.927,2389.77
541.095,2387.6
541.263,2379.37
541.431,2367.17
541.599,2382.73
541.767,2383.47
541.935,2384.03
542.103,2396.6
542.271,2391.73
542.439,2408.73
542.607,2394.13
542.775,2402.43
542.943,2417.03
543.111,2414.87
543.279,2406.63
543.446,2404.9
543.614,2412.53
543.782,2433.73
543.95,2441.57
544.118,2429.3
544.286,2433.27
544.454,2424.57
544.622,2421.93
544.789,2430.7
544.957,2436.3
545.125,2444.33
545.293,2441.6
545.461,2437.2
545.629,2423.7
545.796,2457.47
545.964,2453.13
546.132,2444.1
546.3,2464.17
546.468,2443.43
546.635,2459.73
546.803,2446.8
546.971,2480.4
547.139,2459.17
547.306,2437.57
547.474,2462.27
547.642,2465.57
547.81,2463.07
547.977,2485.57
548.145,2464.17
548.313,2476.13
548.481,2461.33
548.648,2464.73
548.816,2469.73
548.984,2457.0
549.151,2485.5
549.319,2477.97
549.487,2453.37
549.655,2467.47
549.822,2473.3
549.99,2466.03
550.158,2475.2
550.325,2522.17
550.493,2653.77
550.66,2805.17
550.828,2639.83
550.996,2486.6
551.163,2500.73
551.331,2508.13
551.499,2499.13
551.666,2499.77
551.834,2493.43
552.001,2505.07
552.169,2503.8
552.337,2502.1
552.504,2509.0
552.672,2592.8
552.839,2599.37
553.007,2569.07
553.174,2531.1
553.342,2507.2
553.509,2506.47
553.677,2503.2
553.844,2516.57
554.012,2514.9
554.179,2511.03
554.347,2516.67
554.514,2515.93
554.682,2528.2
554.849,2523.0
555.017,2530.0
555.184,2562.37
555.352,2578.93
555.519,2652.3
555.687,2654.83
555.854,2624.37
556.022,2648.03
556.189,2665.93
556.357,2685.13
556.524,2673.07
556.691,2700.5
556.859,2720.0
557.026,2724.73
557.194,2833.17
557.361,2956.33
557.528,3015.6
557.696,2948.63
557.863,2810.13
558.031,2749.6
558.198,2744.9
558.365,2738.7
558.533,2739.3
558.7,2721.73
558.867,2687.3
559.035,2644.53
559.202,2624.5
559.369,2586.7
559.537,2604.87
559.704,2581.7
559.871,2599.73
560.038,2595.4
560.206,2593.43
560.373,2601.5
560.54,2595.73
560.708,2618.0
560.875,2619.5
561.042,2626.5
561.209,2621.9
561.377,2631.73
561.544,2656.47
561.711,2660.53
561.878,2657.37
562.045,2675.6
562.213,2695.63
562.38,2651.57
562.547,2708.67
562.714,2710.5
562.881,2687.1
563.049,2714.23
563.216,2734.4
563.383,2703.37
563.55,2689.73
563.717,2700.17
563.884,2697.4
564.052,2702.93
564.219,2690.13
564.386,2715.87
564.553,2755.3
564.72,2795.37
564.887,2813.57
565.054,2869.07
565.221,2912.23
565.388,3001.9
565.556,3008.77
565.723,3032.87
565.89,3038.8
566.057,2987.5
566.224,2897.67
566.391,2851.27
566.558,2794.2
566.725,2765.37
566.892,2773.0
567.059,2763.7
567.226,2787.43
567.393,2862.13
567.56,2959.7
567.727,2968.17
567.894,2889.93
568.061,2824.0
568.228,2802.1
568.395,2815.17
568.562,2797.83
568.729,2786.07
568.896,2811.37
569.063,2808.33
569.23,2820.67
569.396,2836.6
569.563,2879.73
569.73,2880.83
569.897,2882.7
570.064,2914.83
570.231,2968.0
570.398,3073.6
570.565,3174.5
570.732,3252.53
570.898,3392.03
571.065,3529.57
571.232,3653.27
571.399,3576.5
571.566,3490.73
571.733,3342.97
571.9,3284.17
572.066,3195.4
572.233,3088.73
572.4,3048.07
572.567,2988.1
572.734,2973.9
572.9,2934.63
573.067,2931.93
573.234,2932.3
573.401,2956.53
573.567,2934.77
573.734,2952.57
573.901,3022.87
574.068,3003.4
574.234,2977.83
574.401,2963.0
574.568,2976.67
574.734,2986.6
574.901,3013.0
575.068,3026.83
575.235,3086.03
575.401,3115.6
575.568,3062.97
575.735,3014.67
575.901,3010.97
576.068,3062.63
576.235,3109.97
576.401,3111.87
576.568,3115.47
576.734,3100.03
576.901,3142.6
577.068,3115.13
577.234,3060.0
577.401,3037.23
577.567,3024.5
577.734,3019.47
577.901,3038.63
578.067,2991.0
578.234,3054.57
578.4,3036.27
578.567,3041.53
578.733,3024.8
578.9,3035.53
579.066,3073.93
579.233,3040.3
579.399,3080.77
579.566,3068.27
579.732,3091.23
579.899,3081.3
580.065,3105.57
580.232,3073.63
580.398,3117.5
580.565,3144.63
580.731,3142.6
580.898,3152.07
581.064,3190.97
581.231,3173.73
581.397,3271.2
581.563,3435.3
581.73,3852.0
581.896,4632.6
582.063,5626.13
582.229,5578.5
582.395,4326.4
582.562,3446.9
582.728,3244.73
582.895,3244.57
583.061,3163.83
583.227,3170.57
583.394,3203.47
583.56,3153.83
583.726,3157.57
583.893,3188.17
584.059,3184.27
584.225,3221.03
584.391,3175.2
584.558,3194.87
584.724,3243.77
584.89,3247.6
585.057,3283.83
585.223,3402.6
585.389,3668.0
585.555,4053.57
585.722,4494.8
585.888,4748.07
586.054,4712.47
586.22,4471.47
586.386,4072.17
586.553,3803.23
586.719,3515.73
586.885,3370.33
587.051,3296.87
587.217,3252.53
587.384,3240.23
587.55,3232.67
587.716,3250.7
587.882,3250.8
588.048,3213.07
588.214,3215.83
588.38,3212.87
588.546,3250.27
588.713,3217.63
588.879,3214.53
589.045,3224.77
589.211,3204.8
589.377,3241.23
589.543,3217.67
589.709,3193.37
589.875,3206.7
590.041,3219.67
590.207,3221.6
590.373,3233.7
590.539,3231.2
590.705,3217.2
590.871,3206.27
591.037,3225.93
591.203,3232.93
591.369,3218.53
591.535,3241.63
591.701,3239.63
591.867,3247.87
592.033,3222.33
592.199,3237.07
592.365,3258.6
592.531,3286.7
592.697,3250.37
592.863,3243.23
593.029,3224.37
593.195,3286.47
593.361,3232.17
593.526,3252.27
593.692,3217.63
593.858,3267.23
594.024,3269.3
594.19,3241.67
594.356,3263.03
594.522,3281.5
594.687,3225.53
594.853,3271.17
595.019,3272.13
595.185,3258.07
595.351,3288.3
595.516,3255.03
595.682,3311.8
595.848,3274.5
596.014,3256.0
596.18,3282.73
596.345,3331.47
596.511,3291.6
596.677,3284.27
596.843,3285.5
597.008,3286.67
597.174,3299.53
597.34,3277.2
597.505,3308.47
597.671,3279.1
597.837,3266.77
598.002,3268.9
598.168,3293.6
598.334,3294.77
598.499,3263.57
598.665,3305.5
598.831,3328.83
598.996,3297.37
599.162,3296.07
599.328,3309.67
599.493,3334.7
599.659,3317.63
599.824,3277.33
599.99,3322.03
600.156,3310.43
600.321,3266.63
600.487,3325.5
600.652,3302.3
600.818,3355.3
600.983,3317.13
601.149,3317.53
601.314,3347.23
601.48,3350.33
601.645,3312.63
601.811,3313.3
601.976,3308.37
602.142,3328.37
602.307,3317.23
602.473,3338.27
602.638,3355.53
602.804,3334.17
602.969,3306.9
603.135,3343.4
603.3,3336.8
603.466,3342.1
603.631,3365.83
603.796,3363.77
603.962,3339.1
604.127,3345.4
604.293,3330.73
604.458,3350.53
604.623,3294.73
604.789,3322.77
604.954,3386.47
605.119,3334.93
605.285,3352.77
605.45,3374.5
605.615,3326.27
605.781,3298.3
605.946,3398.3
606.111,3378.5
606.277,3341.93
606.442,3355.3
606.607,3365.23
606.772,3352.0
606.938,3359.37
607.103,3338.0
607.268,3382.2
607.433,3343.63
607.599,3327.33
607.764,3393.67
607.929,3377.23
608.094,3363.9
608.259,3372.4
608.425,3399.63
608.59,3395.5
608.755,3373.57
608.92,3356.77
609.085,3384.9
609.25,3387.1
609.415,3333.17
609.581,3371.93
609.746,3393.7
609.911,3407.73
610.076,3380.17
610.241,3364.2
610.406,3398.23
610.571,3379.0
610.736,3385.03
610.901,3406.17
611.066,3405.03
611.231,3383.33
611.396,3421.03
611.561,3392.43
611.727,3370.4
611.892,3385.23
612.057,3412.7
612.222,3416.1
612.386,3361.87
612.551,3415.43
612.716,3422.87
612.881,3380.83
613.046,3421.83
613.211,3418.1
613.376,3412.27
613.541,3401.73
613.706,3419.57
613.871,3397.87
614.036,3416.67
614.201,3435.17
614.366,3415.37
614.531,3440.97
614.695,3451.23
614.86,3469.07
615.025,3415.7
615.19,3442.77
615.355,3438.83
615.52,3465.43
615.684,3461.2
615.849,3450.13
616.014,3475.53
616.179,3478.77
616.344,3457.63
616.508,3410.23
616.673,3484.57
616.838,3426.7
617.003,3487.7
617.168,3516.27
617.332,3513.37
617.497,3417.7
617.662,3479.07
617.826,3523.07
617.991,3534.7
618.156,3490.9
618.32,3507.77
618.485,3552.13
618.65,3539.93
618.814,3537.77
618.979,3536.63
619.144,3510.97
619.308,3538.5
619.473,3511.6
619.638,3437.63
619.802,3527.37
619.967,3492.0
620.131,3524.6
620.296,3531.17
620.461,3508.13
620.625,3537.3
620.79,3526.0
620.954,3516.8
621.119,3487.1
621.283,3555.3
621.448,3532.13
621.612,3517.0
621.777,3526.77
621.941,3508.93
622.106,3544.9
622.27,3593.83
622.435,3536.77
622.599,3526.7
622.764,3545.77
622.928,3563.8
623.093,3582.8
623.257,3607.13
623.422,3539.27
623.586,3543.2
623.75,3595.47
623.915,3577.73
624.079,3581.2
624.244,3582.97
624.408,3621.77
624.572,3599.0
624.737,3579.2
624.901,3575.87
625.065,3671.37
625.23,3608.07
625.394,3629.23
625.558,3567.77
625.723,3632.77
625.887,3606.3
626.051,3565.8
626.215,3599.9
626.38,3580.27
626.544,3671.63
626.708,3588.6
626.872,3610.0
627.037,3610.47
627.201,3540.2
627.365,3615.2
627.529,3682.0
627.693,3667.5
627.858,3663.83
628.022,3638.07
628.186,3665.17
628.35,3705.53
628.514,3740.5
628.678,3803.2
628.843,3745.7
629.007,3731.13
629.171,3817.8
629.335,3778.7
629.499,3800.47
629.663,3728.53
629.827,3725.33
629.991,3754.3
630.155,3727.0
630.319,3711.27
630.483,3795.43
630.647,3792.33
630.812,3851.87
630.976,3966.67
631.14,4017.4
631.304,4188.0
631.468,4303.4
631.632,4312.23
631.796,4350.5
631.959,4261.73
632.123,4199.77
632.287,4124.63
632.451,4124.63
632.615,4054.93
632.779,4029.63
632.943,3992.93
633.107,4044.37
633.271,4010.27
633.435,3922.5
633.599,3944.9
633.763,3971.57
633.926,3958.43
634.09,3882.23
634.254,3797.47
634.418,3806.6
634.582,3801.77
634.746,3826.0
634.909,3779.23
635.073,3856.27
635.237,3760.37
635.401,3910.87
635.564,3901.0
635.728,3916.53
635.892,4061.0
636.056,4185.9
636.219,4329.33
636.383,4428.8
636.547,4517.4
636.711,4323.5
636.874,4195.3
637.038,4149.6
637.202,3991.9
637.365,3985.53
637.529,3905.77
637.693,3843.57
637.856,3778.9
638.02,3836.9
638.184,3836.07
638.347,3774.07
638.511,3742.73
638.674,3818.1
638.838,3798.13
639.002,3809.9
639.165,3771.23
639.329,3884.13
639.492,3833.07
639.656,3782.2
639.819,3754.87
639.983,3783.43
640.146,3787.87
640.31,3776.57
640.473,3760.3
640.637,3767.5
640.8,3781.27
640.964,3767.63
641.127,3758.8
641.291,3789.5
641.454,3774.9
641.618,3747.6
641.781,3746.43
641.944,3803.43
642.108,3850.13
642.271,3774.57
642.435,3814.43
642.598,3761.6
642.761,3765.2
642.925,3772.6
643.088,3778.1
643.251,3706.7
643.415,3796.07
643.578,3769.37
643.741,3778.03
643.905,3763.5
644.068,3798.1
644.231,3741.5
644.394,3783.8
644.558,3712.2
644.721,3760.77
644.884,3782.87
645.047,3747.23
645.211,3712.03
645.374,3754.13
645.537,3771.83
645.7,3812.63
645.863,3732.33
646.027,3678.07
646.19,3751.27
646.353,3757.93
646.516,3697.63
646.679,3709.33
646.842,3711.5
647.005,3763.03
647.169,3714.23
647.332,3727.17
647.495,3775.0
647.658,3712.93
647.821,3746.9
647.984,3707.6
648.147,3685.67
648.31,3721.4
648.473,3672.1
648.636,3742.37
648.799,3672.43
648.962,3697.43
649.125,3739.27
649.288,3695.13
649.451,3627.5
649.614,3657.37
649.777,3668.87
649.94,3719.97
650.103,3671.1
650.266,3677.73
650.429,3649.13
650.592,3719.3
650.755,3634.5
650.918,3663.4
651.08,3693.5
651.243,3673.9
651.406,3581.7
651.569,3647.63
651.732,3654.6
651.895,3628.07
652.058,3692.13
652.22,3617.3
652.383,3618.63
652.546,3593.9
652.709,3624.03
652.872,3599.73
653.034,3616.8
653.197,3677.47
653.36,3542.03
653.523,3622.17
653.685,3555.77
653.848,3603.03
654.011,3601.17
654.173,3536.67
654.336,3565.83
654.499,3597.77
654.662,3564.77
654.824,3513.57
654.987,3616.47
655.149,3498.67
655.312,3580.07
655.475,3510.83
655.637,3473.97
655.8,3583.03
655.963,3555.4
656.125,3528.87
656.288,3491.27
656.45,3538.17
656.613,3508.83
656.775,3481.33
656.938,3412.73
657.1,3454.93
657.263,3493.83
657.425,3502.1
657.588,3431.47
657.75,3398.3
657.913,3499.67
658.075,3466.6
658.238,3462.1
658.4,3446.33
658.563,3428.87
658.725,3430.97
658.888,3429.37
659.05,3396.03
659.212,3405.07
659.375,3371.5
659.537,3360.67
659.7,3436.73
659.862,3387.43
660.024,3386.27
660.187,3340.53
660.349,3329.0
660.511,3319.97
660.674,3337.93
660.836,3330.53
660.998,3328.3
661.079,3324.4