File: spectra/VLFR_02-HDPE_nobio_Raman_4eaac651.csv
cm-1,Intensity
-123.878,1852.05
-117.855,1852.5
-111.836,1852.6
-105.821,1851.95
-99.8104,1852.85
-93.8036,1851.95
-87.8007,1852.45
-81.8019,1852.45
-75.807,1852.15
-69.8161,1852.8
-63.8293,1853.0
-57.8464,1851.8
-51.8675,1853.9
-45.8926,1852.9
-39.9216,1854.5
-33.9547,1853.95
-27.9917,1855.8
-22.0326,1856.9
-16.0776,1875.75
-10.1265,2149.75
-4.17932,3437.7
1.76388,3307.1
7.70313,1962.9
13.6384,1855.9
19.5698,1852.55
25.4972,1853.0
31.4207,1854.5
37.3403,1853.25
43.256,1854.1
49.1677,1865.95
55.0755,1915.4
60.9794,2004.05
66.8794,2060.8
72.7754,2077.5
78.6676,2077.75
84.5559,2081.5
90.4402,2077.15
96.3207,2077.65
102.197,2077.35
108.07,2090.55
113.939,2086.3
119.804,2081.05
125.665,2070.7
131.522,2070.35
137.375,2059.45
143.225,2052.35
149.07,2061.35
154.912,2050.05
160.75,2047.0
166.584,2042.2
172.414,2033.65
178.241,2058.7
184.063,2067.65
189.882,2064.6
195.697,2063.95
201.508,2062.55
207.315,2058.75
213.119,2054.6
218.918,2057.65
224.714,2057.45
230.506,2056.65
236.294,2054.1
242.078,2067.3
247.859,2062.15
253.636,2056.35
259.409,2040.35
265.178,2051.2
270.943,2057.7
276.705,2056.7
282.463,2055.75
288.217,2041.55
293.967,2048.4
299.713,2053.25
305.456,2050.95
311.195,2056.1
316.93,2050.3
322.662,2052.9
328.389,2059.45
334.113,2059.9
339.834,2060.35
345.55,2061.0
351.263,2056.85
356.972,2065.85
362.677,2067.3
368.379,2063.8
374.077,2060.15
379.771,2056.7
385.461,2061.05
391.148,2059.6
396.831,2062.35
402.51,2071.15
408.186,2068.3
413.858,2077.9
419.526,2071.5
425.19,2057.2
430.851,2057.25
436.508,2067.5
442.162,2076.65
447.811,2068.25
453.458,2066.45
459.1,2067.6
464.739,2057.8
470.374,2070.45
476.005,2077.5
481.633,2066.4
487.257,2064.3
492.878,2071.9
498.494,2076.05
504.107,2079.7
509.717,2074.35
515.323,2079.75
520.925,2080.35
526.524,2067.45
532.119,2062.65
537.71,2069.3
543.298,2081.7
548.882,2080.35
554.462,2078.35
560.039,2084.55
565.613,2076.05
571.182,2081.4
576.748,2080.05
582.311,2083.2
587.87,2078.9
593.425,2082.7
598.977,2082.35
604.525,2083.35
610.069,2075.3
615.61,2083.6
621.148,2084.2
626.682,2078.25
632.212,2086.4
637.739,2081.3
643.262,2080.3
648.781,2094.1
654.297,2087.0
659.81,2089.9
665.319,2106.2
670.824,2090.95
676.326,2096.0
681.824,2096.3
687.319,2096.1
692.81,2091.65
698.298,2080.35
703.782,2080.3
709.262,2088.55
714.739,2106.75
720.213,2091.6
725.683,2097.9
731.15,2102.5
736.613,2101.7
742.072,2100.7
747.528,2120.1
752.981,2104.35
758.43,2103.2
763.875,2106.95
769.317,2114.25
774.756,2112.55
780.191,2112.1
785.623,2105.65
791.051,2109.75
796.475,2112.1
801.897,2112.65
807.314,2112.7
812.729,2111.9
818.139,2109.8
823.547,2114.95
828.951,2113.15
834.351,2112.0
839.748,2111.9
845.142,2113.6
850.532,2111.5
855.918,2121.05
861.302,2122.2
866.681,2133.05
872.058,2132.75
877.431,2132.9
882.8,2121.25
888.166,2117.15
893.529,2112.7
898.888,2115.8
904.244,2127.4
909.596,2127.65
914.945,2127.1
920.291,2122.0
925.633,2122.85
930.972,2118.85
936.308,2116.8
941.64,2119.2
946.968,2119.8
952.294,2129.2
957.615,2126.55
962.934,2132.55
968.249,2135.4
973.561,2130.3
978.869,2136.4
984.174,2126.3
989.476,2116.9
994.774,2132.75
1000.07,2137.85
1005.36,2137.2
1010.65,2140.65
1015.93,2133.35
1021.22,2142.4
1026.49,2149.3
1031.77,2153.7
1037.04,2155.7
1042.31,2153.55
1047.57,2153.8
1052.83,2224.65
1058.09,2321.85
1063.35,2421.55
1068.6,2312.65
1073.85,2208.6
1079.09,2200.9
1084.33,2203.75
1089.57,2199.85
1094.81,2179.9
1100.04,2172.8
1105.27,2176.9
1110.49,2185.05
1115.71,2206.85
1120.93,2301.1
1126.15,2457.65
1131.36,2522.8
1136.57,2327.05
1141.77,2203.3
1146.98,2168.25
1152.18,2169.1
1157.37,2179.4
1162.56,2182.5
1167.75,2187.2
1172.94,2174.85
1178.12,2169.0
1183.3,2164.65
1188.48,2158.8
1193.65,2154.2
1198.82,2151.7
1203.99,2154.9
1209.15,2150.25
1214.31,2155.4
1219.46,2177.9
1224.62,2163.15
1229.77,2169.0
1234.92,2177.5
1240.06,2172.6
1245.2,2164.0
1250.34,2167.65
1255.47,2179.6
1260.6,2181.75
1265.73,2188.05
1270.85,2197.95
1275.97,2193.65
1281.09,2211.15
1286.21,2298.35
1291.32,2544.95
1296.43,2648.7
1301.53,2437.55
1306.63,2287.2
1311.73,2241.65
1316.83,2228.4
1321.92,2226.8
1327.01,2209.4
1332.1,2197.15
1337.18,2200.45
1342.26,2199.85
1347.34,2211.55
1352.41,2208.8
1357.48,2198.1
1362.55,2222.75
1367.61,2237.85
1372.67,2226.0
1377.73,2217.15
1382.78,2207.0
1387.84,2207.9
1392.88,2206.35
1397.93,2227.65
1402.97,2237.3
1408.01,2283.15
1413.05,2409.55
1418.08,2481.7
1423.11,2414.7
1428.14,2383.5
1433.16,2440.5
1438.18,2530.75
1443.2,2534.95
1448.21,2481.15
1453.22,2453.85
1458.23,2452.45
1463.23,2440.75
1468.23,2403.5
1473.23,2376.35
1478.23,2329.0
1483.22,2311.7
1488.21,2305.5
1493.2,2308.45
1498.18,2301.8
1503.16,2304.65
1508.14,2316.85
1513.11,2319.8
1518.08,2331.65
1523.05,2329.4
1528.01,2335.4
1532.97,2341.25
1537.93,2367.2
1542.89,2354.2
1547.84,2367.05
1552.79,2387.95
1557.73,2383.0
1562.68,2385.85
1567.62,2397.8
1572.56,2404.3
1577.49,2408.0
1582.42,2417.95
1587.35,2416.25
1592.27,2445.35
1597.19,2445.4
1602.11,2437.85
1607.03,2442.7
1611.94,2462.95
1616.85,2467.6
1621.76,2469.4
1626.66,2459.85
1631.56,2486.5
1636.46,2483.75
1641.36,2495.15
1646.25,2494.6
1651.14,2511.1
1656.02,2493.85
1660.9,2515.85
1665.78,2533.95
1670.66,2516.95
1675.54,2540.1
1680.41,2531.7
1685.27,2545.95
1690.14,2565.9
1695.0,2534.75
1699.86,2553.5
1704.71,2569.45
1709.57,2542.75
1714.42,2563.95
1719.26,2541.05
1724.11,2572.8
1728.95,2586.05
1733.79,2587.4
1738.62,2599.5
1743.46,2620.25
1748.28,2630.3
1753.11,2636.05
1757.93,2628.8
1762.75,2630.5
1767.57,2653.4
1772.39,2655.9
1777.2,2665.6
1782.01,2681.35
1786.81,2683.8
1791.62,2679.15
1796.41,2711.5
1801.21,2688.2
1806.01,2706.4
1810.8,2722.0
1815.59,2712.85
1820.37,2721.75
1825.15,2727.15
1829.93,2720.85
1834.71,2745.75
1839.48,2777.45
1844.25,2772.6
1849.02,2750.95
1853.79,2817.1
1858.55,2820.25
1863.31,2829.25
1868.06,2824.7
1872.82,2854.65
1877.57,2872.5
1882.31,2852.6
1887.06,2864.7
1891.8,2880.75
1896.54,2909.45
1901.28,2910.1
1906.01,2925.15
1910.74,2930.95
1915.47,2958.85
1920.19,2924.15
1924.91,2959.35
1929.63,2958.45
1934.35,2977.5
1939.06,2966.95
1943.77,2970.7
1948.48,2985.0
1953.19,2997.65
1957.89,2996.8
1962.59,3019.45
1967.28,3033.0
1971.98,3043.5
1976.67,3023.95
1981.35,3053.4
1986.04,3057.75
1990.72,3088.6
1995.4,3116.2
2000.08,3118.5
2004.75,3080.25
2009.42,3124.75
2014.09,3149.0
2018.75,3148.6
2023.42,3196.95
2028.08,3193.7
2032.73,3177.0
2037.39,3168.6
2042.04,3179.55
2046.69,3187.5
2051.33,3217.9
2055.97,3238.75
2060.61,3240.95
2065.25,3235.25
2069.88,3239.15
2074.52,3269.6
2079.15,3233.35
2083.77,3294.9
2088.39,3316.0
2093.01,3319.7
2097.63,3305.1
2102.25,3336.75
2106.86,3352.5
2111.47,3325.6
2116.08,3348.65
2120.68,3397.15
2125.28,3361.5
2129.88,3377.7
2134.47,3376.9
2139.07,3377.05
2143.66,3392.55
2148.24,3354.9
2152.83,3359.8
2157.41,3388.9
2161.99,3400.0
2166.57,3385.3
2171.14,3359.5
2175.71,3345.2
2180.28,3419.3
2184.84,3360.45
2189.41,3362.45
2193.97,3357.25
2198.52,3337.8
2203.08,3348.5
2207.63,3358.95
2212.18,3363.9
2216.73,3329.65
2221.27,3372.65
2225.81,3309.0
2230.35,3277.75
2234.89,3324.9
2239.42,3287.0
2243.95,3284.1
2248.48,3226.5
2253.0,3242.55
2257.52,3239.55
2262.04,3209.25
2266.56,3172.95
2271.07,3206.85
2275.58,3176.25
2280.09,3162.25
2284.6,3142.1
2289.1,3142.3
2293.6,3154.35
2298.1,3093.85
2302.6,3116.1
2307.09,3116.45
2311.58,3109.75
2316.07,3101.45
2320.55,3048.15
2325.03,3071.75
2329.51,3050.0
2333.99,3035.35
2338.46,3023.8
2342.93,3016.8
2347.4,2999.5
2351.87,3005.2
2356.33,3005.9
2360.79,2976.65
2365.25,2956.3
2369.71,2978.7
2374.16,2946.25
2378.61,2926.25
2383.06,2930.65
2387.5,2950.0
2391.94,2913.35
2396.38,2928.35
2400.82,2909.8
2405.26,2895.75
2409.69,2883.35
2414.12,2950.25
2418.54,2905.95
2422.97,2891.85
2427.39,2904.9
2431.81,2881.3
2436.22,2910.9
2440.64,2850.6
2445.05,2876.85
2449.46,2875.75
2453.86,2826.45
2458.27,2853.4
2462.67,2840.35
2467.06,2846.9
2471.46,2841.25
2475.85,2799.5
2480.24,2830.25
2484.63,2828.65
2489.02,2829.9
2493.4,2752.85
2497.78,2786.7
2502.16,2809.75
2506.53,2785.95
2510.9,2801.15
2515.27,2815.05
2519.64,2776.4
2524.0,2755.65
2528.37,2777.65
2532.73,2759.6
2537.08,2747.9
2541.44,2776.9
2545.79,2742.6
2550.14,2728.5
2554.48,2746.55
2558.83,2756.6
2563.17,2744.2
2567.51,2740.05
2571.85,2712.9
2576.18,2696.9
2580.51,2732.85
2584.84,2734.8
2589.17,2696.95
2593.49,2750.05
2597.81,2721.6
2602.13,2698.25
2606.45,2725.4
2610.76,2713.5
2615.07,2698.9
2619.38,2701.3
2623.69,2730.25
2627.99,2669.85
2632.29,2694.55
2636.59,2686.7
2640.89,2693.65
2645.18,2677.3
2649.47,2698.85
2653.76,2704.55
2658.05,2700.8
2662.33,2678.4
2666.61,2686.85
2670.89,2673.65
2675.17,2683.75
2679.44,2694.2
2683.71,2659.75
2687.98,2688.3
2692.25,2700.0
2696.51,2706.55
2700.77,2679.6
2705.03,2734.6
2709.29,2729.5
2713.54,2772.3
2717.79,2778.05
2722.04,2767.75
2726.29,2772.95
2730.53,2753.5
2734.77,2683.65
2739.01,2684.85
2743.25,2658.8
2747.48,2657.55
2751.71,2645.4
2755.94,2624.05
2760.17,2639.95
2764.39,2647.45
2768.61,2638.45
2772.83,2633.6
2777.05,2615.05
2781.27,2609.15
2785.48,2625.1
2789.69,2608.45
2793.89,2641.45
2798.1,2628.6
2802.3,2633.05
2806.5,2634.35
2810.7,2663.05
2814.89,2658.7
2819.09,2687.8
2823.28,2739.5
2827.46,2830.35
2831.65,3035.9
2835.83,3372.8
2840.01,3946.0
2844.19,4615.3
2848.37,4948.25
2852.54,4842.65
2856.71,4467.7
2860.88,4122.25
2865.05,3967.6
2869.21,3958.9
2873.37,4158.4
2877.53,4604.05
2881.69,5153.15
2885.84,4852.0
2889.99,4264.95
2894.14,4047.85
2898.29,3971.35
2902.43,3891.05
2906.58,3679.6
2910.72,3595.95
2914.85,3502.35
2918.99,3425.25
2923.12,3360.65
2927.25,3366.5
2931.38,3371.05
2935.5,3242.6
2939.63,3111.15
2943.75,2969.45
2947.87,2822.0
2951.98,2755.35
2956.1,2686.85
2960.21,2675.65
2964.32,2666.1
2968.42,2638.2
2972.53,2634.95
2976.63,2618.75
2980.73,2647.35
2984.83,2636.4
2988.92,2628.25
2993.01,2608.05
2997.1,2624.8
3001.19,2620.35
3005.28,2627.0
3009.36,2598.4
3013.44,2599.1
3017.52,2633.1
3021.6,2618.0
3025.67,2606.1
3029.74,2611.25
3033.81,2588.85
3037.88,2604.15
3041.94,2626.65
3046.01,2594.1
3050.07,2600.45
3054.12,2589.05
3058.18,2572.35
3062.23,2602.45
3066.28,2594.95
3070.33,2581.7
3074.38,2587.1
3078.42,2625.75
3082.46,2598.75
3086.5,2618.4
3090.54,2581.9
3094.57,2613.9
3098.6,2589.7
3102.63,2578.35
3106.66,2608.4
3110.69,2597.25
3114.71,2585.7
3118.73,2612.35
3122.75,2603.35
3126.77,2586.15
3130.78,2600.35
3134.79,2618.7
3138.8,2575.7
3142.81,2589.45
3146.81,2614.45
3150.82,2595.2
3154.82,2596.0
3158.81,2603.5
3162.81,2604.75
3166.8,2618.05
3170.79,2611.1
3174.78,2604.85
3178.77,2604.0
3182.75,2595.3
3186.74,2578.65
3190.72,2607.8
3194.69,2604.05
3198.67,2587.9
3202.64,2613.1
3206.61,2614.6
3210.58,2603.55
3214.55,2607.85
3218.51,2619.3
3222.47,2623.35
3226.43,2625.4
3230.39,2641.65
3234.35,2639.5
3238.3,2610.0
3242.25,2623.75
3246.2,2634.2
3250.15,2623.0
3254.09,2648.3
3258.03,2648.4
3261.97,2627.25
3265.91,2628.6
3269.84,2619.2
3273.78,2649.3
3277.71,2633.2
3281.64,2650.1
3285.56,2663.25
3289.49,2635.95
3293.41,2640.25
3297.33,2652.85
3301.25,2646.15
3305.16,2657.6
3309.07,2615.0
3312.99,2641.75
3316.89,2634.05
3320.8,2643.45
3324.7,2646.15
3328.61,2637.45
3332.51,2652.5
3336.4,2628.8
3340.3,2613.1
3344.19,2642.4
3348.08,2653.55
3351.97,2619.0
3355.86,2612.2
3359.74,2647.45
3363.63,2659.65
3367.51,2595.95
3371.39,2587.1
3375.26,2618.7
3379.13,2629.45
3383.01,2622.95
3386.88,2588.15
3390.74,2588.0
3394.61,2585.8
3398.47,2622.2
3402.33,2613.25
3406.19,2595.85
3410.05,2597.25
3413.9,2593.0
3417.75,2605.6
3421.6,2616.0
3425.45,2610.65
3429.3,2610.2
3433.14,2586.45
3436.98,2621.4
3440.82,2599.6
3444.66,2621.25
3448.49,2565.3
3452.32,2573.5
3456.15,2632.5
3459.98,2621.55
3463.81,2597.05
3467.63,2579.65
3471.46,2583.15
3475.28,2587.85
3479.09,2581.6
3482.91,2562.0
3486.72,2539.4
3490.53,2569.6
3494.34,2565.15
3498.15,2588.05
3501.96,2556.85
3505.76,2542.15
3509.56,2548.4
3513.36,2554.65
3517.15,2529.65
3520.95,2528.05
3524.74,2548.85
3528.53,2542.0
3532.32,2537.4
3536.11,2527.0
3539.89,2552.45
3543.67,2535.85
3547.45,2510.7
3551.23,2479.15
3555.0,2480.95
3558.78,2486.4
3562.55,2518.25
3566.32,2490.45
3570.09,2497.85
3573.85,2475.3
3577.61,2488.4
3581.37,2495.6
3585.13,2477.6
3588.89,2454.95
3592.64,2462.85
3596.4,2457.7
3600.15,2455.85
3603.9,2463.2
3607.64,2420.15
3611.39,2449.2
3615.13,2433.6
3618.87,2427.05
3622.61,2415.1
3626.34,2379.15
3630.08,2417.65
3633.81,2411.15
3637.54,2397.0
3641.27,2400.5
3644.99,2396.55
3648.72,2400.9
3652.44,2396.85
3656.16,2395.9
3659.87,2381.1
3663.59,2366.35
3665.45,2374.2