File: spectra/VLFR_07-PET_bio_Raman_3b6282a1.csv
nm,Intensity
791.588,9442.5
791.862,9239.6
792.136,9160.1
792.411,9080.3
792.685,9001.4
792.959,8951.3
793.233,8786.8
793.507,8841.1
793.781,8762.3
794.056,8688.1
794.33,8592.7
794.604,8555.3
794.878,8500.4
795.152,8486.8
795.426,8487.6
795.701,8459.3
795.975,8521.6
796.249,8461.2
796.523,8421.9
796.797,8501.4
797.071,8466.0
797.345,8421.1
797.619,8452.8
797.894,8476.8
798.168,8478.1
798.442,8452.5
798.716,8449.7
798.99,8409.4
799.264,8411.8
799.538,8410.9
799.812,8502.5
800.086,8516.3
800.36,8350.0
800.634,8388.2
800.908,8448.7
801.182,8368.8
801.456,8415.9
801.73,8379.3
802.004,8437.7
802.278,8418.9
802.552,8469.2
802.826,8362.3
803.1,8381.3
803.374,8353.8
803.648,8344.8
803.922,8344.4
804.196,8287.3
804.47,8185.1
804.744,8259.7
805.018,8258.0
805.292,8256.0
805.566,8172.2
805.84,8218.3
806.114,8217.6
806.388,8224.0
806.662,8193.1
806.936,8127.7
807.209,8150.4
807.483,8132.2
807.757,8160.2
808.031,8109.2
808.305,8149.8
808.579,8124.5
808.853,7955.9
809.127,8064.6
809.4,8032.2
809.674,8067.4
809.948,8032.9
810.222,8034.8
810.496,8006.1
810.77,7947.8
811.043,7957.3
811.317,7986.0
811.591,7921.7
811.865,7950.3
812.139,7880.5
812.412,7832.8
812.686,7838.4
812.96,7900.9
813.234,7894.7
813.507,7860.9
813.781,7776.7
814.055,7748.4
814.329,7683.5
814.602,7716.9
814.876,7733.6
815.15,7759.7
815.424,7784.1
815.697,7715.7
815.971,7713.0
816.245,7599.5
816.518,7635.6
816.792,7629.6
817.066,7729.4
817.34,7625.5
817.613,7559.8
817.887,7553.7
818.161,7529.6
818.434,7489.8
818.708,7481.4
818.981,7512.5
819.255,7540.5
819.529,7515.6
819.802,7511.1
820.076,7536.1
820.35,7467.1
820.623,7452.1
820.897,7440.7
821.17,7480.3
821.444,7384.3
821.718,7374.6
821.991,7319.8
822.265,7308.3
822.538,7314.5
822.812,7336.3
823.085,7290.4
823.359,7317.1
823.632,7247.0
823.906,7253.1
824.179,7283.7
824.453,7307.8
824.727,7291.3
825.0,7250.9
825.274,7245.5
825.547,7335.2
825.821,7347.4
826.094,7350.8
826.367,7282.0
826.641,7233.7
826.914,7108.9
827.188,7055.3
827.461,7105.7
827.735,7062.9
828.008,7042.9
828.282,7026.0
828.555,7101.0
828.828,7097.9
829.102,7094.4
829.375,7010.0
829.649,6973.8
829.922,7056.4
830.195,7092.4
830.469,6994.3
830.742,7056.7
831.016,7042.2
831.289,7045.3
831.562,7006.1
831.836,6939.3
832.109,6931.8
832.382,6885.6
832.656,6862.9
832.929,6826.7
833.202,6853.7
833.476,6864.6
833.749,6886.3
834.022,6834.4
834.295,6847.8
834.569,6779.2
834.842,6777.9
835.115,6804.2
835.388,6757.7
835.662,6777.0
835.935,6795.4
836.208,6776.6
836.481,6811.0
836.755,6759.5
837.028,6773.9
837.301,6792.9
837.574,6790.8
837.848,6788.3
838.121,6782.9
838.394,6745.1
838.667,6652.5
838.94,6660.9
839.213,6708.4
839.487,6729.3
839.76,6725.5
840.033,6679.4
840.306,6633.6
840.579,6667.6
840.852,6762.0
841.125,6804.6
841.399,6812.4
841.672,6768.8
841.945,6758.1
842.218,6702.2
842.491,6602.9
842.764,6575.1
843.037,6590.2
843.31,6644.2
843.583,6607.4
843.856,6511.6
844.129,6528.2
844.402,6456.1
844.675,6451.6
844.948,6443.3
845.221,6419.6
845.495,6433.6
845.768,6374.0
846.041,6369.9
846.314,6351.3
846.586,6325.8
846.859,6310.8
847.132,6322.0
847.405,6351.7
847.678,6318.6
847.951,6336.7
848.224,6345.6
848.497,6285.9
848.77,6261.4
849.043,6247.1
849.316,6222.5
849.589,6189.2
849.862,6198.1
850.135,6223.8
850.408,6241.5
850.68,6213.3
850.953,6172.6
851.226,6202.2
851.499,6202.6
851.772,6188.2
852.045,6205.8
852.318,6150.8
852.591,6157.2
852.863,6182.7
853.136,6143.7
853.409,6157.0
853.682,6106.1
853.955,6092.2
854.227,6090.0
854.5,6068.8
854.773,6062.3
855.046,6086.0
855.318,6041.1
855.591,6054.5
855.864,6095.2
856.137,6063.0
856.409,6014.1
856.682,6042.9
856.955,6044.8
857.228,5997.9
857.5,6047.0
857.773,6035.2
858.046,6021.4
858.318,6018.1
858.591,6031.1
858.864,6057.5
859.136,6041.8
859.409,6043.1
859.682,6025.9
859.954,6042.0
860.227,6070.2
860.5,6024.3
860.772,6021.3
861.045,5960.0
861.318,5989.6
861.59,5970.9
861.863,5898.8
862.135,5854.1
862.408,5899.9
862.681,5893.4
862.953,5884.7
863.226,5847.7
863.498,5862.0
863.771,5887.9
864.043,5834.4
864.316,5865.6
864.588,5871.5
864.861,5855.5
865.133,5836.1
865.406,5825.9
865.678,5819.8
865.951,5784.0
866.223,5746.1
866.496,5721.3
866.768,5744.7
867.041,5728.0
867.313,5732.4
867.586,5749.2
867.858,5749.5
868.131,5693.2
868.403,5660.3
868.675,5681.2
868.948,5746.6
869.22,5719.4
869.493,5731.7
869.765,5709.8
870.037,5670.6
870.31,5712.9
870.582,5725.5
870.854,5757.4
871.127,5730.6
871.399,5744.8
871.672,5745.9
871.944,5799.0
872.216,5840.2
872.488,5852.9
872.761,5863.8
873.033,5874.6
873.305,5827.5
873.578,5772.0
873.85,5751.2
874.122,5727.9
874.394,5704.5
874.667,5719.8
874.939,5669.9
875.211,5660.8
875.483,5674.1
875.756,5642.2
876.028,5579.8
876.3,5550.6
876.572,5558.3
876.845,5580.5
877.117,5556.7
877.389,5564.2
877.661,5583.5
877.933,5569.8
878.205,5567.3
878.478,5496.4
878.75,5519.7
879.022,5476.5
879.294,5470.0
879.566,5492.6
879.838,5475.3
880.11,5452.6
880.382,5479.9
880.654,5484.5
880.927,5453.8
881.199,5423.0
881.471,5445.7
881.743,5460.1
882.015,5459.2
882.287,5438.4
882.559,5462.1
882.831,5461.1
883.103,5422.6
883.375,5403.6
883.647,5439.3
883.919,5453.9
884.191,5404.6
884.463,5403.2
884.735,5380.4
885.007,5379.2
885.279,5366.7
885.551,5352.9
885.823,5379.3
886.095,5374.1
886.367,5378.2
886.639,5394.8
886.91,5381.2
887.182,5349.0
887.454,5326.2
887.726,5336.5
887.998,5277.8
888.27,5272.8
888.542,5296.0
888.814,5261.7
889.085,5277.9
889.357,5274.5
889.629,5319.9
889.901,5295.8
890.173,5255.6
890.445,5235.8
890.716,5246.9
890.988,5237.1
891.26,5271.2
891.532,5249.9
891.804,5215.3
892.075,5235.4
892.347,5230.8
892.619,5210.6
892.891,5198.1
893.162,5169.9
893.434,5160.1
893.706,5153.1
893.978,5126.3
894.249,5135.0
894.521,5153.1
894.793,5133.9
895.064,5130.7
895.336,5136.7
895.608,5118.4
895.879,5121.0
896.151,5125.6
896.423,5111.0
896.694,5106.4
896.966,5129.7
897.237,5161.3
897.509,5212.6
897.781,5278.6
898.052,5387.3
898.324,5399.5
898.595,5349.8
898.867,5327.4
899.139,5264.1
899.41,5244.9
899.682,5171.6
899.953,5149.5
900.225,5075.9
900.496,5020.5
900.768,5013.9
901.039,4989.1
901.311,4974.2
901.582,4971.1
901.854,4965.1
902.125,4963.4
902.397,4972.2
902.668,4978.2
902.94,4927.4
903.211,4932.1
903.482,4917.0
903.754,4922.2
904.025,4930.3
904.297,4943.8
904.568,4932.1
904.839,4946.9
905.111,4933.0
905.382,4918.5
905.654,4923.5
905.925,4948.6
906.196,4954.8
906.468,4980.0
906.739,5005.3
907.01,5027.3
907.282,5037.9
907.553,5050.8
907.824,5078.0
908.096,5095.8
908.367,5060.1
908.638,5064.9
908.909,5004.3
909.181,4951.0
909.452,4913.4
909.723,4871.8
909.994,4821.8
910.266,4815.5
910.537,4800.0
910.808,4775.7
911.079,4769.1
911.35,4749.6
911.622,4750.3
911.893,4769.5
912.164,4755.7
912.435,4742.2
912.706,4728.1
912.977,4709.7
913.249,4708.7
913.52,4713.1
913.791,4717.6
914.062,4701.8
914.333,4683.7
914.604,4674.0
914.875,4696.3
915.146,4660.5
915.417,4625.8
915.688,4636.8
915.959,4648.9
916.231,4632.3
916.502,4637.0
916.773,4638.3
917.044,4622.8
917.315,4615.0
917.586,4614.2
917.857,4614.7
918.128,4598.6
918.399,4605.0
918.67,4615.2
918.941,4606.8
919.211,4613.5
919.482,4575.6
919.753,4576.2
920.024,4569.5
920.295,4561.2
920.566,4561.2
920.837,4556.6
921.108,4558.1
921.379,4561.5
921.65,4511.5
921.921,4517.1
922.191,4516.2
922.462,4510.1
922.733,4502.8
923.004,4498.9
923.275,4481.1
923.546,4508.1
923.816,4516.2
924.087,4490.7
924.358,4480.4
924.629,4464.6
924.9,4462.7
925.17,4464.1
925.441,4461.5
925.712,4451.1
925.983,4429.6
926.253,4442.1
926.524,4422.2
926.795,4421.8
927.065,4416.1
927.336,4410.8
927.607,4404.8
927.877,4403.6
928.148,4383.6
928.419,4379.1
928.689,4378.8
928.96,4373.9
929.231,4380.3
929.501,4377.0
929.772,4365.1
930.043,4362.7
930.313,4359.1
930.584,4352.9
930.854,4358.4
931.125,4332.8
931.396,4335.7
931.666,4323.0
931.937,4325.0
932.207,4322.5
932.478,4313.6
932.748,4304.4
933.019,4296.9
933.289,4266.4
933.56,4282.1
933.83,4285.1
934.101,4289.3
934.371,4287.9
934.642,4268.0
934.912,4252.1
935.183,4256.2
935.453,4258.0
935.723,4256.4
935.994,4261.9
936.264,4259.4
936.535,4252.8
936.805,4247.1
937.075,4231.8
937.346,4220.5
937.616,4225.8
937.886,4217.1
938.157,4203.6
938.427,4197.1
938.697,4206.3
938.968,4213.4
939.238,4213.1
939.508,4210.5
939.779,4204.0
940.049,4198.6
940.319,4186.3
940.59,4183.1
940.86,4176.7
941.13,4186.2
941.4,4161.3
941.671,4159.9
941.941,4169.9
942.211,4173.7
942.481,4171.5
942.751,4155.8
943.022,4150.9
943.292,4166.2
943.562,4157.4
943.832,4156.6
944.102,4147.6
944.372,4138.7
944.642,4138.4
944.913,4148.6
945.183,4136.5
945.453,4133.1
945.723,4127.7
945.993,4120.4
946.263,4110.8
946.533,4117.9
946.803,4110.9
947.073,4111.4
947.343,4103.5
947.613,4097.1
947.883,4099.6
948.153,4101.5
948.423,4100.3
948.693,4108.0
948.963,4094.5
949.233,4090.5
949.503,4079.9
949.773,4073.2
950.043,4065.2
950.313,4073.1
950.583,4067.6
950.853,4066.6
951.123,4065.4
951.393,4060.7
951.663,4058.5
951.933,4052.7
952.202,4065.4
952.472,4058.6
952.742,4057.9
953.012,4057.7
953.282,4043.5
953.552,4042.6
953.822,4026.9
954.091,4027.7
954.361,4030.8
954.631,4034.1
954.901,4026.7
955.17,4026.6
955.44,4015.3
955.71,4028.3
955.98,4020.3
956.25,4022.0
956.519,4018.9
956.789,4026.5
957.059,4017.5
957.328,4018.2
957.598,4013.7
957.868,4003.3
958.137,4001.6
958.407,3995.4
958.677,3995.0
958.946,3996.2
959.216,3994.7
959.486,3996.8
959.755,4001.0
960.025,3994.6
960.294,3987.6
960.564,3989.5
960.834,3986.9
961.103,3980.0
961.373,3988.0
961.642,3985.9
961.912,3976.3
962.181,3978.3
962.451,3978.7
962.72,3962.6
962.99,3957.9
963.259,3959.4
963.529,3960.8
963.798,3963.6
964.068,3953.8
964.337,3953.3
964.607,3955.5
964.876,3954.3
965.146,3952.6
965.415,3953.6
965.684,3948.1
965.954,3946.2
966.223,3945.9
966.493,3948.9
966.762,3944.1
967.031,3943.2
967.301,3947.0
967.57,3943.8
967.839,3938.0
968.109,3939.3
968.378,3932.2
968.647,3935.0
968.917,3937.9
969.186,3933.3
969.455,3931.1
969.724,3934.6
969.994,3920.9
970.263,3925.0
970.532,3927.1
970.801,3924.3
971.071,3921.9
971.34,3915.3
971.609,3918.6
971.878,3920.3
972.147,3914.6
972.417,3906.9
972.686,3906.2
972.955,3916.2
973.224,3917.1
973.493,3912.5
973.762,3904.1
974.031,3907.9
974.3,3907.3
974.57,3908.3
974.839,3896.0
975.108,3898.6
975.377,3895.8
975.646,3898.3
975.915,3900.1
976.184,3895.7
976.453,3887.6
976.722,3892.5
976.991,3888.0
977.26,3888.6
977.529,3882.3
977.798,3886.6
978.067,3882.0
978.336,3880.8
978.605,3888.3
978.874,3886.1
979.143,3881.9
979.412,3880.3
979.68,3880.6
979.949,3874.7
980.218,3883.6
980.487,3876.5
980.756,3874.7
981.025,3879.7
981.294,3872.6
981.563,3873.3
981.831,3869.6
982.1,3870.5
982.369,3870.0
982.638,3868.7
982.907,3867.5
983.175,3862.8
983.444,3862.2
983.713,3868.4
983.982,3865.1
984.25,3863.9
984.519,3860.7
984.788,3859.3
985.057,3854.5
985.325,3862.4
985.594,3855.3
985.863,3858.9
986.131,3858.9
986.4,3857.2
986.669,3855.8
986.937,3855.7
987.206,3849.2
987.475,3853.8
987.743,3852.5
988.012,3854.5
988.28,3846.2
988.549,3849.4
988.817,3844.4
989.086,3847.6
989.355,3845.8
989.623,3846.0
989.892,3841.7
990.16,3849.2
990.429,3846.4
990.697,3838.6
990.966,3837.6
991.234,3837.7
991.503,3836.4
991.771,3837.6
992.04,3839.7
992.308,3840.6
992.576,3836.4
992.845,3831.9
993.113,3832.5
993.382,3832.8
993.65,3831.2
993.918,3828.9
994.187,3833.9
994.455,3827.8
994.723,3826.6
994.992,3832.3
995.26,3827.3
995.528,3830.9
995.797,3826.6
996.065,3828.8
996.333,3825.1
996.602,3825.8
996.87,3825.1
997.138,3821.6
997.406,3819.6
997.675,3817.4
997.943,3816.4
998.211,3820.3
998.479,3817.9
998.747,3826.9
999.016,3823.8
999.284,3820.2
999.552,3817.4
999.82,3821.6
1000.09,3819.2
1000.36,3815.5
1000.62,3812.7
1000.89,3810.3
1001.16,3812.8
1001.43,3810.3
1001.7,3813.2
1001.97,3811.0
1002.23,3813.7
1002.5,3809.1
1002.77,3808.4
1003.04,3809.8
1003.31,3804.0
1003.57,3805.4
1003.84,3807.4
1004.11,3808.3
1004.38,3806.7
1004.65,3806.7
1004.91,3803.6
1005.18,3803.1
1005.45,3803.9
1005.72,3806.8
1005.98,3801.3
1006.25,3800.2
1006.52,3797.5
1006.79,3800.4
1007.06,3798.2
1007.32,3798.3
1007.59,3798.8
1007.86,3796.7
1008.13,3795.8
1008.4,3795.3
1008.66,3797.1
1008.93,3794.7
1009.2,3795.2
1009.47,3793.3
1009.73,3796.7
1010.0,3790.5
1010.27,3794.1
1010.54,3794.8
1010.81,3792.3
1011.07,3788.8
1011.34,3793.3
1011.61,3790.6
1011.88,3791.2
1012.14,3790.1
1012.41,3791.0
1012.68,3790.2
1012.95,3790.8
1013.21,3786.5
1013.48,3788.2
1013.75,3789.7
1014.02,3790.1
1014.29,3786.6
1014.55,3787.3
1014.82,3785.3
1015.09,3785.9
1015.36,3789.8
1015.62,3785.0
1015.89,3786.6
1016.16,3783.8
1016.43,3783.8
1016.69,3781.7
1016.96,3785.3
1017.23,3783.9
1017.5,3784.2
1017.76,3782.9
1018.03,3784.2
1018.3,3781.3
1018.57,3781.6
1018.83,3780.9
1019.1,3778.3
1019.37,3778.5
1019.63,3780.0
1019.9,3782.4
1020.17,3782.4
1020.44,3784.3
1020.7,3782.0
1020.97,3782.3
1021.24,3779.8
1021.51,3781.5
1021.77,3782.7
1022.04,3783.6
1022.31,3781.4
1022.58,3780.7
1022.84,3779.9
1023.11,3779.3
1023.38,3781.6
1023.64,3779.8
1023.91,3779.9
1024.18,3780.2
1024.45,3779.8
1024.71,3777.1
1024.98,3776.4
1025.25,3779.0
1025.51,3774.8
1025.78,3777.5
1026.05,3775.3
1026.32,3775.4
1026.58,3774.8
1026.85,3771.9
1027.12,3772.8
1027.38,3772.3
1027.65,3772.4
1027.92,3770.5
1028.19,3773.7
1028.45,3770.9
1028.72,3767.4
1028.99,3769.4
1029.25,3767.8
1029.52,3769.5
1029.79,3767.7
1030.05,3766.1
1030.32,3768.5
1030.59,3765.4
1030.85,3768.0
1031.12,3765.7
1031.39,3766.4
1031.66,3768.9
1031.92,3768.6
1032.19,3765.3
1032.46,3765.6
1032.72,3767.9
1032.99,3767.2
1033.26,3766.5
1033.52,3766.6
1033.79,3766.7
1034.06,3767.8
1034.32,3766.1
1034.59,3768.7
1034.86,3767.9
1035.12,3768.9
1035.39,3766.7
1035.66,3764.9
1035.92,3765.0
1036.19,3762.6
1036.46,3763.9
1036.72,3765.7
1036.99,3767.0
1037.26,3763.6
1037.52,3765.0
1037.79,3765.6
1038.06,3763.4
1038.32,3761.9
1038.59,3762.0
1038.86,3763.7
1039.12,3761.3
1039.39,3762.2
1039.66,3761.8
1039.92,3761.8
1040.19,3760.5
1040.46,3760.9
1040.72,3761.0
1040.99,3761.9
1041.26,3760.8
1041.52,3759.0
1041.79,3759.4
1042.06,3759.4
1042.32,3760.5
1042.59,3758.7
1042.86,3760.6
1043.12,3758.2
1043.39,3760.3
1043.65,3759.3
1043.92,3758.8
1044.19,3756.7
1044.45,3757.3
1044.72,3757.9
1044.99,3757.7
1045.25,3758.7
1045.52,3757.5
1045.79,3756.1
1046.05,3757.2
1046.32,3757.6
1046.58,3756.0
1046.85,3758.1
1047.12,3757.9
1047.38,3760.0
1047.65,3757.9
1047.92,3758.6
1048.18,3755.2
1048.45,3758.4
1048.71,3756.0
1048.98,3756.1
1049.25,3754.9
1049.51,3755.8
1049.78,3757.6
1050.04,3756.0
1050.31,3754.7
1050.58,3758.2
1050.84,3755.3
1051.11,3754.5
1051.37,3755.8
1051.64,3754.8
1051.91,3755.9
1052.17,3756.9
1052.44,3754.4
1052.7,3757.3
1052.97,3755.4
1053.24,3756.1
1053.5,3756.1
1053.77,3755.6
1054.03,3755.3
1054.3,3755.6
1054.57,3753.6
1054.83,3755.0
1055.1,3757.1
1055.36,3753.0
1055.63,3755.6
1055.9,3753.8
1056.16,3754.6
1056.43,3755.0
1056.69,3752.9
1056.96,3755.5
1057.23,3753.1
1057.49,3754.9
1057.76,3754.7
1058.02,3755.2
1058.29,3754.8
1058.55,3754.3
1058.82,3753.7
1059.09,3754.4
1059.35,3753.6
1059.62,3755.2
1059.88,3752.4
1060.15,3753.3
1060.41,3752.4
1060.68,3755.5
1060.95,3754.4
1061.21,3755.6
1061.48,3752.9
1061.74,3753.4
1062.01,3754.0
1062.27,3755.0
1062.54,3755.8
1062.8,3755.2
1063.07,3753.3
1063.34,3754.0
1063.6,3754.3
1063.87,3755.7
1064.13,3752.4
1064.4,3751.7
1064.66,3754.2
1064.93,3751.0
1065.19,3751.7
1065.46,3752.5
1065.73,3752.6
1065.99,3753.5
1066.26,3752.7
1066.52,3754.0
1066.79,3753.7
1067.05,3752.3
1067.32,3753.9
1067.58,3752.6
1067.85,3750.5
1068.11,3753.4