File: spectra/VLFR_02-HDPE_nobio_Raman_10c74d50.csv
cm-1,Intensity
-123.878,1852.35
-117.855,1853.35
-111.836,1852.5
-105.821,1852.3
-99.8104,1853.6
-93.8036,1852.7
-87.8007,1852.5
-81.8019,1852.55
-75.807,1854.1
-69.8161,1852.25
-63.8293,1851.35
-57.8464,1851.85
-51.8675,1852.75
-45.8926,1853.25
-39.9216,1852.35
-33.9547,1854.6
-27.9917,1854.9
-22.0326,1856.0
-16.0776,1873.15
-10.1265,2147.7
-4.17932,3016.6
1.76388,2835.95
7.70313,1938.95
13.6384,1853.8
19.5698,1852.85
25.4972,1853.0
31.4207,1853.65
37.3403,1853.85
43.256,1856.1
49.1677,1872.95
55.0755,1966.35
60.9794,2145.0
66.8794,2268.9
72.7754,2303.3
78.6676,2308.95
84.5559,2319.05
90.4402,2325.95
96.3207,2335.5
102.197,2336.95
108.07,2331.1
113.939,2342.4
119.804,2341.85
125.665,2320.0
131.522,2308.95
137.375,2327.5
143.225,2333.45
149.07,2325.3
154.912,2321.8
160.75,2323.1
166.584,2333.25
172.414,2327.1
178.241,2320.35
184.063,2346.9
189.882,2344.9
195.697,2342.45
201.508,2330.9
207.315,2346.95
213.119,2351.65
218.918,2352.35
224.714,2349.55
230.506,2342.1
236.294,2354.45
242.078,2347.05
247.859,2364.15
253.636,2361.7
259.409,2355.8
265.178,2368.65
270.943,2366.6
276.705,2382.65
282.463,2385.3
288.217,2374.9
293.967,2407.55
299.713,2397.0
305.456,2428.95
311.195,2445.45
316.93,2446.0
322.662,2461.6
328.389,2475.0
334.113,2474.35
339.834,2475.85
345.55,2479.7
351.263,2498.0
356.972,2482.6
362.677,2509.9
368.379,2532.15
374.077,2561.4
379.771,2574.7
385.461,2511.55
391.148,2489.65
396.831,2493.8
402.51,2484.2
408.186,2493.55
413.858,2496.3
419.526,2511.85
425.19,2520.25
430.851,2558.75
436.508,2569.6
442.162,2566.45
447.811,2553.75
453.458,2562.7
459.1,2574.55
464.739,2532.75
470.374,2520.15
476.005,2521.85
481.633,2525.7
487.257,2538.65
492.878,2535.2
498.494,2544.85
504.107,2573.9
509.717,2547.2
515.323,2565.45
520.925,2551.0
526.524,2553.15
532.119,2546.35
537.71,2527.8
543.298,2545.6
548.882,2541.75
554.462,2551.15
560.039,2560.05
565.613,2567.3
571.182,2569.0
576.748,2561.7
582.311,2576.3
587.87,2576.45
593.425,2581.6
598.977,2551.35
604.525,2559.85
610.069,2570.2
615.61,2561.25
621.148,2562.55
626.682,2583.2
632.212,2584.7
637.739,2596.45
643.262,2595.45
648.781,2597.5
654.297,2580.6
659.81,2591.0
665.319,2597.7
670.824,2606.5
676.326,2609.9
681.824,2591.25
687.319,2599.05
692.81,2594.2
698.298,2583.7
703.782,2582.35
709.262,2609.35
714.739,2598.9
720.213,2603.9
725.683,2615.05
731.15,2614.15
736.613,2623.15
742.072,2615.4
747.528,2630.2
752.981,2637.8
758.43,2607.4
763.875,2646.55
769.317,2648.85
774.756,2632.95
780.191,2644.15
785.623,2628.7
791.051,2647.1
796.475,2628.3
801.897,2634.6
807.314,2639.8
812.729,2642.5
818.139,2642.85
823.547,2642.8
828.951,2653.05
834.351,2644.6
839.748,2652.5
845.142,2650.35
850.532,2636.0
855.918,2659.1
861.302,2672.6
866.681,2672.5
872.058,2668.95
877.431,2699.75
882.8,2707.25
888.166,2714.85
893.529,2710.5
898.888,2749.25
904.244,2753.9
909.596,2736.05
914.945,2713.2
920.291,2721.9
925.633,2714.95
930.972,2697.55
936.308,2705.0
941.64,2715.55
946.968,2722.7
952.294,2729.1
957.615,2762.05
962.934,2756.1
968.249,2770.05
973.561,2761.65
978.869,2760.0
984.174,2752.95
989.476,2778.75
994.774,2802.0
1000.07,2801.95
1005.36,2789.8
1010.65,2767.7
1015.93,2770.3
1021.22,2793.2
1026.49,2791.25
1031.77,2817.0
1037.04,2829.25
1042.31,2840.95
1047.57,2846.3
1052.83,2867.0
1058.09,2880.5
1063.35,2943.35
1068.6,2901.3
1073.85,2925.25
1079.09,2989.9
1084.33,3081.5
1089.57,3186.85
1094.81,3240.55
1100.04,3172.0
1105.27,3081.3
1110.49,3067.5
1115.71,3077.95
1120.93,3100.85
1126.15,3066.3
1131.36,3000.2
1136.57,2962.55
1141.77,2938.05
1146.98,2900.3
1152.18,2921.65
1157.37,2892.8
1162.56,2863.1
1167.75,2847.95
1172.94,2861.7
1178.12,2829.55
1183.3,2840.15
1188.48,2844.15
1193.65,2832.65
1198.82,2845.3
1203.99,2832.55
1209.15,2849.35
1214.31,2857.6
1219.46,2866.2
1224.62,2865.55
1229.77,2854.85
1234.92,2870.1
1240.06,2870.55
1245.2,2869.65
1250.34,2885.4
1255.47,2887.4
1260.6,2902.5
1265.73,2896.95
1270.85,2886.95
1275.97,2920.7
1281.09,2916.5
1286.21,2934.1
1291.32,2945.95
1296.43,2938.95
1301.53,2967.3
1306.63,2963.55
1311.73,2942.15
1316.83,2959.2
1321.92,2988.7
1327.01,2986.95
1332.1,3015.25
1337.18,3016.45
1342.26,3035.1
1347.34,2998.0
1352.41,2991.1
1357.48,2993.95
1362.55,2997.7
1367.61,3025.95
1372.67,3018.0
1377.73,3039.25
1382.78,3041.3
1387.84,3025.25
1392.88,3017.2
1397.93,2994.55
1402.97,2993.0
1408.01,3008.65
1413.05,2977.45
1418.08,2988.85
1423.11,3005.35
1428.14,2996.55
1433.16,2968.75
1438.18,2968.2
1443.2,2967.85
1448.21,2973.2
1453.22,2961.65
1458.23,2950.05
1463.23,2977.7
1468.23,2992.2
1473.23,3007.6
1478.23,2956.75
1483.22,2948.4
1488.21,2934.1
1493.2,2885.35
1498.18,2910.15
1503.16,2894.8
1508.14,2900.25
1513.11,2915.8
1518.08,2887.2
1523.05,2910.1
1528.01,2905.35
1532.97,2938.35
1537.93,2927.1
1542.89,2923.2
1547.84,2914.35
1552.79,2932.3
1557.73,2958.95
1562.68,2938.35
1567.62,2918.8
1572.56,2959.05
1577.49,2933.9
1582.42,2933.7
1587.35,2955.05
1592.27,2946.25
1597.19,2918.0
1602.11,2941.0
1607.03,2937.4
1611.94,2960.5
1616.85,2939.45
1621.76,2939.45
1626.66,2943.3
1631.56,2938.7
1636.46,2943.95
1641.36,2936.3
1646.25,2924.9
1651.14,2958.65
1656.02,2965.6
1660.9,2965.2
1665.78,2957.75
1670.66,2945.8
1675.54,2955.2
1680.41,2938.8
1685.27,2976.2
1690.14,2946.5
1695.0,2926.0
1699.86,2941.7
1704.71,2951.4
1709.57,2941.95
1714.42,2954.85
1719.26,2917.3
1724.11,2942.7
1728.95,2924.55
1733.79,2928.85
1738.62,2934.25
1743.46,2953.3
1748.28,2951.45
1753.11,2948.3
1757.93,2941.4
1762.75,2962.55
1767.57,2966.85
1772.39,2942.35
1777.2,2967.05
1782.01,2974.65
1786.81,2962.65
1791.62,2969.95
1796.41,2965.0
1801.21,2977.4
1806.01,2944.95
1810.8,2922.85
1815.59,2954.8
1820.37,2939.95
1825.15,2932.6
1829.93,2928.95
1834.71,2936.2
1839.48,2951.9
1844.25,2960.45
1849.02,2960.0
1853.79,2960.2
1858.55,2937.9
1863.31,2971.45
1868.06,2987.85
1872.82,2972.95
1877.57,2979.35
1882.31,2986.65
1887.06,2975.45
1891.8,2966.95
1896.54,2984.5
1901.28,3005.5
1906.01,2964.05
1910.74,2994.85
1915.47,2997.8
1920.19,2972.65
1924.91,2990.45
1929.63,2991.0
1934.35,3010.3
1939.06,2990.6
1943.77,2976.85
1948.48,3015.95
1953.19,3012.45
1957.89,3002.95
1962.59,3003.65
1967.28,3013.9
1971.98,3000.35
1976.67,2991.05
1981.35,3020.25
1986.04,3011.9
1990.72,3021.0
1995.4,3030.0
2000.08,3052.15
2004.75,3038.95
2009.42,3032.0
2014.09,3042.25
2018.75,3052.65
2023.42,3070.25
2028.08,3053.2
2032.73,3052.85
2037.39,3035.15
2042.04,3057.7
2046.69,3088.05
2051.33,3084.6
2055.97,3079.2
2060.61,3079.3
2065.25,3070.05
2069.88,3095.4
2074.52,3083.8
2079.15,3072.65
2083.77,3083.45
2088.39,3098.65
2093.01,3105.95
2097.63,3112.3
2102.25,3097.45
2106.86,3105.05
2111.47,3103.9
2116.08,3096.5
2120.68,3105.45
2125.28,3092.85
2129.88,3099.1
2134.47,3105.35
2139.07,3115.35
2143.66,3114.2
2148.24,3109.25
2152.83,3115.55
2157.41,3134.3
2161.99,3104.75
2166.57,3127.05
2171.14,3122.4
2175.71,3099.6
2180.28,3114.0
2184.84,3109.0
2189.41,3113.6
2193.97,3114.9
2198.52,3111.0
2203.08,3114.35
2207.63,3153.5
2212.18,3127.15
2216.73,3086.75
2221.27,3127.85
2225.81,3101.95
2230.35,3100.15
2234.89,3108.3
2239.42,3144.3
2243.95,3087.1
2248.48,3106.4
2253.0,3114.95
2257.52,3100.0
2262.04,3106.2
2266.56,3084.15
2271.07,3077.1
2275.58,3078.85
2280.09,3089.85
2284.6,3089.6
2289.1,3075.0
2293.6,3095.05
2298.1,3094.6
2302.6,3078.6
2307.09,3046.3
2311.58,3053.75
2316.07,3098.55
2320.55,3076.55
2325.03,3064.5
2329.51,3068.1
2333.99,3058.4
2338.46,3069.0
2342.93,3063.9
2347.4,3081.25
2351.87,3058.2
2356.33,3065.8
2360.79,3054.7
2365.25,3058.15
2369.71,3043.0
2374.16,3058.2
2378.61,3018.75
2383.06,3054.2
2387.5,3085.05
2391.94,3043.4
2396.38,3054.9
2400.82,3074.55
2405.26,3040.0
2409.69,3045.65
2414.12,3042.45
2418.54,3059.95
2422.97,3046.95
2427.39,3042.4
2431.81,3056.5
2436.22,3043.4
2440.64,3019.55
2445.05,3041.55
2449.46,3016.45
2453.86,3028.85
2458.27,3039.2
2462.67,3045.45
2467.06,3009.25
2471.46,3027.3
2475.85,3001.6
2480.24,3043.0
2484.63,3031.75
2489.02,3021.8
2493.4,2999.4
2497.78,3017.0
2502.16,3031.2
2506.53,2991.1
2510.9,3012.65
2515.27,3028.15
2519.64,3025.45
2524.0,3037.5
2528.37,3003.65
2532.73,2994.4
2537.08,2998.2
2541.44,3018.3
2545.79,2998.2
2550.14,2998.7
2554.48,3014.45
2558.83,2995.9
2563.17,3009.95
2567.51,3015.35
2571.85,2988.3
2576.18,2968.9
2580.51,2996.2
2584.84,2991.55
2589.17,2977.15
2593.49,2984.3
2597.81,3000.15
2602.13,2976.95
2606.45,2992.6
2610.76,2985.25
2615.07,3001.2
2619.38,2961.25
2623.69,3012.15
2627.99,2976.95
2632.29,2964.75
2636.59,2995.5
2640.89,2987.95
2645.18,2972.7
2649.47,2996.2
2653.76,2979.65
2658.05,3015.85
2662.33,2986.5
2666.61,2972.05
2670.89,3000.25
2675.17,2988.45
2679.44,2973.35
2683.71,2962.95
2687.98,2965.55
2692.25,2977.75
2696.51,2978.05
2700.77,2978.8
2705.03,2978.05
2709.29,2972.75
2713.54,2977.25
2717.79,2958.15
2722.04,2946.35
2726.29,2980.8
2730.53,2985.8
2734.77,2967.3
2739.01,2973.0
2743.25,2982.45
2747.48,2995.25
2751.71,2965.25
2755.94,2956.8
2760.17,2952.0
2764.39,2967.05
2768.61,2965.7
2772.83,2966.6
2777.05,2941.25
2781.27,2964.5
2785.48,2962.95
2789.69,2959.65
2793.89,2947.9
2798.1,2956.35
2802.3,2958.25
2806.5,2987.65
2810.7,2958.25
2814.89,2965.2
2819.09,2976.7
2823.28,2978.8
2827.46,2997.7
2831.65,3004.7
2835.83,3011.55
2840.01,3026.8
2844.19,3062.45
2848.37,3086.8
2852.54,3121.15
2856.71,3104.75
2860.88,3099.0
2865.05,3155.25
2869.21,3147.9
2873.37,3193.75
2877.53,3240.65
2881.69,3269.6
2885.84,3268.95
2889.99,3290.85
2894.14,3243.4
2898.29,3251.65
2902.43,3246.75
2906.58,3266.7
2910.72,3211.95
2914.85,3173.15
2918.99,3154.65
2923.12,3116.85
2927.25,3095.8
2931.38,3103.55
2935.5,3091.85
2939.63,3081.65
2943.75,3098.5
2947.87,3066.45
2951.98,3028.0
2956.1,3046.7
2960.21,3001.5
2964.32,2985.4
2968.42,2969.6
2972.53,2970.0
2976.63,2946.6
2980.73,2931.0
2984.83,2938.6
2988.92,2902.9
2993.01,2875.95
2997.1,2878.9
3001.19,2903.55
3005.28,2886.25
3009.36,2839.85
3013.44,2859.25
3017.52,2881.3
3021.6,2862.35
3025.67,2835.45
3029.74,2821.85
3033.81,2788.85
3037.88,2803.7
3041.94,2844.85
3046.01,2803.9
3050.07,2802.15
3054.12,2802.45
3058.18,2783.95
3062.23,2816.9
3066.28,2761.4
3070.33,2786.5
3074.38,2784.2
3078.42,2808.55
3082.46,2782.4
3086.5,2771.65
3090.54,2804.15
3094.57,2789.25
3098.6,2771.35
3102.63,2767.35
3106.66,2771.9
3110.69,2771.3
3114.71,2765.85
3118.73,2784.9
3122.75,2776.1
3126.77,2775.2
3130.78,2752.9
3134.79,2760.1
3138.8,2757.6
3142.81,2749.95
3146.81,2781.65
3150.82,2762.9
3154.82,2740.15
3158.81,2762.2
3162.81,2748.9
3166.8,2767.8
3170.79,2754.45
3174.78,2726.75
3178.77,2737.3
3182.75,2735.5
3186.74,2725.05
3190.72,2726.15
3194.69,2744.2
3198.67,2740.0
3202.64,2718.75
3206.61,2737.35
3210.58,2730.55
3214.55,2720.8
3218.51,2721.65
3222.47,2738.25
3226.43,2722.7
3230.39,2734.45
3234.35,2711.6
3238.3,2719.25
3242.25,2725.0
3246.2,2701.25
3250.15,2710.1
3254.09,2729.55
3258.03,2748.7
3261.97,2726.65
3265.91,2718.75
3269.84,2731.65
3273.78,2727.75
3277.71,2719.6
3281.64,2735.9
3285.56,2737.85
3289.49,2738.6
3293.41,2726.4
3297.33,2732.0
3301.25,2696.3
3305.16,2720.3
3309.07,2711.95
3312.99,2719.6
3316.89,2717.75
3320.8,2688.9
3324.7,2704.55
3328.61,2713.85
3332.51,2703.35
3336.4,2698.4
3340.3,2697.25
3344.19,2710.3
3348.08,2711.35
3351.97,2714.45
3355.86,2707.65
3359.74,2699.85
3363.63,2716.75
3367.51,2668.85
3371.39,2675.0
3375.26,2676.6
3379.13,2697.85
3383.01,2686.3
3386.88,2648.85
3390.74,2662.95
3394.61,2638.0
3398.47,2666.8
3402.33,2663.9
3406.19,2638.5
3410.05,2638.35
3413.9,2655.05
3417.75,2640.9
3421.6,2663.75
3425.45,2653.4
3429.3,2624.2
3433.14,2637.55
3436.98,2637.8
3440.82,2636.6
3444.66,2603.05
3448.49,2584.65
3452.32,2623.0
3456.15,2621.6
3459.98,2609.1
3463.81,2607.05
3467.63,2581.7
3471.46,2583.85
3475.28,2583.8
3479.09,2602.3
3482.91,2574.1
3486.72,2552.3
3490.53,2562.65
3494.34,2561.85
3498.15,2550.35
3501.96,2576.15
3505.76,2553.05
3509.56,2537.8
3513.36,2527.05
3517.15,2527.75
3520.95,2524.2
3524.74,2528.5
3528.53,2532.35
3532.32,2525.05
3536.11,2516.4
3539.89,2519.45
3543.67,2519.45
3547.45,2494.7
3551.23,2473.05
3555.0,2483.25
3558.78,2492.35
3562.55,2507.35
3566.32,2476.25
3570.09,2492.7
3573.85,2474.05
3577.61,2472.25
3581.37,2500.95
3585.13,2445.55
3588.89,2471.45
3592.64,2465.2
3596.4,2447.5
3600.15,2451.95
3603.9,2452.15
3607.64,2448.55
3611.39,2435.05
3615.13,2430.6
3618.87,2439.1
3622.61,2433.05
3626.34,2404.6
3630.08,2423.0
3633.81,2427.2
3637.54,2408.05
3641.27,2409.4
3644.99,2433.05
3648.72,2422.75
3652.44,2421.5
3656.16,2416.05
3659.87,2408.1
3663.59,2407.2
3665.45,2409.85