File: spectra/VLFR_08-PLA_bio_Raman_b1625ae1.csv
nm,Intensity
528.626,1863.22
528.795,1863.45
528.963,1862.45
529.132,1863.2
529.3,1862.63
529.469,1863.72
529.637,1863.57
529.806,1863.2
529.974,1863.6
530.143,1863.28
530.311,1863.78
530.48,1864.4
530.648,1863.85
530.816,1864.6
530.985,1865.75
531.153,1866.38
531.322,1868.1
531.49,1872.38
531.658,1905.32
531.827,2427.55
531.995,4690.83
532.164,4480.9
532.332,2176.98
532.5,1870.3
532.669,1865.47
532.837,1865.95
533.006,1864.63
533.174,1864.32
533.342,1865.32
533.511,1874.95
533.679,1940.05
533.847,2066.5
534.016,2168.85
534.184,2205.38
534.352,2208.07
534.521,2207.57
534.689,2221.23
534.857,2227.68
535.025,2227.85
535.194,2233.25
535.362,2248.1
535.53,2249.48
535.699,2245.4
535.867,2233.3
536.035,2242.85
536.203,2228.07
536.372,2228.7
536.54,2235.27
536.708,2236.07
536.876,2229.45
537.044,2220.0
537.213,2242.05
537.381,2253.43
537.549,2259.57
537.717,2265.82
537.885,2266.82
538.054,2252.13
538.222,2261.25
538.39,2247.57
538.558,2257.8
538.726,2256.43
538.894,2255.3
539.063,2263.0
539.231,2259.65
539.399,2260.55
539.567,2267.18
539.735,2262.43
539.903,2262.6
540.071,2275.38
540.239,2260.02
540.408,2260.0
540.576,2271.88
540.744,2283.98
540.912,2279.6
541.08,2280.93
541.248,2292.98
541.416,2275.8
541.584,2294.93
541.752,2306.48
541.92,2285.43
542.088,2295.02
542.256,2297.25
542.424,2301.48
542.592,2309.75
542.76,2309.27
542.928,2308.5
543.096,2312.0
543.264,2307.82
543.432,2312.0
543.6,2320.18
543.768,2334.05
543.936,2337.02
544.104,2342.75
544.272,2336.77
544.44,2308.4
544.608,2324.63
544.776,2332.48
544.944,2335.1
545.112,2336.25
545.28,2332.38
545.448,2315.1
545.616,2329.48
545.784,2344.38
545.951,2337.15
546.119,2340.23
546.287,2327.02
546.455,2331.43
546.623,2354.57
546.791,2347.57
546.959,2348.8
547.127,2343.3
547.294,2341.05
547.462,2335.35
547.63,2335.85
547.798,2356.15
547.966,2359.18
548.134,2353.25
548.301,2364.48
548.469,2365.07
548.637,2369.05
548.805,2365.0
548.972,2370.27
549.14,2373.32
549.308,2362.9
549.476,2378.2
549.644,2364.68
549.811,2370.68
549.979,2377.45
550.147,2382.38
550.315,2389.45
550.482,2388.25
550.65,2381.98
550.818,2392.8
550.985,2392.63
551.153,2387.32
551.321,2396.75
551.488,2406.23
551.656,2404.38
551.824,2419.13
551.991,2409.2
552.159,2402.6
552.327,2420.23
552.494,2400.48
552.662,2407.35
552.83,2394.05
552.997,2392.1
553.165,2416.52
553.333,2398.85
553.5,2403.95
553.668,2427.5
553.835,2420.23
554.003,2429.43
554.171,2424.77
554.338,2427.15
554.506,2439.93
554.673,2431.35
554.841,2433.85
555.008,2445.75
555.176,2422.13
555.343,2430.82
555.511,2430.05
555.679,2434.38
555.846,2432.6
556.014,2437.88
556.181,2429.25
556.349,2421.2
556.516,2441.25
556.684,2435.15
556.851,2423.48
557.018,2429.68
557.186,2436.0
557.353,2446.18
557.521,2450.77
557.688,2458.32
557.856,2498.7
558.023,2502.15
558.191,2496.1
558.358,2484.98
558.525,2458.55
558.693,2436.63
558.86,2435.05
559.028,2433.95
559.195,2459.8
559.362,2457.25
559.53,2447.65
559.697,2458.98
559.864,2459.05
560.032,2449.93
560.199,2452.77
560.366,2452.38
560.534,2477.3
560.701,2494.13
560.868,2488.8
561.036,2478.8
561.203,2507.23
561.37,2578.18
561.538,2606.88
561.705,2545.82
561.872,2504.2
562.039,2497.1
562.207,2484.02
562.374,2480.4
562.541,2481.52
562.708,2506.23
562.876,2494.4
563.043,2495.88
563.21,2504.63
563.377,2516.25
563.545,2501.98
563.712,2506.1
563.879,2496.7
564.046,2490.23
564.213,2499.73
564.38,2503.75
564.548,2509.63
564.715,2503.3
564.882,2525.15
565.049,2508.98
565.216,2531.5
565.383,2519.4
565.551,2496.23
565.718,2514.4
565.885,2504.98
566.052,2530.73
566.219,2529.77
566.386,2522.2
566.553,2524.88
566.72,2530.93
566.887,2522.15
567.054,2508.15
567.221,2520.88
567.388,2527.2
567.555,2518.77
567.722,2521.55
567.889,2521.65
568.057,2509.25
568.224,2522.15
568.391,2513.93
568.558,2518.93
568.725,2517.3
568.892,2507.73
569.058,2520.82
569.225,2525.0
569.392,2538.1
569.559,2541.88
569.726,2523.18
569.893,2522.9
570.06,2532.52
570.227,2533.6
570.394,2527.0
570.561,2535.98
570.728,2507.43
570.895,2507.75
571.062,2508.98
571.229,2511.1
571.395,2547.82
571.562,2555.4
571.729,2547.3
571.896,2547.38
572.063,2562.35
572.23,2550.15
572.397,2555.07
572.563,2557.9
572.73,2546.0
572.897,2549.65
573.064,2564.9
573.231,2550.07
573.397,2560.3
573.564,2551.98
573.731,2557.48
573.898,2553.2
574.064,2552.43
574.231,2555.27
574.398,2537.98
574.565,2569.32
574.731,2553.3
574.898,2563.95
575.065,2562.07
575.232,2542.4
575.398,2553.13
575.565,2550.8
575.732,2561.68
575.898,2562.65
576.065,2561.63
576.232,2566.13
576.398,2576.85
576.565,2589.13
576.732,2579.93
576.898,2608.57
577.065,2586.88
577.232,2586.0
577.398,2563.48
577.565,2569.43
577.731,2574.32
577.898,2561.8
578.065,2547.8
578.231,2546.7
578.398,2544.13
578.564,2543.35
578.731,2557.93
578.897,2541.6
579.064,2570.43
579.23,2567.4
579.397,2559.57
579.563,2563.7
579.73,2589.9
579.896,2582.25
580.063,2559.85
580.229,2596.15
580.396,2572.1
580.562,2576.98
580.729,2582.5
580.895,2579.88
581.062,2576.73
581.228,2578.15
581.395,2583.77
581.561,2579.32
581.728,2571.7
581.894,2571.55
582.06,2589.85
582.227,2579.05
582.393,2575.18
582.56,2572.15
582.726,2579.65
582.892,2584.2
583.059,2574.43
583.225,2599.88
583.391,2591.93
583.558,2584.6
583.724,2577.98
583.89,2577.57
584.057,2597.32
584.223,2593.93
584.389,2605.63
584.556,2597.1
584.722,2565.77
584.888,2579.27
585.054,2575.65
585.221,2585.25
585.387,2573.07
585.553,2573.48
585.719,2567.23
585.886,2573.75
586.052,2574.85
586.218,2574.8
586.384,2589.55
586.55,2589.0
586.717,2582.38
586.883,2604.5
587.049,2612.73
587.215,2610.98
587.381,2620.07
587.548,2615.02
587.714,2618.25
587.88,2619.55
588.046,2589.23
588.212,2586.2
588.378,2592.5
588.544,2565.1
588.71,2570.2
588.876,2540.95
589.043,2530.25
589.209,2544.07
589.375,2564.07
589.541,2554.73
589.707,2521.2
589.873,2545.68
590.039,2554.52
590.205,2547.93
590.371,2572.25
590.537,2579.4
590.703,2572.43
590.869,2564.05
591.035,2570.85
591.201,2569.8
591.367,2579.07
591.533,2574.93
591.699,2584.63
591.865,2559.32
592.031,2576.55
592.197,2582.77
592.363,2573.05
592.529,2593.1
592.694,2570.3
592.86,2575.7
593.026,2573.07
593.192,2568.73
593.358,2568.18
593.524,2585.63
593.69,2577.3
593.856,2564.05
594.021,2554.4
594.187,2568.98
594.353,2561.32
594.519,2571.52
594.685,2565.77
594.851,2561.63
595.016,2575.8
595.182,2568.4
595.348,2570.85
595.514,2583.88
595.68,2573.93
595.845,2569.15
596.011,2582.2
596.177,2593.52
596.342,2596.95
596.508,2594.0
596.674,2581.38
596.84,2562.65
597.005,2599.2
597.171,2581.75
597.337,2568.1
597.502,2572.77
597.668,2567.0
597.834,2574.65
597.999,2583.65
598.165,2585.57
598.331,2572.02
598.496,2566.23
598.662,2581.4
598.828,2568.35
598.993,2579.75
599.159,2579.55
599.324,2599.1
599.49,2584.05
599.656,2575.35
599.821,2587.48
599.987,2577.82
600.152,2584.05
600.318,2583.63
600.483,2562.15
600.649,2577.68
600.814,2590.7
600.98,2576.35
601.145,2562.0
601.311,2574.35
601.476,2583.9
601.642,2585.85
601.807,2571.15
601.973,2567.93
602.138,2575.05
602.304,2557.48
602.469,2572.57
602.635,2580.13
602.8,2598.95
602.965,2570.52
603.131,2586.0
603.296,2584.1
603.462,2599.4
603.627,2574.18
603.792,2576.7
603.958,2588.2
604.123,2590.88
604.288,2569.18
604.454,2572.2
604.619,2582.57
604.784,2582.63
604.95,2580.18
605.115,2578.07
605.28,2575.93
605.446,2575.4
605.611,2579.95
605.776,2584.5
605.941,2573.88
606.107,2567.75
606.272,2579.75
606.437,2554.88
606.602,2568.35
606.767,2581.57
606.933,2577.7
607.098,2596.8
607.263,2569.43
607.428,2567.8
607.593,2568.88
607.759,2573.55
607.924,2568.7
608.089,2571.5
608.254,2578.88
608.419,2569.38
608.584,2560.73
608.749,2576.85
608.915,2573.8
609.08,2560.48
609.245,2566.5
609.41,2563.93
609.575,2548.6
609.74,2568.73
609.905,2568.07
610.07,2558.75
610.235,2559.43
610.4,2570.75
610.565,2588.7
610.73,2542.15
610.895,2552.8
611.06,2559.52
611.225,2553.5
611.39,2558.1
611.555,2566.6
611.72,2557.75
611.885,2563.3
612.05,2559.23
612.215,2551.0
612.38,2548.7
612.545,2572.3
612.71,2540.65
612.875,2552.88
613.04,2541.75
613.204,2568.6
613.369,2556.23
613.534,2551.65
613.699,2533.93
613.864,2540.13
614.029,2554.23
614.194,2551.43
614.358,2545.43
614.523,2555.77
614.688,2557.57
614.853,2550.93
615.018,2537.3
615.182,2529.9
615.347,2559.13
615.512,2548.32
615.677,2560.27
615.841,2558.13
616.006,2527.02
616.171,2521.95
616.336,2529.3
616.5,2538.23
616.665,2536.07
616.83,2541.0
616.994,2526.68
617.159,2529.07
617.324,2535.43
617.489,2545.55
617.653,2550.43
617.818,2555.5
617.982,2547.35
618.147,2532.1
618.312,2539.68
618.476,2546.75
618.641,2527.95
618.805,2525.65
618.97,2531.5
619.135,2527.55
619.299,2528.68
619.464,2556.82
619.628,2539.6
619.793,2554.32
619.957,2535.63
620.122,2544.7
620.286,2532.77
620.451,2540.63
620.615,2515.0
620.78,2544.57
620.944,2536.05
621.109,2531.77
621.273,2528.27
621.438,2518.93
621.602,2528.8
621.767,2524.05
621.931,2524.8
622.095,2517.1
622.26,2527.3
622.424,2533.5
622.589,2516.73
622.753,2527.55
622.917,2514.63
623.082,2512.38
623.246,2533.6
623.41,2536.52
623.575,2525.0
623.739,2513.7
623.903,2523.82
624.068,2509.05
624.232,2514.13
624.396,2501.15
624.561,2515.45
624.725,2513.07
624.889,2524.77
625.053,2499.73
625.218,2486.68
625.382,2509.9
625.546,2493.75
625.71,2489.2
625.875,2515.1
626.039,2481.18
626.203,2504.73
626.367,2483.07
626.531,2516.3
626.695,2499.9
626.86,2496.93
627.024,2496.05
627.188,2490.82
627.352,2478.13
627.516,2492.1
627.68,2467.45
627.844,2471.1
628.008,2480.7
628.172,2498.02
628.337,2518.7
628.501,2515.4
628.665,2513.68
628.829,2523.95
628.993,2516.93
629.157,2529.75
629.321,2501.15
629.485,2498.18
629.649,2498.95
629.813,2509.2
629.977,2496.1
630.141,2483.95
630.305,2520.07
630.469,2530.55
630.633,2548.98
630.797,2625.25
630.96,2645.57
631.124,2671.1
631.288,2633.1
631.452,2576.95
631.616,2538.27
631.78,2525.38
631.944,2526.18
632.108,2501.02
632.272,2510.13
632.435,2518.6
632.599,2507.38
632.763,2510.57
632.927,2534.93
633.091,2547.32
633.254,2531.85
633.418,2534.6
633.582,2511.82
633.746,2514.0
633.91,2505.85
634.073,2494.35
634.237,2481.93
634.401,2465.27
634.564,2448.02
634.728,2467.5
634.892,2462.18
635.056,2457.52
635.219,2448.6
635.383,2450.13
635.547,2455.15
635.71,2423.6
635.874,2434.35
636.038,2439.4
636.201,2429.27
636.365,2426.25
636.528,2432.15
636.692,2434.3
636.856,2440.25
637.019,2426.9
637.183,2446.73
637.346,2434.6
637.51,2446.43
637.673,2414.52
637.837,2429.0
638.0,2434.35
638.164,2425.32
638.327,2428.3
638.491,2435.45
638.654,2411.45
638.818,2416.48
638.981,2429.77
639.145,2409.85
639.308,2418.32
639.472,2405.57
639.635,2423.68
639.799,2397.27
639.962,2401.02
640.125,2403.88
640.289,2413.6
640.452,2417.45
640.616,2393.18
640.779,2392.5
640.942,2395.13
641.106,2407.95
641.269,2384.0
641.432,2387.45
641.596,2406.3
641.759,2386.13
641.922,2384.13
642.085,2378.18
642.249,2393.82
642.412,2401.38
642.575,2402.15
642.738,2390.43
642.902,2388.5
643.065,2370.57
643.228,2375.98
643.391,2395.95
643.555,2394.18
643.718,2369.43
643.881,2373.9
644.044,2381.6
644.207,2383.73
644.37,2380.1
644.534,2385.0
644.697,2385.63
644.86,2376.45
645.023,2365.9
645.186,2378.2
645.349,2365.8
645.512,2368.5
645.675,2382.1
645.838,2353.88
646.001,2366.68
646.164,2362.0
646.327,2344.0
646.49,2357.6
646.653,2354.93
646.816,2366.52
646.979,2357.35
647.142,2343.77
647.305,2340.63
647.468,2350.7
647.631,2348.07
647.794,2345.35
647.957,2346.75
648.12,2334.35
648.283,2346.57
648.446,2330.63
648.609,2339.45
648.772,2357.63
648.935,2341.2
649.098,2351.0
649.26,2334.93
649.423,2306.7
649.586,2306.45
649.749,2319.02
649.912,2341.5
650.075,2341.5
650.237,2328.75
650.4,2332.32
650.563,2345.2
650.726,2336.5
650.888,2321.88
651.051,2320.68
651.214,2332.82
651.377,2310.0
651.539,2327.8
651.702,2308.48
651.865,2312.0
652.027,2313.98
652.19,2319.32
652.353,2321.13
652.515,2296.02
652.678,2306.48
652.841,2291.32
653.003,2299.65
653.166,2302.4
653.329,2278.65
653.491,2272.3
653.654,2280.75
653.816,2278.7
653.979,2281.5
654.142,2273.9
654.304,2272.05
654.467,2271.13
654.629,2265.4
654.792,2260.75
654.954,2252.88
655.117,2269.48
655.279,2255.55
655.442,2259.2
655.604,2243.38
655.767,2250.82
655.929,2254.43
656.091,2226.5
656.254,2191.77
656.416,2203.23
656.579,2242.15
656.741,2239.23
656.904,2222.43
657.066,2249.68
657.228,2233.35
657.391,2233.2
657.553,2228.27
657.715,2243.7
657.878,2238.4
658.04,2234.38
658.202,2220.2
658.365,2211.1
658.527,2235.75
658.689,2212.98
658.851,2220.63
659.014,2223.6
659.176,2215.05
659.338,2200.13
659.5,2204.2
659.663,2218.98
659.825,2203.68
659.987,2204.13
660.149,2200.05
660.311,2208.2
660.474,2211.32
660.636,2202.27
660.798,2198.4
660.96,2208.5
661.041,2205.73