File: spectra/VLFR_06-PET_bio_Raman_ec716c1a.csv
nm,Intensity
528.65,1849.35
528.819,1849.1
528.987,1847.65
529.155,1849.0
529.324,1848.95
529.492,1849.35
529.66,1849.25
529.829,1848.6
529.997,1849.2
530.165,1849.6
530.334,1848.75
530.502,1849.85
530.67,1849.85
530.839,1849.25
531.007,1851.6
531.175,1850.9
531.344,1853.75
531.512,1858.6
531.68,1895.9
531.848,2681.65
532.017,4137.95
532.185,3343.4
532.353,1982.65
532.521,1855.75
532.69,1853.75
532.858,1853.45
533.026,1854.95
533.194,1855.75
533.363,1871.5
533.531,2002.3
533.699,2754.0
533.867,4039.8
534.036,4813.7
534.204,4754.05
534.372,4399.05
534.54,4158.25
534.708,3937.45
534.877,3760.0
535.045,3607.35
535.213,3442.2
535.381,3287.7
535.549,3107.45
535.717,3016.35
535.886,2867.45
536.054,2816.35
536.222,2773.05
536.39,2717.75
536.558,2665.05
536.726,2630.15
536.894,2625.3
537.062,2625.35
537.231,2631.8
537.399,2624.95
537.567,2585.15
537.735,2618.4
537.903,2630.1
538.071,2643.35
538.239,2638.0
538.407,2647.7
538.575,2623.45
538.743,2660.95
538.911,2649.95
539.079,2655.9
539.247,2688.1
539.415,2697.7
539.583,2693.45
539.751,2741.35
539.919,2723.85
540.087,2721.9
540.255,2699.2
540.423,2669.95
540.591,2659.7
540.759,2619.75
540.927,2623.35
541.095,2623.0
541.263,2607.3
541.431,2594.25
541.599,2581.4
541.767,2608.85
541.935,2623.7
542.103,2608.25
542.271,2628.7
542.439,2631.05
542.607,2643.2
542.775,2661.7
542.943,2659.5
543.111,2641.05
543.279,2663.5
543.446,2647.7
543.614,2647.35
543.782,2698.15
543.95,2715.0
544.118,2744.1
544.286,2716.7
544.454,2697.7
544.622,2699.6
544.789,2666.45
544.957,2693.8
545.125,2690.25
545.293,2718.5
545.461,2707.1
545.629,2704.65
545.796,2697.85
545.964,2748.85
546.132,2770.5
546.3,2859.35
546.468,2908.25
546.635,2848.8
546.803,2784.4
546.971,2756.2
547.139,2743.15
547.306,2750.7
547.474,2735.45
547.642,2727.5
547.81,2733.6
547.977,2742.3
548.145,2757.4
548.313,2735.8
548.481,2777.6
548.648,2761.8
548.816,2752.0
548.984,2762.35
549.151,2752.05
549.319,2777.35
549.487,2787.4
549.655,2756.15
549.822,2785.9
549.99,2825.8
550.158,2854.5
550.325,2888.4
550.493,3101.8
550.66,3260.45
550.828,2993.8
550.996,2799.65
551.163,2796.05
551.331,2805.0
551.499,2748.05
551.666,2805.45
551.834,2823.15
552.001,2832.1
552.169,2799.15
552.337,2776.5
552.504,2836.35
552.672,2924.4
552.839,3017.0
553.007,2901.75
553.174,2819.85
553.342,2818.4
553.509,2810.8
553.677,2818.85
553.844,2780.75
554.012,2836.85
554.179,2824.3
554.347,2818.4
554.514,2818.2
554.682,2812.15
554.849,2844.9
555.017,2870.4
555.184,2876.15
555.352,2916.25
555.519,3056.05
555.687,3070.35
555.854,3019.5
556.022,3042.9
556.189,3032.25
556.357,3076.85
556.524,3061.2
556.691,3057.35
556.859,3072.3
557.026,3148.25
557.194,3281.1
557.361,3490.35
557.528,3577.95
557.696,3480.4
557.863,3213.75
558.031,3112.9
558.198,3174.3
558.365,3160.4
558.533,3134.1
558.7,3087.4
558.867,3037.7
559.035,3034.95
559.202,2951.0
559.369,2944.15
559.537,2952.45
559.704,2954.8
559.871,2917.5
560.038,2943.1
560.206,2950.65
560.373,2941.4
560.54,2922.45
560.708,2955.45
560.875,2966.2
561.042,2974.8
561.209,3001.1
561.377,2994.75
561.544,3024.0
561.711,3066.55
561.878,3126.05
562.045,3394.65
562.213,3828.35
562.38,3845.55
562.547,3348.1
562.714,3148.65
562.881,3130.95
563.049,3134.45
563.216,3110.8
563.383,3120.25
563.55,3082.3
563.717,3091.95
563.884,3080.6
564.052,3126.95
564.219,3094.85
564.386,3091.35
564.553,3145.75
564.72,3170.8
564.887,3268.8
565.054,3343.45
565.221,3398.35
565.388,3492.1
565.556,3590.25
565.723,3617.9
565.89,3615.55
566.057,3513.4
566.224,3435.75
566.391,3387.0
566.558,3306.05
566.725,3260.45
566.892,3199.85
567.059,3225.7
567.226,3265.05
567.393,3343.2
567.56,3417.35
567.727,3497.7
567.894,3398.05
568.061,3290.7
568.228,3303.55
568.395,3281.25
568.562,3270.5
568.729,3266.7
568.896,3293.85
569.063,3279.1
569.23,3294.55
569.396,3321.55
569.563,3354.0
569.73,3406.65
569.897,3432.05
570.064,3474.55
570.231,3527.6
570.398,3683.3
570.565,3846.05
570.732,3921.2
570.898,4153.95
571.065,4328.7
571.232,4527.25
571.399,4501.95
571.566,4293.5
571.733,4051.3
571.9,3969.8
572.066,3876.2
572.233,3757.8
572.4,3637.1
572.567,3538.8
572.734,3510.15
572.9,3514.25
573.067,3545.9
573.234,3458.9
573.401,3500.1
573.567,3478.25
573.734,3542.15
573.901,3604.85
574.068,3603.45
574.234,3604.4
574.401,3572.15
574.568,3543.85
574.734,3523.15
574.901,3607.15
575.068,3670.05
575.235,3782.4
575.401,3734.65
575.568,3665.65
575.735,3631.25
575.901,3639.75
576.068,3701.85
576.235,3740.15
576.401,3770.75
576.568,3788.05
576.734,3802.65
576.901,3768.25
577.068,3733.4
577.234,3705.05
577.401,3666.0
577.567,3673.9
577.734,3625.1
577.901,3659.95
578.067,3633.0
578.234,3649.05
578.4,3647.35
578.567,3687.8
578.733,3635.7
578.9,3667.9
579.066,3679.85
579.233,3675.6
579.399,3709.6
579.566,3688.0
579.732,3746.75
579.899,3675.05
580.065,3777.9
580.232,3779.45
580.398,3744.6
580.565,3792.1
580.731,3872.1
580.898,3839.35
581.064,3865.2
581.231,3925.45
581.397,3992.75
581.563,4196.35
581.73,4713.8
581.896,5932.25
582.063,7441.15
582.229,7434.65
582.395,5625.85
582.562,4292.15
582.728,3941.5
582.895,3904.95
583.061,3912.15
583.227,3834.9
583.394,3804.75
583.56,3860.55
583.726,3884.95
583.893,3899.8
584.059,3884.2
584.225,3851.95
584.391,3920.85
584.558,3980.65
584.724,3931.15
584.89,3939.15
585.057,4010.1
585.223,4103.2
585.389,4536.5
585.555,5134.25
585.722,5748.2
585.888,6070.2
586.054,6001.7
586.22,5638.4
586.386,5132.65
586.553,4692.8
586.719,4295.65
586.885,4085.75
587.051,4005.35
587.217,3964.3
587.384,3944.9
587.55,3940.25
587.716,3966.2
587.882,3900.0
588.048,3891.35
588.214,3907.4
588.38,3945.05
588.546,3930.7
588.713,3897.6
588.879,3883.75
589.045,3870.8
589.211,3875.6
589.377,3908.6
589.543,3880.45
589.709,3869.9
589.875,3875.2
590.041,3845.9
590.207,3907.95
590.373,3869.6
590.539,3832.65
590.705,3880.3
590.871,3910.8
591.037,3859.95
591.203,3946.65
591.369,3888.55
591.535,3891.7
591.701,3865.6
591.867,3872.1
592.033,3910.0
592.199,3890.25
592.365,3901.55
592.531,3940.75
592.697,3913.2
592.863,3940.7
593.029,3931.4
593.195,3882.2
593.361,3809.5
593.526,3913.8
593.692,3936.55
593.858,3879.25
594.024,3913.85
594.19,3917.5
594.356,3898.4
594.522,3873.25
594.687,3905.4
594.853,3909.3
595.019,3925.9
595.185,3920.5
595.351,3906.85
595.516,3963.0
595.682,3948.25
595.848,3890.7
596.014,3891.65
596.18,3958.35
596.345,3981.85
596.511,3914.85
596.677,3894.95
596.843,3913.85
597.008,3985.0
597.174,3924.45
597.34,3921.45
597.505,3938.7
597.671,3920.85
597.837,3920.15
598.002,3978.5
598.168,3905.1
598.334,3940.6
598.499,3916.0
598.665,3918.25
598.831,3921.55
598.996,3934.4
599.162,3939.2
599.328,3937.4
599.493,3977.85
599.659,3946.4
599.824,4017.35
599.99,3938.7
600.156,3907.8
600.321,3981.5
600.487,3946.95
600.652,3915.3
600.818,3983.5
600.983,3932.2
601.149,3989.5
601.314,3986.6
601.48,3968.0
601.645,3954.5
601.811,4018.0
601.976,3961.8
602.142,4029.45
602.307,3966.8
602.473,3961.85
602.638,3917.65
602.804,3950.45
602.969,4072.5
603.135,4001.3
603.3,3987.5
603.466,4023.3
603.631,3941.0
603.796,3923.65
603.962,4040.55
604.127,4012.15
604.293,3977.15
604.458,3985.3
604.623,3998.9
604.789,3947.3
604.954,4000.85
605.119,4022.05
605.285,4043.5
605.45,3964.6
605.615,3974.6
605.781,4015.85
605.946,3993.8
606.111,3993.05
606.277,4000.75
606.442,4031.95
606.607,4048.55
606.772,3995.1
606.938,3984.9
607.103,4007.75
607.268,4034.6
607.433,4084.7
607.599,3986.95
607.764,4052.65
607.929,4005.0
608.094,4033.55
608.259,4034.65
608.425,4054.7
608.59,4034.7
608.755,4074.3
608.92,4000.1
609.085,4051.8
609.25,4052.2
609.415,4024.45
609.581,4006.3
609.746,4080.05
609.911,4081.3
610.076,4010.5
610.241,4104.6
610.406,4038.45
610.571,4030.5
610.736,4084.0
610.901,4092.0
611.066,4095.75
611.231,4067.1
611.396,4037.3
611.561,4100.55
611.727,4062.85
611.892,4066.05
612.057,4111.15
612.222,4108.9
612.386,4076.6
612.551,4043.5
612.716,4154.45
612.881,4087.9
613.046,4089.25
613.211,4108.85
613.376,4126.25
613.541,4087.3
613.706,4085.8
613.871,4128.8
614.036,4122.25
614.201,4146.55
614.366,4144.7
614.531,4116.7
614.695,4138.55
614.86,4119.6
615.025,4164.1
615.19,4149.4
615.355,4174.95
615.52,4126.6
615.684,4129.2
615.849,4160.45
616.014,4188.45
616.179,4124.75
616.344,4168.45
616.508,4125.65
616.673,4228.95
616.838,4213.15
617.003,4169.1
617.168,4210.8
617.332,4181.15
617.497,4204.6
617.662,4207.35
617.826,4230.4
617.991,4232.1
618.156,4307.25
618.32,4262.1
618.485,4240.85
618.65,4235.95
618.814,4246.05
618.979,4200.3
619.144,4283.75
619.308,4263.65
619.473,4236.55
619.638,4192.45
619.802,4193.25
619.967,4294.9
620.131,4220.65
620.296,4284.85
620.461,4280.35
620.625,4227.1
620.79,4255.7
620.954,4220.25
621.119,4237.85
621.283,4246.3
621.448,4263.45
621.612,4228.35
621.777,4281.15
621.941,4252.2
622.106,4242.8
622.27,4268.05
622.435,4221.6
622.599,4269.0
622.764,4291.85
622.928,4352.4
623.093,4249.55
623.257,4309.1
623.422,4349.45
623.586,4313.3
623.75,4261.3
623.915,4297.85
624.079,4354.45
624.244,4328.0
624.408,4361.9
624.572,4302.0
624.737,4330.4
624.901,4360.1
625.065,4454.1
625.23,4376.95
625.394,4327.9
625.558,4367.9
625.723,4323.35
625.887,4320.05
626.051,4364.65
626.215,4354.6
626.38,4335.55
626.544,4387.8
626.708,4292.75
626.872,4406.0
627.037,4324.4
627.201,4348.2
627.365,4429.75
627.529,4358.6
627.693,4349.65
627.858,4468.05
628.022,4439.25
628.186,4452.25
628.35,4546.95
628.514,4555.3
628.678,4588.45
628.843,4603.0
629.007,4565.7
629.171,4659.85
629.335,4564.65
629.499,4612.75
629.663,4675.75
629.827,4594.3
629.991,4524.4
630.155,4490.5
630.319,4571.8
630.483,4609.4
630.647,4693.55
630.812,4716.65
630.976,4801.95
631.14,4881.95
631.304,5098.45
631.468,5288.2
631.632,5376.9
631.796,5341.1
631.959,5410.65
632.123,5178.0
632.287,5103.75
632.451,4969.2
632.615,4948.0
632.779,4962.1
632.943,4858.85
633.107,4964.05
633.271,4914.4
633.435,4831.25
633.599,4884.05
633.763,4804.7
633.926,4854.75
634.09,4838.55
634.254,4592.4
634.418,4661.1
634.582,4695.0
634.746,4668.7
634.909,4582.5
635.073,4841.7
635.237,4676.95
635.401,4744.6
635.564,4731.35
635.728,4860.75
635.892,5019.55
636.056,5097.5
636.219,5321.25
636.383,5569.95
636.547,5602.9
636.711,5426.25
636.874,5217.95
637.038,5038.65
637.202,4979.55
637.365,4759.3
637.529,4809.3
637.693,4732.4
637.856,4693.9
638.02,4640.45
638.184,4682.95
638.347,4767.55
638.511,4641.4
638.674,4554.15
638.838,4651.5
639.002,4638.1
639.165,4592.65
639.329,4603.5
639.492,4687.15
639.656,4635.8
639.819,4683.15
639.983,4653.2
640.146,4611.25
640.31,4676.7
640.473,4591.5
640.637,4540.2
640.8,4626.9
640.964,4584.8
641.127,4617.45
641.291,4580.95
641.454,4688.4
641.618,4543.4
641.781,4527.75
641.944,4529.15
642.108,4772.6
642.271,4677.65
642.435,4698.5
642.598,4693.0
642.761,4656.25
642.925,4663.8
643.088,4594.1
643.251,4541.0
643.415,4694.45
643.578,4584.85
643.741,4667.05
643.905,4598.05
644.068,4622.25
644.231,4551.7
644.394,4628.25
644.558,4579.95
644.721,4599.15
644.884,4569.8
645.047,4611.8
645.211,4693.95
645.374,4642.5
645.537,4589.3
645.7,4558.65
645.863,4640.25
646.027,4531.65
646.19,4660.1
646.353,4616.45
646.516,4624.9
646.679,4570.8
646.842,4563.85
647.005,4587.75
647.169,4622.2
647.332,4563.95
647.495,4641.15
647.658,4563.05
647.821,4587.6
647.984,4531.25
648.147,4585.5
648.31,4578.75
648.473,4517.05
648.636,4486.6
648.799,4466.35
648.962,4562.55
649.125,4556.95
649.288,4535.95
649.451,4565.35
649.614,4578.65
649.777,4584.25
649.94,4570.4
650.103,4534.25
650.266,4520.7
650.429,4583.75
650.592,4467.9
650.755,4465.55
650.918,4414.25
651.08,4593.35
651.243,4510.8
651.406,4475.3
651.569,4390.55
651.732,4504.75
651.895,4491.5
652.058,4510.8
652.22,4374.35
652.383,4514.15
652.546,4495.05
652.709,4455.75
652.872,4398.05
653.034,4476.45
653.197,4360.95
653.36,4426.8
653.523,4353.6
653.685,4345.6
653.848,4390.1
654.011,4417.25
654.173,4366.35
654.336,4351.6
654.499,4347.1
654.662,4319.0
654.824,4370.7
654.987,4258.3
655.149,4291.05
655.312,4359.95
655.475,4325.95
655.637,4281.95
655.8,4285.95
655.963,4345.7
656.125,4293.7
656.288,4356.5
656.45,4286.6
656.613,4205.15
656.775,4307.9
656.938,4275.95
657.1,4263.95
657.263,4249.45
657.425,4285.3
657.588,4177.85
657.75,4172.4
657.913,4217.45
658.075,4186.0
658.238,4141.45
658.4,4168.9
658.563,4216.0
658.725,4091.05
658.888,4155.55
659.05,4152.4
659.212,4124.85
659.375,4108.75
659.537,4086.6
659.7,4099.35
659.862,4119.3
660.024,4055.95
660.187,4133.75
660.349,4127.8
660.511,4095.25
660.674,4087.85
660.836,4045.15
660.998,4058.45
661.079,4023.45