File: spectra/VLFR_06-PET_bio_Raman_d31b7f04.csv
nm,Intensity
528.635,1840.9
528.803,1838.7
528.972,1842.0
529.14,1842.1
529.308,1838.7
529.477,1841.3
529.645,1841.5
529.814,1839.5
529.982,1840.8
530.151,1842.9
530.319,1841.8
530.487,1843.1
530.656,1843.6
530.824,1843.2
530.993,1844.1
531.161,1845.8
531.329,1847.5
531.498,1851.1
531.666,1890.5
531.835,2476.5
532.003,4684.1
532.171,4005.9
532.34,2102.8
532.508,1851.1
532.676,1850.1
532.845,1851.9
533.013,1856.6
533.181,1861.5
533.35,1905.3
533.518,2255.9
533.686,4416.8
533.854,8557.1
534.023,10870.1
534.191,10514.5
534.359,9522.4
534.528,8652.8
534.696,8100.0
534.864,7420.3
535.032,6685.8
535.201,6032.6
535.369,5408.5
535.537,4860.5
535.705,4438.2
535.874,3985.6
536.042,3698.0
536.21,3448.8
536.378,3300.2
536.546,3154.0
536.715,3084.8
536.883,2965.8
537.051,2982.1
537.219,2899.0
537.387,2874.8
537.556,2824.5
537.724,2790.1
537.892,2790.4
538.06,2819.3
538.228,2835.1
538.396,2869.0
538.565,2823.0
538.733,2831.4
538.901,2817.6
539.069,2848.6
539.237,2854.2
539.405,2959.5
539.573,3020.3
539.741,3047.4
539.909,3071.9
540.077,3003.6
540.246,2828.1
540.414,2736.6
540.582,2653.8
540.75,2630.4
540.918,2584.5
541.086,2535.8
541.254,2492.9
541.422,2495.6
541.59,2479.2
541.758,2470.8
541.926,2487.9
542.094,2491.9
542.262,2494.6
542.43,2504.8
542.598,2503.2
542.766,2514.1
542.934,2499.7
543.102,2479.6
543.27,2477.8
543.438,2467.6
543.606,2511.4
543.774,2535.6
543.942,2571.0
544.11,2511.8
544.278,2469.2
544.445,2506.8
544.613,2517.7
544.781,2530.1
544.949,2501.9
545.117,2523.6
545.285,2527.0
545.453,2513.8
545.621,2531.8
545.789,2518.7
545.957,2518.6
546.124,2536.7
546.292,2562.6
546.46,2515.5
546.628,2558.7
546.796,2544.6
546.964,2550.8
547.131,2539.9
547.299,2570.5
547.467,2568.9
547.635,2596.3
547.803,2568.6
547.97,2574.6
548.138,2620.2
548.306,2580.0
548.474,2609.8
548.642,2610.5
548.809,2588.0
548.977,2582.0
549.145,2594.1
549.313,2583.8
549.48,2587.4
549.648,2592.5
549.816,2603.2
549.983,2623.7
550.151,2641.0
550.319,2785.8
550.487,3426.5
550.654,4082.5
550.822,3402.1
550.99,2726.8
551.157,2707.3
551.325,2692.6
551.493,2675.6
551.66,2677.5
551.828,2686.9
551.996,2704.7
552.163,2731.4
552.331,2717.3
552.499,2818.5
552.666,3102.0
552.834,3267.1
553.001,3095.5
553.169,2797.0
553.337,2756.2
553.504,2738.1
553.672,2772.0
553.839,2790.1
554.007,2745.4
554.174,2760.7
554.342,2763.0
554.509,2808.2
554.677,2774.8
554.845,2810.0
555.012,2833.0
555.18,2918.8
555.347,3080.5
555.515,3382.3
555.682,3555.2
555.85,3431.9
556.017,3469.9
556.185,3482.6
556.352,3534.2
556.52,3560.5
556.687,3623.7
556.854,3614.1
557.022,3779.3
557.189,4277.1
557.357,4876.3
557.524,5315.5
557.692,5031.4
557.859,4227.4
558.026,3845.1
558.194,3842.6
558.361,3844.1
558.529,3764.5
558.696,3589.8
558.863,3466.7
559.031,3304.7
559.198,3208.0
559.365,3070.0
559.533,3028.5
559.7,3018.5
559.867,3002.0
560.035,3008.0
560.202,3012.2
560.369,2964.6
560.537,3021.2
560.704,3029.6
560.871,3044.0
561.039,3041.0
561.206,3077.0
561.373,3138.1
561.54,3139.2
561.708,3145.2
561.875,3209.2
562.042,3309.2
562.209,3319.2
562.377,3280.8
562.544,3326.4
562.711,3395.0
562.878,3446.1
563.046,3464.8
563.213,3408.4
563.38,3362.4
563.547,3313.6
563.714,3274.2
563.881,3274.5
564.049,3256.5
564.216,3273.7
564.383,3319.3
564.55,3390.6
564.717,3598.5
564.884,3741.6
565.052,3994.6
565.219,4236.1
565.386,4397.7
565.553,4637.9
565.72,4676.4
565.887,4737.8
566.054,4491.9
566.221,4082.7
566.388,3762.8
566.555,3609.4
566.722,3437.6
566.889,3369.2
567.056,3395.8
567.224,3464.8
567.391,3747.3
567.558,4023.5
567.725,4171.4
567.892,3984.7
568.059,3616.1
568.226,3499.3
568.393,3422.9
568.56,3389.5
568.727,3400.7
568.893,3416.7
569.06,3451.3
569.227,3440.0
569.394,3514.4
569.561,3624.3
569.728,3698.1
569.895,3744.9
570.062,3933.8
570.229,4079.1
570.396,4344.1
570.563,4855.7
570.73,5252.7
570.897,5846.7
571.063,6405.0
571.23,6746.5
571.397,6707.9
571.564,6201.5
571.731,5462.9
571.898,5113.9
572.064,4920.0
572.231,4436.8
572.398,4053.5
572.565,3925.0
572.732,3784.2
572.899,3696.1
573.065,3623.4
573.232,3671.6
573.399,3666.9
573.566,3693.6
573.732,3785.2
573.899,3873.1
574.066,3909.2
574.233,3800.3
574.399,3775.0
574.566,3763.6
574.733,3724.0
574.9,3823.0
575.066,3963.8
575.233,4154.8
575.4,4214.8
575.566,3987.3
575.733,3829.5
575.9,3794.1
576.066,3967.9
576.233,4141.4
576.4,4191.1
576.566,4214.9
576.733,4226.7
576.899,4195.9
577.066,4047.2
577.233,3901.5
577.399,3818.1
577.566,3773.9
577.732,3703.5
577.899,3739.1
578.066,3731.7
578.232,3772.3
578.399,3795.2
578.565,3741.4
578.732,3769.5
578.898,3685.3
579.065,3788.7
579.231,3758.6
579.398,3811.7
579.564,3790.0
579.731,3820.8
579.897,3784.5
580.064,3855.9
580.23,3898.8
580.397,3972.2
580.563,3913.8
580.73,3973.9
580.896,4114.2
581.063,4168.9
581.229,4247.8
581.396,4439.1
581.562,5116.4
581.728,6671.8
581.895,10050.2
582.061,14740.3
582.228,14331.7
582.394,8961.2
582.56,5345.6
582.727,4407.6
582.893,4207.0
583.059,4093.2
583.226,4049.6
583.392,4043.3
583.558,3984.4
583.725,3975.3
583.891,4101.2
584.057,4033.5
584.224,4087.2
584.39,4129.7
584.556,4246.4
584.722,4231.5
584.889,4311.3
585.055,4528.7
585.221,4961.7
585.387,5908.0
585.554,7608.6
585.72,9533.8
585.886,10603.4
586.052,10539.5
586.219,9619.6
586.385,8019.7
586.551,6513.3
586.717,5472.8
586.883,4662.6
587.049,4500.0
587.216,4315.1
587.382,4269.8
587.548,4130.6
587.714,4160.5
587.88,4145.1
588.046,4183.8
588.212,4118.4
588.379,4086.8
588.545,4156.9
588.711,4079.9
588.877,4080.7
589.043,4109.2
589.209,4122.8
589.375,4055.8
589.541,4074.0
589.707,4078.5
589.873,4117.9
590.039,4077.6
590.205,4049.3
590.371,4033.1
590.537,4099.7
590.703,4093.5
590.869,4057.2
591.035,4043.4
591.201,4108.3
591.367,4093.4
591.533,4132.3
591.699,4069.9
591.865,4115.6
592.031,4063.9
592.197,4142.9
592.363,4096.8
592.529,4136.2
592.695,4065.7
592.86,4078.9
593.026,4167.1
593.192,4095.2
593.358,4138.1
593.524,4141.0
593.69,4072.8
593.856,4066.9
594.022,4169.8
594.187,4109.2
594.353,4184.2
594.519,4143.0
594.685,4178.3
594.851,4135.5
595.016,4153.9
595.182,4148.4
595.348,4103.1
595.514,4220.0
595.679,4228.1
595.845,4192.0
596.011,4192.7
596.177,4188.6
596.342,4268.1
596.508,4160.0
596.674,4166.0
596.84,4220.8
597.005,4216.4
597.171,4212.4
597.337,4184.9
597.502,4231.5
597.668,4196.0
597.834,4202.5
597.999,4155.5
598.165,4217.8
598.331,4216.5
598.496,4196.4
598.662,4164.5
598.827,4235.1
598.993,4220.2
599.159,4161.2
599.324,4245.5
599.49,4243.3
599.655,4305.0
599.821,4252.4
599.987,4229.7
600.152,4238.3
600.318,4225.6
600.483,4328.0
600.649,4261.7
600.814,4237.3
600.98,4207.5
601.145,4237.3
601.311,4291.8
601.476,4262.7
601.642,4229.6
601.807,4224.1
601.973,4298.7
602.138,4266.9
602.303,4311.3
602.469,4302.6
602.634,4242.0
602.8,4328.2
602.965,4310.0
603.13,4299.6
603.296,4351.3
603.461,4238.2
603.627,4255.1
603.792,4353.4
603.957,4331.9
604.123,4288.1
604.288,4191.8
604.453,4343.3
604.619,4340.8
604.784,4309.2
604.949,4321.0
605.115,4307.8
605.28,4220.0
605.445,4339.8
605.61,4261.0
605.776,4317.6
605.941,4287.0
606.106,4312.3
606.272,4317.4
606.437,4234.9
606.602,4357.5
606.767,4377.2
606.932,4348.0
607.098,4328.1
607.263,4311.1
607.428,4426.6
607.593,4290.4
607.758,4326.9
607.923,4324.1
608.089,4341.2
608.254,4307.4
608.419,4347.7
608.584,4296.4
608.749,4391.9
608.914,4321.6
609.079,4270.0
609.244,4336.3
609.41,4405.6
609.575,4232.2
609.74,4354.0
609.905,4408.1
610.07,4399.0
610.235,4340.4
610.4,4345.3
610.565,4372.1
610.73,4350.5
610.895,4393.5
611.06,4289.6
611.225,4327.2
611.39,4330.6
611.555,4440.5
611.72,4353.5
611.885,4374.3
612.05,4344.3
612.215,4295.4
612.38,4426.4
612.545,4325.3
612.709,4368.6
612.874,4380.5
613.039,4377.9
613.204,4317.1
613.369,4323.1
613.534,4447.7
613.699,4369.5
613.864,4380.6
614.028,4438.1
614.193,4451.1
614.358,4401.6
614.523,4407.2
614.688,4389.3
614.853,4391.1
615.017,4416.2
615.182,4388.8
615.347,4400.1
615.512,4451.3
615.676,4376.7
615.841,4455.8
616.006,4515.6
616.171,4571.5
616.335,4443.7
616.5,4370.7
616.665,4459.0
616.829,4500.7
616.994,4486.1
617.159,4478.1
617.324,4495.1
617.488,4551.2
617.653,4539.1
617.818,4544.8
617.982,4578.7
618.147,4548.2
618.311,4576.5
618.476,4677.8
618.641,4546.3
618.805,4599.1
618.97,4543.6
619.134,4530.9
619.299,4535.7
619.463,4592.3
619.628,4571.8
619.793,4492.2
619.957,4454.6
620.122,4502.4
620.286,4516.7
620.451,4498.4
620.615,4457.3
620.78,4532.2
620.944,4513.4
621.109,4607.9
621.273,4499.2
621.438,4528.7
621.602,4593.7
621.766,4583.9
621.931,4508.4
622.095,4499.6
622.26,4502.2
622.424,4610.6
622.588,4642.2
622.753,4537.2
622.917,4584.6
623.082,4623.9
623.246,4559.6
623.41,4584.6
623.575,4605.9
623.739,4580.8
623.903,4712.6
624.068,4688.6
624.232,4698.7
624.396,4644.6
624.56,4761.3
624.725,4727.7
624.889,4713.5
625.053,4756.8
625.218,4767.5
625.382,4693.9
625.546,4683.4
625.71,4703.0
625.874,4737.4
626.039,4629.9
626.203,4740.3
626.367,4694.3
626.531,4697.6
626.695,4743.1
626.86,4690.9
627.024,4763.7
627.188,4710.1
627.352,4793.5
627.516,4734.9
627.68,4865.1
627.844,4858.9
628.008,4843.7
628.172,4983.8
628.337,5053.9
628.501,4982.9
628.665,5101.5
628.829,5178.1
628.993,5161.6
629.157,5230.0
629.321,5213.7
629.485,5293.1
629.649,5227.0
629.813,5141.4
629.977,5139.4
630.141,5120.2
630.305,5067.1
630.469,5140.8
630.633,5330.8
630.797,5560.1
630.961,5663.7
631.124,6054.3
631.288,6411.3
631.452,6724.2
631.616,7183.9
631.78,7101.6
631.944,6980.5
632.108,6881.9
632.272,6387.3
632.436,6348.3
632.599,6051.1
632.763,5944.9
632.927,5942.0
633.091,6037.2
633.255,5907.7
633.418,5865.1
633.582,5739.2
633.746,5581.3
633.91,5528.3
634.074,5537.7
634.237,5430.3
634.401,5330.7
634.565,5308.0
634.728,5314.0
634.892,5369.7
635.056,5532.2
635.22,5329.9
635.383,5455.1
635.547,5588.0
635.711,5783.5
635.874,6089.6
636.038,6452.5
636.202,6918.1
636.365,7437.5
636.529,7664.9
636.692,7302.3
636.856,6623.5
637.02,6254.1
637.183,5886.3
637.347,5741.6
637.51,5549.1
637.674,5494.6
637.837,5422.4
638.001,5447.3
638.164,5367.2
638.328,5424.3
638.491,5233.8
638.655,5304.6
638.818,5290.5
638.982,5282.0
639.145,5354.1
639.309,5272.6
639.472,5270.6
639.636,5223.2
639.799,5260.4
639.963,5342.6
640.126,5282.0
640.289,5379.0
640.453,5090.4
640.616,5287.1
640.78,5250.0
640.943,5280.3
641.106,5154.3
641.27,5309.1
641.433,5340.2
641.596,5285.2
641.76,5292.3
641.923,5385.3
642.086,5505.8
642.249,5397.6
642.413,5534.4
642.576,5427.2
642.739,5404.1
642.903,5303.9
643.066,5318.4
643.229,5234.8
643.392,5345.7
643.555,5357.4
643.719,5360.6
643.882,5274.1
644.045,5290.4
644.208,5366.2
644.371,5220.7
644.534,5416.0
644.698,5331.1
644.861,5302.2
645.024,5416.8
645.187,5300.8
645.35,5329.9
645.513,5420.2
645.676,5332.8
645.839,5479.0
646.002,5292.4
646.165,5230.9
646.329,5256.8
646.492,5336.7
646.655,5256.3
646.818,5331.3
646.981,5454.3
647.144,5296.0
647.307,5386.8
647.47,5438.1
647.633,5384.8
647.796,5243.4
647.958,5331.6
648.121,5433.2
648.284,5156.9
648.447,5171.9
648.61,5362.6
648.773,5277.6
648.936,5206.6
649.099,5411.2
649.262,5255.7
649.425,5068.4
649.587,5196.9
649.75,5439.7
649.913,5222.2
650.076,5195.2
650.239,5146.3
650.402,5327.6
650.564,5405.1
650.727,5283.9
650.89,5246.5
651.053,5331.7
651.215,5248.2
651.378,5089.1
651.541,5189.6
651.704,5306.5
651.866,5128.5
652.029,5197.6
652.192,5190.0
652.354,5178.2
652.517,5136.7
652.68,5181.6
652.842,5303.5
653.005,5145.0
653.168,5062.0
653.33,5201.2
653.493,5040.0
653.656,5115.3
653.818,5108.7
653.981,5120.1
654.143,5062.3
654.306,5020.0
654.468,5038.4
654.631,4969.8
654.794,5099.4
654.956,5032.6
655.119,5141.7
655.281,5080.8
655.444,4956.6
655.606,4938.7
655.769,4990.4
655.931,5105.8
656.093,5065.4
656.256,4925.9
656.418,4906.8
656.581,4977.2
656.743,4897.9
656.906,4977.1
657.068,5060.6
657.23,5056.8
657.393,4845.0
657.555,4902.7
657.718,4990.2
657.88,4875.0
658.042,4817.6
658.205,4865.5
658.367,4887.6
658.529,4955.1
658.691,4799.7
658.854,4844.3
659.016,4771.5
659.178,4794.1
659.341,4729.0
659.503,4747.0
659.665,4688.2
659.827,4660.9
659.989,4681.4
660.152,4633.3
660.314,4650.3
660.476,4734.5
660.638,4683.9
660.8,4622.7
660.963,4659.8
661.044,4637.7