File: spectra/VLFR_08-PLA_bio_Raman_5db7adae.csv
nm,Intensity
526.547,830.95
526.684,831.5
526.821,830.5
526.958,830.95
527.095,831.9
527.232,831.1
527.368,830.9
527.505,830.9
527.642,831.75
527.779,830.2
527.916,830.95
528.052,830.85
528.189,830.25
528.326,831.6
528.463,831.4
528.599,831.1
528.736,830.25
528.873,831.8
529.009,830.85
529.146,831.6
529.283,830.75
529.419,831.4
529.556,830.5
529.693,832.0
529.829,830.85
529.966,831.05
530.103,831.65
530.239,830.55
530.376,831.75
530.512,830.75
530.649,831.3
530.785,830.65
530.922,831.55
531.059,831.35
531.195,831.4
531.332,831.0
531.468,831.2
531.605,831.4
531.741,830.3
531.878,831.65
532.014,844.05
532.151,895.5
532.287,883.4
532.423,838.85
532.56,832.0
532.696,831.55
532.833,830.95
532.969,831.35
533.106,831.35
533.242,831.2
533.378,831.1
533.515,831.4
533.651,833.4
533.787,842.7
533.924,882.15
534.06,930.05
534.196,944.85
534.333,941.55
534.469,936.25
534.605,928.75
534.742,926.8
534.878,924.9
535.014,914.9
535.15,909.3
535.287,908.6
535.423,908.7
535.559,905.9
535.695,905.95
535.832,903.9
535.968,901.8
536.104,896.6
536.24,901.1
536.376,900.4
536.513,901.8
536.649,903.0
536.785,902.4
536.921,901.6
537.057,901.15
537.193,898.75
537.329,896.0
537.465,897.3
537.602,899.25
537.738,899.45
537.874,897.15
538.01,894.75
538.146,895.2
538.282,893.25
538.418,892.25
538.554,891.75
538.69,891.6
538.826,891.4
538.962,889.5
539.098,892.4
539.234,893.7
539.37,889.25
539.506,890.9
539.642,890.2
539.778,890.6
539.914,887.25
540.05,887.65
540.186,890.3
540.322,890.3
540.458,891.45
540.594,895.35
540.729,894.2
540.865,896.8
541.001,895.4
541.137,894.7
541.273,896.05
541.409,894.95
541.545,894.75
541.68,894.0
541.816,893.25
541.952,894.9
542.088,892.5
542.224,890.2
542.36,892.35
542.495,892.45
542.631,892.4
542.767,892.35
542.903,896.85
543.038,898.25
543.174,898.4
543.31,902.4
543.446,903.8
543.581,907.4
543.717,908.2
543.853,910.55
543.988,908.35
544.124,909.4
544.26,909.9
544.395,905.5
544.531,905.3
544.667,905.75
544.802,902.15
544.938,901.9
545.074,899.3
545.209,899.8
545.345,897.55
545.481,898.55
545.616,898.4
545.752,897.65
545.887,898.5
546.023,898.4
546.158,897.0
546.294,897.6
546.43,898.85
546.565,897.85
546.701,895.75
546.836,897.35
546.972,897.2
547.107,896.9
547.243,898.3
547.378,898.7
547.514,898.05
547.649,897.95
547.785,897.4
547.92,894.8
548.056,898.5
548.191,898.3
548.326,900.25
548.462,899.55
548.597,897.4
548.733,900.95
548.868,901.7
549.004,900.1
549.139,900.55
549.274,900.95
549.41,901.1
549.545,901.75
549.68,902.6
549.816,904.25
549.951,903.9
550.086,903.4
550.222,905.05
550.357,905.45
550.492,904.2
550.628,909.2
550.763,908.2
550.898,908.65
551.034,909.8
551.169,909.7
551.304,907.75
551.439,908.35
551.575,909.85
551.71,911.55
551.845,909.1
551.98,909.5
552.116,907.0
552.251,909.85
552.386,908.45
552.521,910.15
552.656,908.7
552.792,910.55
552.927,907.4
553.062,911.2
553.197,908.4
553.332,907.7
553.467,908.45
553.603,906.7
553.738,909.45
553.873,910.75
554.008,911.3
554.143,914.15
554.278,911.45
554.413,911.8
554.548,911.1
554.683,912.2
554.819,908.95
554.954,909.0
555.089,909.6
555.224,907.45
555.359,908.5
555.494,907.3
555.629,906.65
555.764,905.9
555.899,904.35
556.034,908.25
556.169,907.3
556.304,908.45
556.439,907.6
556.574,906.3
556.709,906.65
556.844,910.35
556.979,911.6
557.114,911.9
557.249,913.45
557.384,917.1
557.519,920.55
557.653,924.55
557.788,934.4
557.923,952.3
558.058,969.35
558.193,968.95
558.328,953.1
558.463,932.65
558.598,921.55
558.733,919.5
558.867,921.35
559.002,920.05
559.137,918.95
559.272,918.05
559.407,918.5
559.542,917.4
559.677,919.5
559.811,917.15
559.946,916.7
560.081,915.05
560.216,916.3
560.351,917.55
560.485,918.05
560.62,917.95
560.755,915.5
560.89,915.05
561.024,916.3
561.159,914.55
561.294,916.95
561.429,914.35
561.563,917.15
561.698,918.95
561.833,927.5
561.967,927.8
562.102,943.0
562.237,960.0
562.371,975.25
562.506,976.1
562.641,961.4
562.775,942.7
562.91,931.1
563.045,928.2
563.179,927.75
563.314,934.6
563.449,939.5
563.583,940.7
563.718,936.1
563.853,931.4
563.987,929.55
564.122,925.7
564.256,927.6
564.391,930.85
564.525,925.2
564.66,930.65
564.795,931.4
564.929,934.5
565.064,937.55
565.198,936.25
565.333,937.55
565.467,934.85
565.602,936.65
565.736,934.7
565.871,938.3
566.005,947.85
566.14,950.3
566.274,948.05
566.409,946.3
566.543,940.75
566.678,938.1
566.812,933.65
566.947,932.7
567.081,931.2
567.216,928.6
567.35,930.3
567.484,928.7
567.619,929.95
567.753,931.65
567.888,932.95
568.022,931.6
568.156,932.0
568.291,935.35
568.425,933.05
568.56,931.8
568.694,933.8
568.828,933.45
568.963,931.8
569.097,934.95
569.231,935.1
569.366,934.15
569.5,932.1
569.634,929.3
569.769,930.05
569.903,933.5
570.037,933.45
570.172,931.85
570.306,932.6
570.44,933.65
570.575,930.5
570.709,932.25
570.843,935.5
570.977,934.85
571.112,934.75
571.246,933.2
571.38,937.9
571.514,940.55
571.649,943.75
571.783,945.75
571.917,945.15
572.051,940.15
572.185,940.7
572.32,941.25
572.454,941.0
572.588,938.25
572.722,939.95
572.856,941.9
572.991,939.95
573.125,942.3
573.259,941.55
573.393,940.9
573.527,939.8
573.661,942.55
573.795,943.5
573.93,941.5
574.064,944.85
574.198,942.55
574.332,946.9
574.466,948.7
574.6,948.7
574.734,947.3
574.868,944.85
575.002,940.2
575.136,939.3
575.271,939.9
575.405,939.55
575.539,937.6
575.673,939.65
575.807,937.95
575.941,941.25
576.075,940.65
576.209,943.9
576.343,949.1
576.477,957.05
576.611,964.9
576.745,970.9
576.879,973.4
577.013,969.85
577.147,960.5
577.281,955.35
577.415,950.0
577.549,944.05
577.683,944.6
577.817,944.7
577.951,940.85
578.085,944.05
578.218,941.1
578.352,942.5
578.486,941.3
578.62,940.85
578.754,942.95
578.888,945.9
579.022,943.0
579.156,943.0
579.29,940.75
579.424,941.45
579.557,946.1
579.691,942.45
579.825,942.55
579.959,943.75
580.093,941.2
580.227,941.6
580.361,942.45
580.494,943.6
580.628,940.75
580.762,942.65
580.896,939.75
581.03,944.4
581.164,943.1
581.297,942.55
581.431,942.0
581.565,944.85
581.699,946.95
581.832,944.95
581.966,944.55
582.1,943.4
582.234,946.4
582.368,945.4
582.501,944.65
582.635,946.85
582.769,947.4
582.903,944.35
583.036,946.0
583.17,945.0
583.304,948.25
583.437,946.8
583.571,945.4
583.705,949.55
583.838,948.75
583.972,948.2
584.106,948.3
584.24,947.45
584.373,945.9
584.507,948.75
584.641,949.9
584.774,947.65
584.908,949.45
585.041,948.15
585.175,947.0
585.309,947.15
585.442,946.7
585.576,950.9
585.71,951.6
585.843,947.7
585.977,949.0
586.11,948.95
586.244,953.4
586.378,953.4
586.511,958.2
586.645,963.35
586.778,966.6
586.912,967.0
587.045,974.65
587.179,970.8
587.313,972.4
587.446,976.9
587.58,976.3
587.713,972.9
587.847,970.4
587.98,964.8
588.114,958.0
588.247,952.7
588.381,952.8
588.514,950.95
588.648,952.2
588.781,952.2
588.915,949.85
589.048,948.9
589.182,947.75
589.315,950.35
589.449,951.55
589.582,947.9
589.715,948.8
589.849,948.9
589.982,949.1
590.116,952.05
590.249,951.75
590.383,947.1
590.516,948.4
590.649,952.4
590.783,950.45
590.916,949.2
591.05,948.6
591.183,952.5
591.316,952.8
591.45,954.3
591.583,950.15
591.717,950.0
591.85,953.85
591.983,949.2
592.117,948.2
592.25,951.65
592.383,949.2
592.517,952.25
592.65,952.5
592.783,951.3
592.917,952.55
593.05,951.55
593.183,949.0
593.317,949.05
593.45,950.75
593.583,950.65
593.717,949.85
593.85,951.3
593.983,950.5
594.116,950.8
594.25,949.8
594.383,949.25
594.516,951.2
594.649,952.6
594.783,953.45
594.916,950.5
595.049,952.5
595.182,952.5
595.316,954.05
595.449,953.3
595.582,952.95
595.715,953.55
595.849,952.95
595.982,954.3
596.115,952.45
596.248,953.15
596.381,957.7
596.514,952.35
596.648,952.35
596.781,951.65
596.914,955.7
597.047,955.2
597.18,953.6
597.313,953.7
597.447,953.35
597.58,953.05
597.713,953.45
597.846,955.2
597.979,956.8
598.112,955.15
598.245,955.15
598.379,953.15
598.512,955.7
598.645,953.75
598.778,956.65
598.911,955.2
599.044,957.05
599.177,954.9
599.31,955.0
599.443,956.6
599.576,954.3
599.709,957.2
599.842,953.75
599.975,951.35
600.109,957.95
600.242,957.8
600.375,955.2
600.508,955.25
600.641,956.3
600.774,955.4
600.907,952.7
601.04,952.25
601.173,952.35
601.306,955.0
601.439,953.15
601.572,956.65
601.705,951.25
601.838,953.0
601.971,953.4
602.104,954.2
602.237,956.25
602.37,956.3
602.503,951.9
602.636,953.9
602.768,954.3
602.901,957.1
603.034,952.4
603.167,955.8
603.3,953.75
603.433,955.85
603.566,957.3
603.699,955.2
603.832,955.85
603.965,955.35
604.098,954.55
604.231,949.2
604.364,955.05
604.496,952.25
604.629,956.25
604.762,954.5
604.895,953.55
605.028,953.5
605.161,949.5
605.294,951.2
605.427,952.2
605.559,953.35
605.692,947.3
605.825,950.7
605.958,952.0
606.091,948.85
606.224,951.55
606.356,950.8
606.489,953.85
606.622,952.05
606.755,949.8
606.888,953.7
607.02,954.1
607.153,952.45
607.286,951.45
607.419,949.35
607.552,951.45
607.684,953.05
607.817,952.6
607.95,950.6
608.083,951.85
608.215,947.95
608.348,950.65
608.481,951.45
608.614,951.35
608.746,955.1
608.879,952.95
609.012,953.75
609.145,951.7
609.277,951.1
609.41,951.6
609.543,953.35
609.675,953.05
609.808,949.2
609.941,953.3
610.074,953.35
610.206,952.6
610.339,948.7
610.472,949.2
610.604,951.5
610.737,948.3
610.87,948.35
611.002,951.1
611.135,949.4
611.268,948.85
611.4,950.35
611.533,951.5
611.666,950.25
611.798,949.8
611.931,949.45
612.063,950.85
612.196,952.15
612.329,951.65
612.461,953.3
612.594,951.9
612.727,955.55
612.859,953.4
612.992,953.35
613.124,952.9
613.257,954.25
613.39,952.8
613.522,955.15
613.655,954.65
613.787,954.3
613.92,956.6
614.052,953.75
614.185,954.25
614.317,953.8
614.45,954.95
614.583,951.75
614.715,953.75
614.848,951.9
614.98,954.6
615.113,954.05
615.245,953.15
615.378,952.3
615.51,952.8
615.643,949.3
615.775,954.4
615.908,952.6
616.04,952.6
616.173,951.0
616.305,952.45
616.438,951.6
616.57,950.9
616.703,953.45
616.835,952.0
616.968,953.85
617.1,952.0
617.233,953.85
617.365,953.8
617.498,953.5
617.63,951.55
617.762,952.2
617.895,950.25
618.027,951.55
618.16,954.0
618.292,954.3
618.425,952.5
618.557,950.8
618.689,951.85
618.822,951.25
618.954,950.75
619.087,953.2
619.219,950.95
619.351,951.1
619.484,948.2
619.616,951.4
619.749,952.4
619.881,949.6
620.013,949.7
620.146,953.2
620.278,950.25
620.41,953.05
620.543,947.85
620.675,951.95
620.808,949.8
620.94,952.7
621.072,947.45
621.205,948.65
621.337,948.35
621.469,950.2
621.602,950.45
621.734,949.75
621.866,950.25
621.998,949.35
622.131,952.95
622.263,949.15
622.395,950.6
622.528,954.65
622.66,951.9
622.792,953.15
622.925,956.5
623.057,955.55
623.189,957.55
623.321,956.55
623.454,952.7
623.586,955.85
623.718,953.55
623.85,953.05
623.983,952.55
624.115,954.15
624.247,950.8
624.379,952.8
624.512,952.1
624.644,950.0
624.776,951.5
624.908,951.15
625.041,946.05
625.173,951.5
625.305,950.0
625.437,950.2
625.569,950.55
625.702,949.3
625.834,949.7
625.966,947.55
626.098,947.5
626.23,948.1
626.363,949.0
626.495,947.45
626.627,946.7
626.759,950.2
626.891,949.65
627.024,949.4
627.156,945.05
627.288,949.15
627.42,947.1
627.552,948.35
627.684,944.55
627.816,949.75
627.949,954.25
628.081,953.8
628.213,959.45
628.345,962.25
628.477,971.5
628.609,973.3
628.741,963.6
628.874,966.1
629.006,964.6
629.138,962.25
629.27,965.3
629.402,963.45
629.534,961.75
629.666,962.95
629.798,963.2
629.93,963.9
630.062,964.0
630.195,969.05
630.327,971.7
630.459,976.45
630.591,983.65
630.723,1001.5
630.855,1032.15
630.987,1071.95
631.119,1090.95
631.251,1088.55
631.383,1066.9
631.515,1037.15
631.647,1012.55
631.779,1001.8
631.911,991.5
632.043,986.2
632.175,982.45
632.307,979.65
632.439,975.2
632.571,977.6
632.703,973.5
632.835,981.25
632.967,988.35
633.099,997.4
633.231,1003.7
633.363,1003.95
633.495,1001.25
633.627,995.1
633.759,988.75
633.891,984.8
634.023,973.5
634.155,970.5
634.287,965.65
634.419,958.35
634.551,950.3
634.683,946.3
634.815,946.2
634.947,946.2
635.079,942.4
635.211,943.4
635.343,942.5
635.475,940.1
635.607,942.05
635.739,938.8
635.871,937.65
636.003,936.9
636.135,937.85
636.267,939.9
636.398,942.45
636.53,938.2
636.662,938.2
636.794,939.85
636.926,939.8
637.058,939.3
637.19,939.65
637.322,937.7
637.454,937.4
637.586,936.75
637.717,936.05
637.849,937.55
637.981,936.1
638.113,934.85
638.245,937.55
638.377,935.05
638.509,937.25
638.641,936.4
638.773,936.5
638.904,937.8
639.036,938.15
639.168,936.3
639.3,934.0
639.432,934.6
639.564,934.4
639.695,933.7
639.827,933.65
639.959,934.25
640.091,935.9
640.223,934.35
640.355,934.1
640.486,935.9
640.618,936.4
640.75,935.2
640.882,935.15
641.014,933.75
641.146,934.7
641.277,935.1
641.409,932.65
641.541,931.6
641.673,930.65
641.805,934.95
641.936,933.55
642.068,935.0
642.2,936.05
642.332,930.8
642.464,930.65
642.595,930.2
642.727,930.25
642.859,933.05
642.991,928.1
643.122,929.45
643.254,931.8
643.386,931.2
643.518,929.75
643.649,927.95
643.781,926.55
643.913,930.25
644.045,927.15
644.176,929.6
644.308,927.8
644.44,926.8
644.572,926.0
644.703,924.65
644.835,925.8
644.967,924.05
645.099,926.65
645.23,925.5
645.362,925.65
645.494,926.95
645.625,925.2
645.757,926.25
645.889,926.9
646.021,925.65
646.152,927.3
646.284,928.1
646.416,924.25
646.547,923.15
646.679,926.2
646.811,926.05
646.942,924.3
647.074,925.3
647.206,925.7
647.337,924.75
647.469,924.6
647.601,922.6
647.732,926.85
647.864,925.2
647.996,925.4
648.127,924.3
648.259,923.5
648.391,921.65
648.522,922.05
648.654,922.8
648.786,923.6
648.917,922.2
649.049,922.6
649.181,922.3
649.312,920.45
649.444,920.9
649.576,922.55
649.707,921.35
649.839,924.0
649.971,918.95
650.102,921.35
650.234,921.4
650.365,919.9
650.497,923.25
650.629,919.9
650.76,918.3
650.892,919.85
651.023,917.9
651.155,919.3
651.287,920.8
651.418,919.0
651.55,920.4
651.682,917.8
651.813,919.4
651.945,918.75
652.076,920.2
652.208,917.4
652.339,918.25
652.471,920.1
652.603,920.3
652.734,917.65
652.866,919.6
652.997,920.25
653.129,915.8
653.261,916.65
653.392,917.9
653.524,919.6
653.655,918.75
653.787,919.4
653.918,919.1
654.05,920.65
654.181,920.4
654.313,919.1
654.445,918.45
654.576,920.45
654.708,920.9
654.839,917.7
654.971,917.65
655.102,917.65
655.234,916.85
655.365,914.8
655.497,917.6
655.628,916.9
655.76,917.65
655.892,917.7
656.023,916.0
656.155,914.8
656.286,916.7
656.418,915.45
656.549,913.85
656.681,916.35
656.812,914.75
656.944,914.8
657.075,914.7
657.207,915.45
657.338,914.35
657.47,914.0
657.601,913.6
657.733,911.5
657.864,912.9
657.996,911.3
658.127,913.6
658.259,914.0
658.39,914.0
658.522,912.65
658.653,913.0
658.785,915.55
658.916,912.5
659.048,914.55
659.179,913.7
659.311,912.05
659.442,911.95
659.574,913.2
659.705,910.9
659.836,913.35
659.968,911.35
660.099,912.05
660.231,913.0
660.362,910.6
660.494,909.75
660.625,909.7
660.757,909.4
660.888,909.85
661.02,910.55
661.151,910.8
661.283,911.2
661.414,909.45
661.545,908.9
661.677,907.6
661.808,908.8
661.94,910.6
662.071,910.4
662.203,906.25
662.334,909.65
662.466,906.75
662.597,907.15
662.728,908.65
662.86,905.1
662.991,904.9
663.123,906.85