File: spectra/VLFR_02-HDPE_bio_Raman_d1d42456.csv
nm,Intensity
528.626,1861.9
528.795,1861.3
528.963,1863.9
529.132,1861.7
529.3,1864.0
529.469,1860.4
529.637,1861.7
529.806,1861.4
529.974,1862.8
530.143,1865.2
530.311,1863.0
530.48,1863.5
530.648,1864.4
530.816,1864.5
530.985,1863.5
531.153,1866.4
531.322,1864.7
531.49,1865.1
531.658,1887.4
531.827,2200.4
531.995,3178.1
532.164,3217.0
532.332,2124.6
532.5,1866.5
532.669,1864.5
532.837,1863.3
533.006,1863.3
533.174,1863.8
533.342,1864.9
533.511,1879.1
533.679,1972.8
533.847,2146.4
534.016,2272.1
534.184,2299.2
534.352,2272.5
534.521,2261.2
534.689,2256.7
534.857,2263.7
535.025,2254.3
535.194,2221.2
535.362,2188.3
535.53,2161.8
535.699,2127.3
535.867,2107.1
536.035,2110.3
536.203,2096.5
536.372,2083.6
536.54,2097.3
536.708,2086.3
536.876,2069.4
537.044,2071.0
537.213,2076.8
537.381,2081.0
537.549,2091.1
537.717,2078.0
537.885,2083.0
538.054,2071.9
538.222,2070.7
538.39,2059.7
538.558,2068.2
538.726,2047.5
538.894,2051.4
539.063,2044.6
539.231,2034.8
539.399,2038.5
539.567,2032.5
539.735,2034.2
539.903,2022.4
540.071,2034.4
540.239,2027.2
540.408,2015.8
540.576,2018.5
540.744,2030.5
540.912,2008.5
541.08,2018.4
541.248,2017.8
541.416,2023.8
541.584,2024.5
541.752,2030.2
541.92,2020.4
542.088,2027.1
542.256,2020.9
542.424,2028.7
542.592,2019.3
542.76,2021.4
542.928,2024.3
543.096,2009.6
543.264,2024.3
543.432,2023.1
543.6,2020.0
543.768,2029.6
543.936,2023.8
544.104,2026.0
544.272,2030.9
544.44,2028.7
544.608,2023.0
544.776,2026.1
544.944,2023.7
545.112,2028.1
545.28,2019.8
545.448,2026.6
545.616,2021.6
545.784,2026.4
545.951,2033.9
546.119,2032.7
546.287,2030.0
546.455,2026.1
546.623,2025.4
546.791,2039.7
546.959,2030.0
547.127,2041.5
547.294,2030.8
547.462,2025.3
547.63,2025.0
547.798,2023.0
547.966,2032.8
548.134,2031.2
548.301,2033.6
548.469,2034.4
548.637,2034.3
548.805,2036.7
548.972,2030.0
549.14,2029.7
549.308,2019.9
549.476,2023.7
549.644,2022.6
549.811,2031.8
549.979,2033.1
550.147,2028.8
550.315,2031.4
550.482,2035.4
550.65,2030.7
550.818,2029.9
550.985,2031.7
551.153,2034.6
551.321,2032.8
551.488,2040.1
551.656,2051.8
551.824,2040.0
551.991,2046.9
552.159,2048.1
552.327,2042.2
552.494,2038.0
552.662,2036.9
552.83,2040.8
552.997,2047.1
553.165,2050.3
553.333,2067.2
553.5,2067.1
553.668,2061.4
553.835,2069.8
554.003,2065.2
554.171,2066.8
554.338,2072.3
554.506,2080.6
554.673,2084.5
554.841,2077.9
555.008,2080.4
555.176,2071.8
555.343,2087.6
555.511,2078.5
555.679,2096.8
555.846,2088.9
556.014,2094.3
556.181,2094.9
556.349,2092.0
556.516,2114.9
556.684,2097.8
556.851,2100.5
557.018,2112.8
557.186,2117.4
557.353,2122.2
557.521,2148.7
557.688,2136.8
557.856,2135.6
558.023,2139.4
558.191,2142.6
558.358,2137.5
558.525,2154.9
558.693,2145.3
558.86,2136.6
559.028,2142.1
559.195,2154.0
559.362,2128.5
559.53,2124.0
559.697,2134.3
559.864,2130.7
560.032,2126.9
560.199,2122.9
560.366,2114.1
560.534,2138.7
560.701,2129.2
560.868,2129.5
561.036,2122.2
561.203,2133.3
561.37,2139.5
561.538,2142.4
561.705,2140.3
561.872,2144.9
562.039,2152.5
562.207,2150.9
562.374,2182.8
562.541,2167.5
562.708,2169.7
562.876,2182.2
563.043,2202.3
563.21,2207.5
563.377,2198.0
563.545,2244.8
563.712,2394.9
563.879,2797.5
564.046,3109.7
564.213,2807.8
564.38,2413.8
564.548,2366.5
564.715,2358.0
564.882,2334.5
565.049,2317.8
565.216,2266.5
565.383,2267.4
565.551,2279.9
565.718,2353.8
565.885,2593.9
566.052,3083.3
566.219,3174.9
566.386,2686.5
566.553,2339.0
566.72,2249.3
566.887,2244.0
567.054,2236.7
567.221,2291.4
567.388,2351.4
567.555,2348.0
567.722,2265.2
567.889,2225.5
568.057,2219.0
568.224,2198.8
568.391,2208.2
568.558,2222.0
568.725,2221.4
568.892,2212.2
569.058,2242.6
569.225,2231.3
569.392,2247.2
569.559,2243.9
569.726,2238.4
569.893,2261.0
570.06,2261.0
570.227,2274.2
570.394,2301.7
570.561,2325.4
570.728,2331.6
570.895,2348.0
571.062,2405.8
571.229,2672.6
571.395,3314.1
571.562,3780.2
571.729,3156.7
571.896,2628.6
572.063,2519.3
572.23,2461.9
572.397,2420.0
572.563,2383.6
572.73,2357.3
572.897,2342.2
573.064,2338.5
573.231,2328.4
573.397,2362.9
573.564,2381.0
573.731,2372.4
573.898,2458.6
574.064,2462.1
574.231,2426.7
574.398,2390.9
574.565,2392.6
574.731,2397.7
574.898,2403.0
575.065,2459.2
575.232,2575.6
575.398,2842.0
575.565,3104.1
575.732,2933.3
575.898,2929.1
576.065,3285.0
576.232,3627.1
576.398,3582.4
576.565,3371.2
576.732,3257.0
576.898,3241.8
577.065,3209.9
577.232,3060.5
577.398,2873.4
577.565,2771.3
577.731,2692.3
577.898,2687.2
578.065,2698.5
578.231,2647.8
578.398,2686.6
578.564,2689.1
578.731,2691.4
578.897,2708.8
579.064,2732.9
579.23,2756.9
579.397,2757.9
579.563,2779.5
579.73,2771.1
579.896,2827.3
580.063,2846.8
580.229,2841.0
580.396,2884.5
580.562,2879.0
580.729,2918.8
580.895,2926.9
581.062,2946.2
581.228,2971.9
581.395,2990.4
581.561,3016.9
581.728,3018.2
581.894,3057.6
582.06,3077.7
582.227,3071.4
582.393,3108.6
582.56,3106.6
582.726,3138.1
582.892,3172.7
583.059,3204.9
583.225,3228.2
583.391,3255.7
583.558,3246.5
583.724,3304.6
583.89,3300.9
584.057,3359.7
584.223,3367.0
584.389,3383.1
584.556,3442.5
584.722,3458.4
584.888,3481.0
585.054,3512.2
585.221,3496.6
585.387,3511.4
585.553,3566.9
585.719,3604.8
585.886,3645.5
586.052,3625.9
586.218,3645.9
586.384,3703.7
586.55,3817.3
586.717,3843.8
586.883,3825.3
587.049,3885.8
587.215,3943.6
587.381,3893.9
587.548,4009.5
587.714,4003.0
587.88,4054.4
588.046,4113.3
588.212,4128.0
588.378,4198.9
588.544,4230.8
588.71,4301.6
588.876,4208.9
589.043,4281.0
589.209,4346.9
589.375,4357.7
589.541,4386.2
589.707,4400.8
589.873,4426.1
590.039,4512.0
590.205,4457.2
590.371,4537.7
590.537,4590.7
590.703,4638.0
590.869,4627.1
591.035,4649.6
591.201,4647.0
591.367,4743.3
591.533,4806.4
591.699,4762.7
591.865,4727.8
592.031,4834.6
592.197,4862.3
592.363,4878.5
592.529,4878.2
592.694,4908.8
592.86,4830.5
593.026,4852.6
593.192,4866.3
593.358,4876.5
593.524,4922.5
593.69,4978.8
593.856,4903.5
594.021,4880.1
594.187,4974.7
594.353,4894.3
594.519,4979.3
594.685,4960.3
594.851,4963.9
595.016,4996.1
595.182,5023.8
595.348,5042.9
595.514,4925.6
595.68,5003.2
595.845,5138.9
596.011,5018.2
596.177,5002.2
596.342,5166.2
596.508,5150.6
596.674,5097.9
596.84,5103.1
597.005,5142.0
597.171,5160.9
597.337,5167.1
597.502,5196.6
597.668,5228.1
597.834,5057.2
597.999,5211.1
598.165,5203.9
598.331,5167.1
598.496,5299.8
598.662,5301.7
598.828,5283.5
598.993,5212.7
599.159,5385.4
599.324,5310.6
599.49,5374.4
599.656,5380.5
599.821,5328.4
599.987,5373.1
600.152,5329.1
600.318,5360.6
600.483,5299.6
600.649,5347.3
600.814,5408.0
600.98,5169.3
601.145,5273.9
601.311,5384.4
601.476,5341.0
601.642,5412.6
601.807,5292.1
601.973,5294.2
602.138,5275.8
602.304,5243.0
602.469,5215.5
602.635,5256.2
602.8,5171.5
602.965,5150.9
603.131,5128.3
603.296,5139.6
603.462,5045.2
603.627,5039.0
603.792,5046.4
603.958,5034.4
604.123,5008.5
604.288,4942.7
604.454,4876.5
604.619,4848.9
604.784,4851.2
604.95,4821.4
605.115,4729.6
605.28,4778.5
605.446,4710.1
605.611,4712.6
605.776,4597.5
605.941,4682.3
606.107,4588.3
606.272,4595.8
606.437,4474.6
606.602,4523.8
606.767,4515.5
606.933,4401.0
607.098,4447.5
607.263,4353.0
607.428,4336.9
607.593,4392.6
607.759,4285.1
607.924,4253.2
608.089,4249.6
608.254,4247.2
608.419,4170.0
608.584,4191.8
608.749,4159.8
608.915,4109.2
609.08,4134.8
609.245,4045.9
609.41,4111.1
609.575,4100.9
609.74,4008.5
609.905,3989.4
610.07,4023.0
610.235,3988.1
610.4,3958.2
610.565,3971.5
610.73,3990.7
610.895,3933.6
611.06,3927.3
611.225,3913.2
611.39,3933.3
611.555,3815.1
611.72,3780.0
611.885,3813.5
612.05,3819.2
612.215,3840.5
612.38,3795.8
612.545,3716.1
612.71,3751.6
612.875,3723.9
613.04,3706.2
613.204,3683.7
613.369,3672.8
613.534,3628.3
613.699,3706.1
613.864,3657.9
614.029,3617.9
614.194,3589.2
614.358,3621.3
614.523,3591.8
614.688,3549.2
614.853,3595.1
615.018,3554.1
615.182,3539.6
615.347,3520.0
615.512,3517.8
615.677,3507.5
615.841,3472.6
616.006,3493.9
616.171,3441.1
616.336,3424.3
616.5,3467.2
616.665,3467.8
616.83,3441.8
616.994,3446.3
617.159,3397.5
617.324,3440.9
617.489,3411.5
617.653,3459.8
617.818,3445.2
617.982,3427.5
618.147,3437.6
618.312,3397.7
618.476,3417.2
618.641,3371.7
618.805,3360.9
618.97,3323.6
619.135,3390.0
619.299,3340.5
619.464,3367.1
619.628,3344.7
619.793,3380.3
619.957,3339.9
620.122,3356.2
620.286,3311.3
620.451,3335.2
620.615,3312.5
620.78,3332.0
620.944,3345.0
621.109,3339.1
621.273,3399.6
621.438,3383.2
621.602,3450.0
621.767,3505.2
621.931,3574.7
622.095,3636.6
622.26,3602.2
622.424,3592.0
622.589,3582.7
622.753,3450.8
622.917,3377.1
623.082,3278.8
623.246,3220.4
623.41,3230.8
623.575,3191.7
623.739,3190.1
623.903,3220.3
624.068,3152.9
624.232,3160.2
624.396,3177.9
624.561,3176.1
624.725,3162.3
624.889,3184.5
625.053,3186.4
625.218,3159.7
625.382,3158.0
625.546,3203.1
625.71,3248.9
625.875,3268.6
626.039,3355.7
626.203,3383.6
626.367,3659.9
626.531,4111.2
626.695,4937.4
626.86,6383.4
627.024,7879.3
627.188,8928.1
627.352,8645.5
627.516,7781.3
627.68,6929.4
627.844,6459.1
628.008,6397.6
628.172,6901.4
628.337,8791.8
628.501,11191.9
628.665,10192.1
628.829,8352.8
628.993,7452.3
629.157,6886.4
629.321,6521.5
629.485,6115.4
629.649,5749.7
629.813,5409.9
629.977,5306.7
630.141,5064.3
630.305,4966.0
630.469,4879.9
630.633,4689.9
630.797,4329.8
630.96,4027.2
631.124,3661.9
631.288,3421.8
631.452,3358.6
631.616,3248.7
631.78,3185.3
631.944,3129.1
632.108,3132.8
632.272,3125.0
632.435,3148.2
632.599,3062.5
632.763,3127.6
632.927,3071.8
633.091,3113.9
633.254,3078.6
633.418,3071.7
633.582,3033.2
633.746,3038.0
633.91,3088.2
634.073,3030.1
634.237,3083.1
634.401,3013.2
634.564,3019.4
634.728,3009.5
634.892,3023.0
635.056,3038.9
635.219,2985.5
635.383,3000.4
635.547,3025.0
635.71,2988.2
635.874,2994.5
636.038,3014.3
636.201,3020.0
636.365,3032.0
636.528,3014.3
636.692,3038.1
636.856,3011.4
637.019,3027.5
637.183,3014.4
637.346,2990.6
637.51,2979.0
637.673,3002.1
637.837,2995.9
638.0,2990.1
638.164,3018.2
638.327,3062.7
638.491,3021.6
638.654,2960.8
638.818,3025.3
638.981,3040.4
639.145,3000.5
639.308,2988.8
639.472,2978.7
639.635,2998.8
639.799,3013.7
639.962,2999.1
640.125,2989.0
640.289,3049.9
640.452,2987.2
640.616,3022.9
640.779,3017.0
640.942,3025.3
641.106,2984.4
641.269,2971.1
641.432,3041.2
641.596,3020.9
641.759,2991.0
641.922,2986.7
642.085,3034.3
642.249,3037.8
642.412,3054.8
642.575,3035.4
642.738,3041.3
642.902,2999.0
643.065,3025.6
643.228,3030.2
643.391,3040.9
643.555,3034.9
643.718,3028.8
643.881,3004.3
644.044,3052.1
644.207,3035.5
644.37,3048.8
644.534,3021.5
644.697,3063.2
644.86,3011.0
645.023,3020.1
645.186,3043.2
645.349,3068.7
645.512,3080.1
645.675,2976.8
645.838,2984.8
646.001,3016.9
646.164,2996.0
646.327,3022.4
646.49,2992.0
646.653,2990.3
646.816,2986.0
646.979,3001.8
647.142,3015.1
647.305,3032.8
647.468,2950.9
647.631,3004.7
647.794,2968.3
647.957,2984.4
648.12,2967.3
648.283,2987.8
648.446,2960.5
648.609,2973.0
648.772,2948.4
648.935,2962.9
649.098,2925.0
649.26,2954.2
649.423,2943.3
649.586,2949.4
649.749,2916.1
649.912,2937.1
650.075,2895.9
650.237,2917.1
650.4,2905.7
650.563,2908.1
650.726,2891.9
650.888,2896.4
651.051,2979.4
651.214,2942.6
651.377,2867.3
651.539,2938.1
651.702,2898.1
651.865,2882.7
652.027,2830.8
652.19,2859.6
652.353,2894.2
652.515,2861.5
652.678,2835.5
652.841,2887.6
653.003,2839.5
653.166,2841.3
653.329,2848.8
653.491,2867.2
653.654,2811.8
653.816,2849.0
653.979,2824.2
654.142,2835.8
654.304,2810.6
654.467,2811.0
654.629,2790.1
654.792,2778.9
654.954,2812.5
655.117,2772.3
655.279,2820.0
655.442,2784.8
655.604,2760.3
655.767,2804.9
655.929,2792.8
656.091,2748.2
656.254,2730.0
656.416,2717.4
656.579,2737.9
656.741,2738.2
656.904,2700.6
657.066,2737.4
657.228,2753.0
657.391,2716.9
657.553,2671.4
657.715,2674.6
657.878,2643.3
658.04,2649.8
658.202,2663.4
658.365,2665.2
658.527,2635.7
658.689,2648.4
658.851,2619.9
659.014,2618.5
659.176,2629.6
659.338,2553.2
659.5,2591.0
659.663,2615.6
659.825,2560.8
659.987,2553.6
660.149,2572.7
660.311,2567.2
660.474,2565.6
660.636,2531.5
660.798,2530.8
660.96,2533.6
661.041,2526.9