File: spectra/VLFR_02-HDPE_bio_Raman_603869a7.csv
nm,Intensity
528.635,1838.5
528.803,1838.6
528.972,1837.2
529.14,1836.3
529.308,1836.0
529.477,1836.6
529.645,1839.3
529.814,1837.7
529.982,1837.1
530.151,1837.9
530.319,1837.1
530.487,1839.0
530.656,1837.3
530.824,1839.2
530.993,1839.1
531.161,1840.5
531.329,1841.3
531.498,1847.6
531.666,1884.4
531.835,2513.7
532.003,4473.0
532.171,4674.6
532.34,2080.3
532.508,1844.7
532.676,1839.4
532.845,1840.1
533.013,1840.0
533.181,1840.9
533.35,1841.0
533.518,1860.2
533.686,1976.5
533.854,2194.3
534.023,2314.5
534.191,2357.2
534.359,2333.2
534.528,2376.1
534.696,2378.0
534.864,2418.4
535.032,2390.6
535.201,2356.6
535.369,2296.3
535.537,2243.5
535.705,2221.3
535.874,2192.3
536.042,2177.0
536.21,2187.0
536.378,2185.3
536.546,2177.1
536.715,2157.4
536.883,2151.8
537.051,2157.7
537.219,2147.3
537.387,2168.8
537.556,2163.4
537.724,2154.5
537.892,2170.4
538.06,2134.4
538.228,2144.1
538.396,2137.3
538.565,2152.3
538.733,2135.4
538.901,2107.1
539.069,2123.5
539.237,2118.8
539.405,2105.3
539.573,2127.3
539.741,2109.4
539.909,2104.7
540.077,2102.8
540.246,2103.2
540.414,2096.1
540.582,2091.3
540.75,2112.3
540.918,2108.9
541.086,2111.9
541.254,2096.2
541.422,2097.4
541.59,2099.4
541.758,2095.2
541.926,2106.5
542.094,2089.3
542.262,2106.2
542.43,2081.9
542.598,2091.4
542.766,2090.7
542.934,2109.1
543.102,2081.5
543.27,2084.4
543.438,2078.6
543.606,2090.7
543.774,2090.9
543.942,2077.8
544.11,2076.7
544.278,2064.9
544.445,2100.7
544.613,2087.0
544.781,2079.4
544.949,2056.6
545.117,2072.3
545.285,2086.1
545.453,2051.7
545.621,2046.6
545.789,2061.5
545.957,2070.0
546.124,2048.9
546.292,2057.8
546.46,2052.1
546.628,2059.4
546.796,2048.2
546.964,2047.7
547.131,2043.8
547.299,2048.9
547.467,2057.6
547.635,2039.3
547.803,2047.8
547.97,2050.0
548.138,2049.1
548.306,2038.3
548.474,2049.1
548.642,2036.8
548.809,2043.8
548.977,2026.9
549.145,2031.0
549.313,2034.9
549.48,2025.5
549.648,2035.8
549.816,2036.8
549.983,2019.5
550.151,2031.3
550.319,2029.1
550.487,2023.0
550.654,2032.2
550.822,2016.2
550.99,2025.7
551.157,2028.6
551.325,2027.3
551.493,2022.2
551.66,2021.9
551.828,2023.2
551.996,2029.2
552.163,2028.6
552.331,2025.6
552.499,2022.3
552.666,2029.0
552.834,2021.5
553.001,2021.2
553.169,2033.9
553.337,2027.5
553.504,2042.4
553.672,2028.4
553.839,2030.5
554.007,2037.7
554.174,2032.7
554.342,2029.6
554.509,2032.1
554.677,2041.0
554.845,2034.1
555.012,2037.6
555.18,2026.5
555.347,2031.9
555.515,2047.0
555.682,2033.8
555.85,2038.1
556.017,2041.4
556.185,2042.0
556.352,2034.1
556.52,2042.9
556.687,2052.4
556.854,2055.0
557.022,2036.2
557.189,2052.8
557.357,2056.9
557.524,2063.6
557.692,2061.1
557.859,2070.4
558.026,2063.3
558.194,2075.6
558.361,2068.9
558.529,2077.5
558.696,2080.9
558.863,2057.8
559.031,2053.4
559.198,2062.7
559.365,2060.5
559.533,2050.3
559.7,2056.3
559.867,2063.1
560.035,2052.9
560.202,2044.8
560.369,2045.1
560.537,2039.3
560.704,2048.6
560.871,2047.4
561.039,2044.6
561.206,2036.3
561.373,2047.2
561.54,2049.4
561.708,2045.3
561.875,2058.5
562.042,2058.9
562.209,2065.5
562.377,2078.4
562.544,2076.2
562.711,2072.4
562.878,2084.6
563.046,2082.2
563.213,2082.0
563.38,2111.5
563.547,2163.0
563.714,2377.5
563.881,2783.6
564.049,2960.9
564.216,2554.7
564.383,2268.8
564.55,2239.8
564.717,2228.6
564.884,2193.9
565.052,2170.6
565.219,2146.7
565.386,2152.0
565.553,2172.8
565.72,2244.5
565.887,2475.2
566.054,2950.8
566.221,3061.3
566.388,2510.0
566.555,2193.4
566.722,2137.1
566.889,2118.5
567.056,2138.6
567.224,2189.0
567.391,2265.5
567.558,2248.0
567.725,2148.5
567.892,2104.1
568.059,2096.0
568.226,2100.1
568.393,2093.8
568.56,2091.6
568.727,2099.9
568.893,2095.6
569.06,2092.0
569.227,2106.6
569.394,2096.9
569.561,2105.8
569.728,2100.9
569.895,2109.9
570.062,2114.5
570.229,2120.1
570.396,2149.7
570.563,2171.5
570.73,2195.0
570.897,2197.8
571.063,2242.8
571.23,2489.1
571.397,3174.2
571.564,3666.1
571.731,2913.7
571.898,2378.2
572.064,2281.5
572.231,2222.8
572.398,2182.6
572.565,2175.3
572.732,2139.5
572.899,2135.2
573.065,2130.9
573.232,2133.9
573.399,2134.0
573.566,2150.0
573.732,2180.1
573.899,2234.1
574.066,2194.5
574.233,2141.4
574.399,2113.9
574.566,2119.0
574.733,2124.3
574.9,2131.0
575.066,2160.8
575.233,2300.1
575.4,2574.6
575.566,2797.0
575.733,2623.5
575.9,2576.6
576.066,2896.5
576.233,3224.1
576.4,3150.8
576.566,2882.2
576.733,2804.9
576.899,2832.5
577.066,2768.0
577.233,2657.0
577.399,2465.8
577.566,2310.8
577.732,2259.0
577.899,2193.3
578.066,2170.7
578.232,2164.3
578.399,2167.1
578.565,2147.7
578.732,2155.8
578.898,2134.3
579.065,2158.9
579.231,2149.1
579.398,2130.4
579.564,2153.2
579.731,2146.7
579.897,2142.8
580.064,2131.6
580.23,2134.3
580.397,2127.4
580.563,2134.1
580.73,2132.0
580.896,2126.3
581.063,2141.6
581.229,2117.4
581.396,2117.1
581.562,2126.3
581.728,2122.3
581.895,2122.5
582.061,2119.4
582.228,2111.2
582.394,2128.5
582.56,2110.2
582.727,2126.1
582.893,2111.6
583.059,2103.4
583.226,2103.4
583.392,2109.7
583.558,2125.9
583.725,2127.3
583.891,2107.8
584.057,2120.1
584.224,2113.9
584.39,2108.1
584.556,2121.4
584.722,2107.6
584.889,2116.9
585.055,2109.4
585.221,2105.2
585.387,2099.0
585.554,2100.7
585.72,2083.8
585.886,2099.8
586.052,2104.0
586.219,2105.7
586.385,2098.1
586.551,2102.4
586.717,2103.5
586.883,2087.6
587.049,2074.6
587.216,2098.0
587.382,2079.8
587.548,2096.8
587.714,2095.2
587.88,2079.9
588.046,2110.6
588.212,2107.7
588.379,2079.2
588.545,2093.6
588.711,2077.3
588.877,2087.1
589.043,2093.0
589.209,2071.8
589.375,2074.3
589.541,2094.5
589.707,2068.4
589.873,2061.7
590.039,2068.1
590.205,2093.1
590.371,2076.2
590.537,2074.9
590.703,2065.7
590.869,2083.1
591.035,2071.5
591.201,2075.0
591.367,2077.9
591.533,2083.2
591.699,2075.7
591.865,2094.4
592.031,2076.3
592.197,2070.9
592.363,2072.4
592.529,2077.9
592.695,2079.2
592.86,2075.8
593.026,2083.2
593.192,2075.2
593.358,2077.4
593.524,2074.5
593.69,2066.7
593.856,2079.7
594.022,2079.4
594.187,2077.8
594.353,2077.1
594.519,2077.8
594.685,2073.2
594.851,2076.5
595.016,2077.0
595.182,2078.7
595.348,2074.3
595.514,2075.8
595.679,2083.1
595.845,2084.4
596.011,2085.4
596.177,2085.4
596.342,2075.3
596.508,2086.0
596.674,2094.0
596.84,2078.0
597.005,2084.4
597.171,2093.3
597.337,2107.0
597.502,2087.5
597.668,2096.6
597.834,2097.3
597.999,2082.8
598.165,2096.5
598.331,2093.9
598.496,2092.1
598.662,2106.2
598.827,2098.7
598.993,2100.3
599.159,2097.1
599.324,2114.4
599.49,2101.0
599.655,2110.9
599.821,2115.6
599.987,2107.2
600.152,2121.1
600.318,2110.4
600.483,2105.9
600.649,2114.5
600.814,2113.0
600.98,2114.3
601.145,2113.1
601.311,2122.0
601.476,2117.1
601.642,2136.6
601.807,2134.5
601.973,2145.3
602.138,2157.0
602.303,2141.6
602.469,2118.0
602.634,2123.5
602.8,2115.1
602.965,2120.5
603.13,2107.0
603.296,2120.0
603.461,2113.1
603.627,2121.2
603.792,2118.2
603.957,2117.7
604.123,2120.1
604.288,2133.3
604.453,2106.5
604.619,2094.1
604.784,2097.1
604.949,2104.4
605.115,2122.2
605.28,2104.2
605.445,2101.2
605.61,2096.1
605.776,2092.7
605.941,2094.0
606.106,2105.7
606.272,2094.7
606.437,2092.8
606.602,2089.0
606.767,2088.3
606.932,2081.4
607.098,2087.2
607.263,2088.9
607.428,2081.4
607.593,2082.1
607.758,2080.4
607.923,2089.4
608.089,2076.7
608.254,2095.7
608.419,2079.0
608.584,2075.2
608.749,2082.5
608.914,2091.9
609.079,2082.9
609.244,2074.1
609.41,2080.1
609.575,2070.3
609.74,2087.5
609.905,2080.5
610.07,2067.9
610.235,2085.0
610.4,2086.6
610.565,2091.0
610.73,2098.0
610.895,2099.6
611.06,2101.0
611.225,2100.6
611.39,2083.8
611.555,2075.4
611.72,2081.8
611.885,2087.6
612.05,2079.7
612.215,2080.0
612.38,2074.9
612.545,2073.2
612.709,2058.2
612.874,2070.1
613.039,2071.7
613.204,2072.5
613.369,2082.8
613.534,2082.0
613.699,2073.9
613.864,2056.1
614.028,2073.6
614.193,2077.6
614.358,2074.0
614.523,2073.3
614.688,2075.9
614.853,2078.6
615.017,2079.3
615.182,2086.7
615.347,2080.8
615.512,2090.6
615.676,2087.1
615.841,2088.6
616.006,2090.1
616.171,2094.6
616.335,2100.0
616.5,2095.0
616.665,2122.8
616.829,2136.7
616.994,2144.6
617.159,2155.2
617.324,2156.6
617.488,2166.7
617.653,2185.5
617.818,2175.8
617.982,2170.1
618.147,2177.4
618.311,2165.7
618.476,2167.9
618.641,2168.6
618.805,2157.5
618.97,2167.4
619.134,2174.1
619.299,2190.9
619.463,2219.1
619.628,2210.7
619.793,2207.1
619.957,2210.5
620.122,2193.6
620.286,2206.7
620.451,2197.5
620.615,2217.6
620.78,2238.5
620.944,2250.7
621.109,2281.4
621.273,2313.1
621.438,2388.8
621.602,2456.5
621.766,2522.0
621.931,2616.4
622.095,2727.3
622.26,2709.4
622.424,2658.0
622.588,2573.7
622.753,2435.3
622.917,2359.8
623.082,2298.6
623.246,2243.1
623.41,2225.9
623.575,2206.6
623.739,2212.8
623.903,2202.6
624.068,2179.5
624.232,2193.5
624.396,2203.5
624.56,2208.2
624.725,2192.1
624.889,2227.7
625.053,2216.8
625.218,2226.1
625.382,2260.7
625.546,2278.8
625.71,2334.5
625.874,2393.7
626.039,2481.4
626.203,2635.2
626.367,2962.0
626.531,3630.1
626.695,4880.5
626.86,7026.1
627.024,9050.1
627.188,9939.5
627.352,9065.1
627.516,8054.4
627.68,7057.9
627.844,6785.0
628.008,6718.7
628.172,7421.1
628.337,9403.6
628.501,10502.9
628.665,8735.0
628.829,6675.4
628.993,6094.5
629.157,5777.9
629.321,5533.2
629.485,5194.9
629.649,4793.7
629.813,4433.5
629.977,4352.7
630.141,4312.1
630.305,4141.2
630.469,4004.7
630.633,3833.4
630.797,3470.3
630.961,3074.8
631.124,2722.7
631.288,2520.8
631.452,2375.7
631.616,2337.4
631.78,2294.0
631.944,2259.9
632.108,2225.7
632.272,2220.2
632.436,2205.3
632.599,2192.7
632.763,2184.6
632.927,2157.5
633.091,2166.0
633.255,2150.4
633.418,2138.4
633.582,2125.2
633.746,2115.4
633.91,2121.5
634.074,2102.8
634.237,2104.3
634.401,2072.6
634.565,2077.7
634.728,2079.9
634.892,2079.1
635.056,2070.4
635.22,2065.4
635.383,2064.7
635.547,2050.1
635.711,2048.8
635.874,2059.9
636.038,2050.6
636.202,2055.4
636.365,2041.5
636.529,2048.5
636.692,2049.3
636.856,2031.0
637.02,2025.0
637.183,2010.4
637.347,2007.9
637.51,1994.6
637.674,2003.9
637.837,2000.0
638.001,2003.9
638.164,1989.0
638.328,2005.2
638.491,1992.1
638.655,1985.9
638.818,1986.8
638.982,1992.5
639.145,1986.5
639.309,1984.1
639.472,1980.3
639.636,1972.6
639.799,1981.3
639.963,1973.2
640.126,1978.5
640.289,1975.8
640.453,1981.2
640.616,1973.1
640.78,1980.1
640.943,1982.2
641.106,1969.1
641.27,1969.8
641.433,1970.2
641.596,1964.7
641.76,1970.2
641.923,1973.9
642.086,1966.7
642.249,1970.9
642.413,1970.2
642.576,1966.6
642.739,1977.3
642.903,1969.8
643.066,1973.0
643.229,1965.2
643.392,1972.6
643.555,1958.7
643.719,1962.2
643.882,1961.4
644.045,1967.5
644.208,1973.1
644.371,1958.7
644.534,1953.4
644.698,1968.7
644.861,1968.7
645.024,1970.8
645.187,1966.9
645.35,1957.0
645.513,1966.5
645.676,1967.5
645.839,1963.3
646.002,1962.4
646.165,1958.8
646.329,1959.4
646.492,1958.4
646.655,1958.7
646.818,1954.9
646.981,1955.7
647.144,1954.7
647.307,1953.3
647.47,1964.1
647.633,1956.4
647.796,1959.5
647.958,1953.3
648.121,1958.1
648.284,1954.1
648.447,1959.6
648.61,1954.0
648.773,1956.6
648.936,1944.5
649.099,1962.0
649.262,1952.8
649.425,1954.1
649.587,1952.6
649.75,1950.6
649.913,1949.8
650.076,1948.1
650.239,1953.8
650.402,1959.4
650.564,1949.2
650.727,1955.3
650.89,1956.6
651.053,1951.5
651.215,1961.9
651.378,1949.5
651.541,1958.1
651.704,1954.0
651.866,1954.6
652.029,1951.5
652.192,1957.0
652.354,1952.9
652.517,1951.8
652.68,1955.6
652.842,1948.9
653.005,1965.1
653.168,1947.7
653.33,1951.1
653.493,1949.6
653.656,1951.2
653.818,1940.6
653.981,1943.9
654.143,1952.5
654.306,1937.6
654.468,1949.4
654.631,1946.9
654.794,1939.4
654.956,1943.1
655.119,1944.5
655.281,1944.9
655.444,1940.6
655.606,1939.5
655.769,1941.8
655.931,1949.3
656.093,1941.9
656.256,1938.7
656.418,1939.4
656.581,1936.9
656.743,1937.0
656.906,1938.4
657.068,1938.7
657.23,1942.0
657.393,1935.8
657.555,1940.4
657.718,1939.4
657.88,1946.0
658.042,1941.3
658.205,1942.4
658.367,1932.3
658.529,1922.6
658.691,1931.7
658.854,1936.7
659.016,1939.6
659.178,1938.2
659.341,1938.5
659.503,1931.8
659.665,1942.6
659.827,1940.0
659.989,1947.6
660.152,1948.9
660.314,1938.4
660.476,1938.8
660.638,1939.1
660.8,1939.8
660.963,1932.0
661.044,1926.9