File: spectra/VLFR_01-LDPE_bio_Raman_862ce177.csv
nm,Intensity
526.495,828.8
526.632,830.0
526.768,828.8
526.905,829.4
527.042,828.7
527.179,829.0
527.315,829.9
527.452,829.6
527.589,828.8
527.725,830.1
527.862,828.9
527.999,829.8
528.136,829.9
528.272,828.1
528.409,829.8
528.546,828.0
528.682,830.7
528.819,828.5
528.955,829.0
529.092,829.0
529.229,829.7
529.365,828.9
529.502,829.3
529.639,828.8
529.775,829.6
529.912,829.6
530.048,829.0
530.185,829.3
530.321,829.2
530.458,829.4
530.594,829.5
530.731,828.9
530.867,830.5
531.004,827.8
531.14,829.2
531.277,829.2
531.413,829.9
531.55,830.3
531.686,829.0
531.823,828.9
531.959,828.9
532.096,833.7
532.232,833.7
532.369,831.1
532.505,830.2
532.641,830.2
532.778,827.7
532.914,829.4
533.051,827.8
533.187,829.5
533.323,828.4
533.46,829.1
533.596,830.1
533.732,833.7
533.869,855.6
534.005,881.9
534.141,894.0
534.278,892.2
534.414,887.3
534.55,888.0
534.687,886.0
534.823,885.7
534.959,883.0
535.095,880.8
535.232,875.5
535.368,871.9
535.504,870.1
535.64,867.8
535.777,865.6
535.913,862.6
536.049,863.8
536.185,863.6
536.321,861.0
536.457,862.0
536.594,860.4
536.73,859.6
536.866,857.6
537.002,857.9
537.138,857.9
537.274,859.0
537.41,857.9
537.547,859.2
537.683,857.8
537.819,859.0
537.955,858.0
538.091,858.0
538.227,856.7
538.363,857.7
538.499,852.6
538.635,856.4
538.771,855.5
538.907,854.1
539.043,853.6
539.179,852.0
539.315,852.1
539.451,851.5
539.587,851.5
539.723,850.1
539.859,849.9
539.995,850.9
540.131,852.6
540.267,852.1
540.403,851.4
540.539,850.3
540.675,848.7
540.811,849.4
540.947,850.7
541.083,848.7
541.219,849.3
541.354,850.6
541.49,849.7
541.626,850.6
541.762,848.7
541.898,848.2
542.034,846.9
542.17,849.8
542.305,847.7
542.441,849.4
542.577,849.8
542.713,850.7
542.849,847.6
542.984,848.4
543.12,847.3
543.256,849.2
543.392,849.9
543.528,849.9
543.663,851.2
543.799,849.1
543.935,850.3
544.071,849.0
544.206,849.5
544.342,849.7
544.478,849.6
544.613,849.0
544.749,851.4
544.885,848.3
545.02,848.8
545.156,848.8
545.292,848.4
545.427,848.9
545.563,851.1
545.699,849.3
545.834,848.3
545.97,849.8
546.106,848.0
546.241,849.8
546.377,849.0
546.512,848.9
546.648,851.2
546.784,849.6
546.919,849.1
547.055,850.3
547.19,849.8
547.326,848.7
547.461,848.7
547.597,849.9
547.732,848.3
547.868,850.7
548.003,850.0
548.139,850.6
548.274,851.2
548.41,850.5
548.545,848.3
548.681,849.1
548.816,850.4
548.952,849.8
549.087,848.9
549.223,851.1
549.358,848.7
549.494,848.8
549.629,850.0
549.764,849.5
549.9,849.9
550.035,850.8
550.171,850.9
550.306,850.0
550.441,849.0
550.577,849.7
550.712,850.9
550.847,850.4
550.983,848.7
551.118,852.3
551.253,850.0
551.389,851.6
551.524,852.3
551.659,850.5
551.795,850.6
551.93,850.4
552.065,850.6
552.201,851.8
552.336,849.7
552.471,848.8
552.606,851.7
552.742,851.5
552.877,850.7
553.012,852.4
553.147,851.2
553.283,853.5
553.418,852.3
553.553,854.5
553.688,852.2
553.823,854.0
553.959,852.3
554.094,853.2
554.229,854.3
554.364,853.4
554.499,853.9
554.634,855.1
554.769,856.5
554.905,856.1
555.04,855.5
555.175,855.5
555.31,852.6
555.445,853.2
555.58,853.8
555.715,857.2
555.85,856.3
555.985,854.0
556.121,856.4
556.256,855.9
556.391,858.3
556.526,859.7
556.661,857.1
556.796,858.2
556.931,859.8
557.066,859.3
557.201,859.4
557.336,861.1
557.471,859.8
557.606,861.1
557.741,861.2
557.876,860.7
558.011,864.0
558.146,864.7
558.281,862.7
558.416,865.0
558.551,862.6
558.685,862.0
558.82,862.8
558.955,863.8
559.09,863.4
559.225,862.2
559.36,861.9
559.495,860.9
559.63,861.6
559.765,861.5
559.9,864.2
560.034,863.5
560.169,858.0
560.304,860.2
560.439,861.5
560.574,862.7
560.709,859.5
560.843,861.2
560.978,862.4
561.113,862.3
561.248,863.0
561.383,863.9
561.517,862.8
561.652,860.9
561.787,863.0
561.922,865.7
562.057,862.8
562.191,864.5
562.326,865.0
562.461,864.8
562.596,864.1
562.73,867.6
562.865,868.6
563.0,868.8
563.134,871.4
563.269,872.6
563.404,872.7
563.539,874.7
563.673,880.4
563.808,893.7
563.943,949.6
564.077,1015.3
564.212,966.6
564.346,904.1
564.481,890.6
564.616,891.8
564.75,888.9
564.885,888.3
565.02,881.3
565.154,881.6
565.289,879.6
565.423,882.6
565.558,884.7
565.693,884.8
565.827,893.8
565.962,920.3
566.096,1005.6
566.231,1091.4
566.365,996.1
566.5,908.8
566.634,885.9
566.769,881.2
566.903,877.0
567.038,876.4
567.172,876.4
567.307,880.9
567.441,887.8
567.576,887.2
567.71,876.1
567.845,873.9
567.979,872.2
568.114,874.4
568.248,873.8
568.383,873.1
568.517,876.0
568.652,874.9
568.786,876.4
568.92,874.8
569.055,873.6
569.189,882.0
569.324,876.3
569.458,874.9
569.592,875.1
569.727,878.6
569.861,880.8
569.996,881.5
570.13,880.8
570.264,882.3
570.399,883.6
570.533,887.2
570.667,888.9
570.802,887.2
570.936,894.3
571.07,890.9
571.205,901.4
571.339,922.7
571.473,1029.7
571.607,1124.2
571.742,993.5
571.876,924.5
572.01,911.0
572.144,903.6
572.279,899.2
572.413,894.8
572.547,893.7
572.681,889.2
572.816,890.7
572.95,889.5
573.084,894.0
573.218,888.6
573.353,894.1
573.487,891.5
573.621,894.2
573.755,897.3
573.889,904.7
574.023,909.0
574.158,907.4
574.292,899.0
574.426,892.6
574.56,896.6
574.694,900.2
574.828,901.4
574.963,899.9
575.097,905.3
575.231,909.7
575.365,938.8
575.499,1008.8
575.633,1030.4
575.767,970.8
575.901,955.4
576.035,963.6
576.169,996.3
576.303,1024.9
576.438,1023.0
576.572,997.3
576.706,981.3
576.84,985.0
576.974,985.9
577.108,990.4
577.242,979.8
577.376,962.1
577.51,949.8
577.644,944.2
577.778,941.9
577.912,937.4
578.046,938.3
578.18,936.8
578.314,939.7
578.448,940.6
578.582,939.1
578.716,940.0
578.85,941.1
578.984,946.9
579.117,947.1
579.251,951.2
579.385,950.2
579.519,953.5
579.653,952.3
579.787,952.5
579.921,955.8
580.055,958.0
580.189,957.2
580.323,960.9
580.456,966.6
580.59,965.6
580.724,967.1
580.858,968.1
580.992,972.6
581.126,974.6
581.26,976.3
581.393,978.5
581.527,978.4
581.661,978.9
581.795,980.8
581.929,985.0
582.063,983.3
582.196,986.7
582.33,989.0
582.464,989.0
582.598,989.2
582.731,996.5
582.865,999.2
582.999,998.2
583.133,999.1
583.267,999.6
583.4,998.8
583.534,999.6
583.668,1002.6
583.801,1004.9
583.935,1006.8
584.069,1007.1
584.203,1008.5
584.336,1011.1
584.47,1010.6
584.604,1011.6
584.737,1016.3
584.871,1011.7
585.005,1017.7
585.138,1014.1
585.272,1013.7
585.406,1016.3
585.539,1023.2
585.673,1019.5
585.807,1020.4
585.94,1020.8
586.074,1020.7
586.208,1027.6
586.341,1022.8
586.475,1022.7
586.608,1031.7
586.742,1027.0
586.876,1025.6
587.009,1031.0
587.143,1029.4
587.276,1029.9
587.41,1033.7
587.543,1033.7
587.677,1031.7
587.811,1036.7
587.944,1030.9
588.078,1035.8
588.211,1032.3
588.345,1037.4
588.478,1036.0
588.612,1035.1
588.745,1039.4
588.879,1033.2
589.012,1042.9
589.146,1046.9
589.279,1045.0
589.413,1046.2
589.546,1046.6
589.68,1046.0
589.813,1044.7
589.947,1049.0
590.08,1051.1
590.214,1052.7
590.347,1055.1
590.48,1046.2
590.614,1052.6
590.747,1052.6
590.881,1057.0
591.014,1056.0
591.148,1060.7
591.281,1053.6
591.414,1057.6
591.548,1064.1
591.681,1064.1
591.815,1072.0
591.948,1060.9
592.081,1067.5
592.215,1064.5
592.348,1063.5
592.481,1062.1
592.615,1063.7
592.748,1069.4
592.881,1071.2
593.015,1063.8
593.148,1066.5
593.281,1069.7
593.415,1061.3
593.548,1059.9
593.681,1072.2
593.815,1069.9
593.948,1061.4
594.081,1066.2
594.215,1071.0
594.348,1068.0
594.481,1069.7
594.614,1069.6
594.748,1064.0
594.881,1069.4
595.014,1072.0
595.147,1065.6
595.281,1075.8
595.414,1066.9
595.547,1072.7
595.68,1075.0
595.814,1068.5
595.947,1069.3
596.08,1069.5
596.213,1069.2
596.347,1067.9
596.48,1068.9
596.613,1070.9
596.746,1073.3
596.879,1071.0
597.012,1076.4
597.146,1076.9
597.279,1072.2
597.412,1083.8
597.545,1072.6
597.678,1070.2
597.811,1067.5
597.945,1075.1
598.078,1073.7
598.211,1076.7
598.344,1071.0
598.477,1077.3
598.61,1082.4
598.743,1079.3
598.876,1076.8
599.009,1083.6
599.143,1076.9
599.276,1077.1
599.409,1078.8
599.542,1081.1
599.675,1084.8
599.808,1081.2
599.941,1087.0
600.074,1079.3
600.207,1080.4
600.34,1077.4
600.473,1070.9
600.606,1078.1
600.739,1076.5
600.872,1071.8
601.005,1075.1
601.138,1074.1
601.271,1075.6
601.404,1072.8
601.537,1071.4
601.67,1071.4
601.803,1067.7
601.936,1077.7
602.069,1085.5
602.202,1072.1
602.335,1073.1
602.468,1076.3
602.601,1063.9
602.734,1069.9
602.867,1067.6
603.0,1064.0
603.133,1065.8
603.266,1063.3
603.399,1063.7
603.532,1065.5
603.665,1062.9
603.798,1067.5
603.931,1062.0
604.064,1055.7
604.196,1057.0
604.329,1057.3
604.462,1057.7
604.595,1054.0
604.728,1056.3
604.861,1047.3
604.994,1046.9
605.127,1047.9
605.259,1039.6
605.392,1046.1
605.525,1042.2
605.658,1039.4
605.791,1040.5
605.924,1034.9
606.057,1029.4
606.189,1027.3
606.322,1029.7
606.455,1022.5
606.588,1027.8
606.721,1026.2
606.853,1026.7
606.986,1025.3
607.119,1027.3
607.252,1018.5
607.385,1019.2
607.517,1021.8
607.65,1017.1
607.783,1020.6
607.916,1016.2
608.049,1017.9
608.181,1017.8
608.314,1011.5
608.447,1016.7
608.58,1011.1
608.712,1014.3
608.845,1013.5
608.978,1013.0
609.111,1011.2
609.243,1006.2
609.376,1009.6
609.509,1007.7
609.641,1007.9
609.774,1003.9
609.907,1007.5
610.039,1009.3
610.172,1000.8
610.305,1001.9
610.438,1001.2
610.57,1002.7
610.703,1000.7
610.836,1000.8
610.968,996.5
611.101,1000.0
611.234,1000.0
611.366,999.2
611.499,997.1
611.631,992.3
611.764,991.8
611.897,993.2
612.029,988.1
612.162,989.0
612.295,993.2
612.427,993.1
612.56,989.5
612.692,991.3
612.825,989.1
612.958,990.3
613.09,987.7
613.223,988.3
613.355,986.9
613.488,991.7
613.621,985.1
613.753,982.2
613.886,984.2
614.018,979.5
614.151,982.1
614.283,982.9
614.416,984.1
614.548,981.3
614.681,980.4
614.814,985.6
614.946,976.3
615.079,976.6
615.211,974.7
615.344,978.8
615.476,967.6
615.609,972.9
615.741,974.6
615.874,973.2
616.006,974.5
616.139,969.3
616.271,968.4
616.404,971.3
616.536,973.7
616.669,972.9
616.801,970.2
616.933,976.3
617.066,973.9
617.198,972.6
617.331,973.6
617.463,965.4
617.596,976.2
617.728,969.2
617.861,973.0
617.993,971.6
618.125,969.9
618.258,972.3
618.39,966.5
618.523,970.7
618.655,963.2
618.788,971.6
618.92,966.5
619.052,966.7
619.185,966.9
619.317,967.1
619.45,971.5
619.582,967.9
619.714,970.9
619.847,966.4
619.979,968.4
620.111,963.4
620.244,969.1
620.376,961.3
620.509,965.9
620.641,963.0
620.773,968.2
620.906,968.6
621.038,966.0
621.17,969.0
621.303,969.2
621.435,965.3
621.567,976.3
621.7,975.7
621.832,982.6
621.964,982.6
622.096,996.2
622.229,1001.4
622.361,998.5
622.493,991.1
622.626,987.0
622.758,979.2
622.89,974.7
623.022,972.3
623.155,968.0
623.287,962.2
623.419,960.4
623.552,963.9
623.684,963.7
623.816,961.4
623.948,959.4
624.081,962.3
624.213,963.2
624.345,960.0
624.477,961.6
624.61,960.2
624.742,961.8
624.874,959.1
625.006,962.6
625.138,961.2
625.271,961.1
625.403,963.5
625.535,963.8
625.667,963.9
625.799,964.6
625.932,969.6
626.064,973.0
626.196,985.3
626.328,987.0
626.46,1009.4
626.593,1031.8
626.725,1083.3
626.857,1177.0
626.989,1313.2
627.121,1474.9
627.253,1573.1
627.386,1539.1
627.518,1444.9
627.65,1369.6
627.782,1315.5
627.914,1279.3
628.046,1257.8
628.178,1258.9
628.311,1314.0
628.443,1461.5
628.575,1707.8
628.707,1676.7
628.839,1478.9
628.971,1378.9
629.103,1331.9
629.235,1314.5
629.367,1296.5
629.5,1268.7
629.632,1223.5
629.764,1206.3
629.896,1172.4
630.028,1170.0
630.16,1167.7
630.292,1159.4
630.424,1154.1
630.556,1146.7
630.688,1123.2
630.82,1104.5
630.952,1075.8
631.084,1040.7
631.216,1011.3
631.349,1000.4
631.481,984.7
631.613,982.9
631.745,980.5
631.877,972.4
632.009,971.5
632.141,964.2
632.273,964.3
632.405,962.8
632.537,961.0
632.669,964.5
632.801,961.8
632.933,960.9
633.065,958.6
633.197,959.3
633.329,960.5
633.461,958.0
633.593,956.3
633.725,954.8
633.857,952.6
633.989,955.4
634.121,956.9
634.253,952.2
634.385,957.3
634.517,951.4
634.649,949.2
634.781,947.1
634.912,957.5
635.044,950.8
635.176,950.8
635.308,953.5
635.44,948.3
635.572,949.8
635.704,950.4
635.836,950.3
635.968,952.3
636.1,951.0
636.232,947.3
636.364,948.5
636.496,947.2
636.628,950.5
636.76,951.4
636.891,951.4
637.023,949.5
637.155,944.8
637.287,947.8
637.419,943.9
637.551,947.2
637.683,944.2
637.815,944.0
637.947,944.6
638.078,946.5
638.21,942.2
638.342,946.2
638.474,949.8
638.606,943.0
638.738,944.7
638.87,943.4
639.002,943.8
639.133,947.8
639.265,943.1
639.397,944.8
639.529,944.6
639.661,942.3
639.793,948.2
639.924,943.3
640.056,942.5
640.188,943.9
640.32,945.5
640.452,945.2
640.584,945.1
640.715,944.8
640.847,939.5
640.979,942.6
641.111,940.7
641.243,943.2
641.374,939.7
641.506,945.8
641.638,941.2
641.77,945.9
641.902,938.7
642.033,942.5
642.165,942.7
642.297,945.7
642.429,939.9
642.561,944.1
642.692,944.5
642.824,942.6
642.956,941.5
643.088,945.0
643.219,941.0
643.351,942.0
643.483,945.7
643.615,941.7
643.746,940.7
643.878,936.3
644.01,944.1
644.142,939.8
644.273,936.7
644.405,942.2
644.537,943.9
644.669,938.1
644.8,941.1
644.932,940.1
645.064,941.4
645.195,939.3
645.327,937.0
645.459,940.4
645.591,938.8
645.722,937.7
645.854,937.4
645.986,935.6
646.117,940.5
646.249,939.9
646.381,942.5
646.512,940.2
646.644,939.4
646.776,938.1
646.908,941.1
647.039,934.5
647.171,940.4
647.303,940.4
647.434,939.6
647.566,940.7
647.698,936.6
647.829,938.3
647.961,935.9
648.093,939.8
648.224,934.6
648.356,936.5
648.488,937.9
648.619,941.1
648.751,938.1
648.883,936.0
649.014,937.5
649.146,934.7
649.277,933.4
649.409,934.2
649.541,935.3
649.672,933.7
649.804,933.8
649.936,938.0
650.067,934.2
650.199,933.9
650.33,933.6
650.462,931.9
650.594,934.4
650.725,928.4
650.857,931.0
650.988,926.1
651.12,934.6
651.252,931.4
651.383,930.7
651.515,929.1
651.646,933.4
651.778,932.3
651.91,930.1
652.041,928.1
652.173,929.5
652.304,933.6
652.436,933.4
652.568,931.8
652.699,929.0
652.831,932.7
652.962,931.3
653.094,931.4
653.225,928.1
653.357,930.0
653.489,927.9
653.62,930.5
653.752,931.2
653.883,928.4
654.015,926.1
654.146,928.0
654.278,930.3
654.409,928.5
654.541,929.7
654.672,927.2
654.804,928.9
654.935,926.2
655.067,930.5
655.199,923.7
655.33,928.5
655.462,930.8
655.593,926.4
655.725,924.2
655.856,922.4
655.988,921.9
656.119,926.0
656.251,925.3
656.382,923.5
656.514,923.4
656.645,923.1
656.777,921.5
656.908,922.4
657.04,925.3
657.171,923.8
657.303,922.3
657.434,921.0
657.566,921.9
657.697,918.8
657.829,925.2
657.96,924.1
658.092,923.4
658.223,919.8
658.355,920.8
658.486,918.5
658.617,921.9
658.749,920.6
658.88,920.7
659.012,919.7
659.143,919.4
659.275,919.5
659.406,915.4
659.538,914.5
659.669,916.3
659.801,918.4
659.932,916.0
660.064,919.6
660.195,916.9
660.326,915.8
660.458,915.9
660.589,911.6
660.721,916.6
660.852,912.7
660.984,912.6
661.115,914.1
661.246,911.4
661.378,908.3
661.509,909.8
661.641,909.2
661.772,911.5
661.904,907.3
662.035,908.1
662.166,908.0
662.298,906.9
662.429,906.4
662.561,902.4
662.692,905.5
662.823,907.7
662.955,901.3
663.086,904.1