File: spectra/VLFR_01-LDPE_bio_Raman_a3ffbb36.csv
nm,Intensity
528.65,1837.9
528.819,1839.72
528.987,1837.72
529.155,1837.43
529.324,1837.9
529.492,1838.78
529.66,1838.4
529.829,1837.72
529.997,1838.32
530.165,1837.63
530.334,1837.65
530.502,1838.47
530.67,1839.15
530.839,1838.43
531.007,1838.38
531.175,1839.13
531.344,1839.25
531.512,1840.82
531.68,1850.53
531.848,2004.15
532.017,2556.45
532.185,2195.4
532.353,1859.3
532.521,1838.65
532.69,1839.38
532.858,1838.15
533.026,1838.93
533.194,1839.78
533.363,1840.15
533.531,1852.35
533.699,1919.47
533.867,2008.4
534.036,2039.47
534.204,2038.13
534.372,2025.57
534.54,2011.47
534.708,2006.8
534.877,1993.78
535.045,1986.9
535.213,1975.72
535.381,1978.78
535.549,1972.32
535.717,1965.13
535.886,1955.65
536.054,1947.88
536.222,1945.85
536.39,1941.85
536.558,1946.43
536.726,1935.7
536.894,1937.07
537.062,1932.3
537.231,1937.68
537.399,1936.13
537.567,1935.45
537.735,1937.45
537.903,1936.9
538.071,1930.68
538.239,1931.8
538.407,1928.35
538.575,1925.28
538.743,1925.4
538.911,1916.22
539.079,1918.35
539.247,1916.43
539.415,1915.15
539.583,1915.13
539.751,1917.03
539.919,1918.9
540.087,1913.3
540.255,1910.68
540.423,1914.78
540.591,1911.18
540.759,1908.9
540.927,1911.68
541.095,1909.13
541.263,1908.8
541.431,1907.95
541.599,1910.57
541.767,1908.57
541.935,1906.97
542.103,1909.88
542.271,1910.93
542.439,1909.82
542.607,1907.95
542.775,1908.25
542.943,1910.13
543.111,1907.38
543.279,1905.68
543.446,1907.8
543.614,1908.07
543.782,1909.22
543.95,1909.28
544.118,1910.47
544.286,1907.82
544.454,1904.55
544.622,1902.22
544.789,1909.47
544.957,1908.07
545.125,1904.25
545.293,1904.65
545.461,1906.78
545.629,1905.45
545.796,1906.07
545.964,1904.18
546.132,1904.05
546.3,1908.43
546.468,1902.68
546.635,1906.05
546.803,1906.95
546.971,1907.2
547.139,1905.15
547.306,1907.25
547.474,1903.05
547.642,1903.63
547.81,1904.75
547.977,1904.4
548.145,1902.72
548.313,1903.68
548.481,1903.75
548.648,1903.6
548.816,1901.43
548.984,1902.0
549.151,1904.65
549.319,1901.5
549.487,1901.68
549.655,1899.88
549.822,1904.3
549.99,1901.88
550.158,1898.2
550.325,1901.97
550.493,1902.88
550.66,1899.18
550.828,1903.53
550.996,1901.45
551.163,1897.72
551.331,1903.45
551.499,1904.57
551.666,1902.97
551.834,1904.1
552.001,1906.72
552.169,1907.45
552.337,1901.1
552.504,1903.6
552.672,1903.75
552.839,1902.68
553.007,1906.82
553.174,1912.03
553.342,1916.5
553.509,1918.32
553.677,1918.82
553.844,1915.88
554.012,1918.5
554.179,1915.97
554.347,1918.43
554.514,1920.3
554.682,1919.25
554.849,1922.03
555.017,1928.05
555.184,1925.32
555.352,1923.15
555.519,1925.68
555.687,1926.72
555.854,1930.93
556.022,1931.38
556.189,1931.15
556.357,1936.0
556.524,1935.05
556.691,1940.9
556.859,1939.85
557.026,1945.32
557.194,1948.57
557.361,1951.32
557.528,1951.53
557.696,1957.22
557.863,1963.72
558.031,1962.57
558.198,1966.55
558.365,1968.55
558.533,1970.97
558.7,1969.45
558.867,1957.53
559.035,1955.32
559.202,1951.85
559.369,1949.5
559.537,1943.07
559.704,1945.18
559.871,1939.7
560.038,1944.15
560.206,1942.35
560.373,1943.1
560.54,1945.78
560.708,1944.25
560.875,1944.22
561.042,1945.93
561.209,1950.1
561.377,1948.88
561.544,1946.32
561.711,1949.53
561.878,1953.28
562.045,1953.05
562.213,1960.2
562.38,1962.75
562.547,1969.5
562.714,1970.57
562.881,1974.28
563.049,1983.88
563.216,1986.63
563.383,1995.95
563.55,2018.78
563.717,2084.73
563.884,2240.73
564.052,2301.8
564.219,2162.35
564.386,2074.4
564.553,2063.1
564.72,2059.1
564.887,2044.13
565.054,2037.7
565.221,2029.38
565.388,2031.13
565.556,2045.72
565.723,2101.8
565.89,2234.88
566.057,2444.05
566.224,2415.25
566.391,2197.25
566.558,2075.5
566.725,2030.4
566.892,2012.22
567.059,2002.75
567.226,2007.72
567.393,2003.7
567.56,2002.35
567.727,1992.25
567.894,1989.65
568.061,1987.68
568.228,1990.82
568.395,1990.8
568.562,1993.78
568.729,1996.15
568.896,1994.07
569.063,1999.53
569.23,1999.88
569.396,2004.0
569.563,2005.57
569.73,2007.6
569.897,2010.63
570.064,2016.95
570.231,2026.75
570.398,2030.07
570.565,2048.32
570.732,2064.63
570.898,2067.65
571.065,2101.2
571.232,2228.57
571.399,2569.98
571.566,2738.9
571.733,2368.55
571.9,2200.4
572.066,2158.15
572.233,2128.18
572.4,2094.6
572.567,2081.13
572.734,2068.98
572.9,2064.45
573.067,2061.77
573.234,2070.07
573.401,2072.7
573.567,2073.25
573.734,2095.1
573.901,2116.82
574.068,2110.88
574.234,2087.63
574.401,2074.32
574.568,2077.77
574.734,2083.1
574.901,2096.1
575.068,2112.85
575.235,2151.63
575.401,2270.1
575.568,2374.6
575.735,2371.55
575.901,2398.63
576.068,2509.05
576.235,2611.35
576.401,2590.4
576.568,2517.38
576.734,2482.18
576.901,2498.88
577.068,2464.45
577.234,2380.43
577.401,2314.7
577.567,2277.02
577.734,2247.75
577.901,2236.65
578.067,2238.77
578.234,2254.05
578.4,2247.68
578.567,2255.0
578.733,2256.0
578.9,2274.25
579.066,2295.0
579.233,2287.02
579.399,2302.52
579.566,2301.48
579.732,2325.45
579.899,2340.93
580.065,2346.75
580.232,2366.35
580.398,2374.4
580.565,2389.35
580.731,2401.15
580.898,2402.0
581.064,2428.93
581.231,2453.5
581.397,2434.98
581.563,2445.45
581.73,2464.1
581.896,2472.0
582.063,2488.52
582.229,2499.1
582.395,2501.68
582.562,2530.68
582.728,2535.88
582.895,2551.05
583.061,2535.88
583.227,2582.02
583.394,2594.0
583.56,2587.35
583.726,2608.38
583.893,2622.55
584.059,2632.88
584.225,2646.25
584.391,2659.32
584.558,2654.27
584.724,2696.23
584.89,2675.4
585.057,2706.25
585.223,2710.77
585.389,2711.52
585.555,2730.15
585.722,2737.9
585.888,2748.48
586.054,2777.98
586.22,2797.1
586.386,2782.57
586.553,2825.68
586.719,2844.82
586.885,2843.02
587.051,2871.85
587.217,2875.35
587.384,2895.57
587.55,2912.15
587.716,2950.82
587.882,2955.73
588.048,2971.1
588.214,2979.6
588.38,2990.73
588.546,3013.8
588.713,3023.9
588.879,3034.88
589.045,3028.1
589.211,3045.73
589.377,3078.52
589.543,3092.43
589.709,3072.32
589.875,3095.3
590.041,3135.73
590.207,3139.88
590.373,3142.43
590.539,3174.7
590.705,3166.2
590.871,3206.0
591.037,3190.8
591.203,3213.02
591.369,3251.3
591.535,3230.45
591.701,3268.73
591.867,3271.93
592.033,3230.88
592.199,3267.32
592.365,3295.65
592.531,3320.57
592.697,3373.3
592.863,3310.27
593.029,3279.25
593.195,3348.43
593.361,3333.63
593.526,3312.5
593.692,3355.27
593.858,3346.93
594.024,3368.23
594.19,3354.32
594.356,3347.3
594.522,3384.18
594.687,3377.95
594.853,3403.57
595.019,3389.8
595.185,3422.57
595.351,3427.07
595.516,3428.57
595.682,3460.23
595.848,3494.8
596.014,3469.55
596.18,3503.75
596.345,3507.63
596.511,3541.85
596.677,3490.52
596.843,3510.98
597.008,3565.18
597.174,3544.88
597.34,3588.93
597.505,3553.68
597.671,3588.5
597.837,3576.32
598.002,3613.55
598.168,3637.1
598.334,3603.15
598.499,3664.68
598.665,3615.13
598.831,3652.15
598.996,3641.63
599.162,3672.85
599.328,3710.07
599.493,3670.82
599.659,3684.5
599.824,3710.05
599.99,3692.6
600.156,3675.05
600.321,3711.52
600.487,3664.07
600.652,3682.2
600.818,3667.0
600.983,3688.0
601.149,3655.05
601.314,3685.43
601.48,3689.1
601.645,3671.73
601.811,3627.13
601.976,3617.6
602.142,3644.6
602.307,3614.32
602.473,3602.05
602.638,3591.6
602.804,3586.02
602.969,3565.05
603.135,3547.05
603.3,3540.73
603.466,3537.1
603.631,3497.98
603.796,3471.63
603.962,3488.57
604.127,3421.68
604.293,3436.48
604.458,3382.93
604.623,3379.73
604.789,3378.68
604.954,3338.63
605.119,3336.05
605.285,3310.63
605.45,3310.55
605.615,3297.23
605.781,3273.15
605.946,3245.6
606.111,3244.77
606.277,3191.98
606.442,3171.57
606.607,3192.73
606.772,3190.0
606.938,3157.98
607.103,3148.07
607.268,3094.38
607.433,3090.43
607.599,3069.02
607.764,3080.57
607.929,3072.85
608.094,3047.07
608.259,3042.82
608.425,2976.63
608.59,3006.43
608.755,3015.98
608.92,3001.1
609.085,2962.6
609.25,2974.15
609.415,2959.93
609.581,2938.52
609.746,2916.1
609.911,2911.02
610.076,2934.9
610.241,2902.27
610.406,2896.4
610.571,2927.38
610.736,2880.82
610.901,2886.75
611.066,2879.27
611.231,2890.7
611.396,2866.35
611.561,2849.43
611.727,2832.88
611.892,2830.75
612.057,2821.48
612.222,2799.23
612.386,2802.15
612.551,2806.05
612.716,2771.25
612.881,2758.48
613.046,2778.2
613.211,2756.9
613.376,2739.18
613.541,2744.95
613.706,2752.45
613.871,2739.85
614.036,2740.52
614.201,2718.1
614.366,2718.8
614.531,2704.48
614.695,2695.63
614.86,2687.35
615.025,2696.55
615.19,2675.63
615.355,2681.6
615.52,2691.93
615.684,2653.15
615.849,2679.1
616.014,2672.5
616.179,2647.43
616.344,2659.02
616.508,2628.73
616.673,2634.4
616.838,2640.98
617.003,2648.43
617.168,2639.02
617.332,2654.7
617.497,2645.27
617.662,2614.88
617.826,2623.4
617.991,2614.2
618.156,2614.5
618.32,2606.35
618.485,2587.65
618.65,2597.57
618.814,2598.6
618.979,2586.1
619.144,2590.6
619.308,2585.85
619.473,2606.32
619.638,2585.3
619.802,2586.4
619.967,2598.55
620.131,2569.23
620.296,2600.43
620.461,2573.55
620.625,2600.43
620.79,2581.55
620.954,2576.18
621.119,2594.82
621.283,2604.5
621.448,2592.82
621.612,2631.18
621.777,2658.73
621.941,2670.77
622.106,2706.85
622.27,2701.32
622.435,2670.2
622.599,2644.05
622.764,2621.4
622.928,2596.7
623.093,2568.7
623.257,2569.82
623.422,2551.93
623.586,2539.8
623.75,2535.73
623.915,2521.43
624.079,2549.1
624.244,2524.9
624.408,2541.57
624.572,2546.52
624.737,2534.3
624.901,2536.18
625.065,2533.5
625.23,2551.77
625.394,2558.52
625.558,2554.27
625.723,2566.02
625.887,2590.32
626.051,2596.98
626.215,2661.32
626.38,2741.1
626.544,2913.82
626.708,3332.57
626.872,4014.98
627.037,4563.35
627.201,4873.02
627.365,4705.25
627.529,4382.83
627.693,4146.1
627.858,3975.48
628.022,3950.32
628.186,4106.1
628.35,4358.13
628.514,4512.0
628.678,4395.83
628.843,4210.8
629.007,4072.9
629.171,4024.07
629.335,3955.85
629.499,3833.7
629.663,3657.27
629.827,3535.52
629.991,3501.85
630.155,3490.35
630.319,3487.9
630.483,3410.52
630.647,3307.13
630.812,3190.5
630.976,3023.45
631.14,2849.68
631.304,2778.93
631.468,2759.4
631.632,2724.85
631.796,2658.07
631.959,2668.18
632.123,2659.0
632.287,2621.65
632.451,2598.88
632.615,2618.68
632.779,2588.2
632.943,2588.15
633.107,2571.2
633.271,2605.93
633.435,2592.52
633.599,2595.65
633.763,2590.82
633.926,2558.5
634.09,2605.63
634.254,2597.85
634.418,2584.88
634.582,2589.48
634.746,2571.93
634.909,2570.68
635.073,2583.48
635.237,2583.1
635.401,2580.18
635.564,2577.77
635.728,2583.57
635.892,2578.8
636.056,2577.7
636.219,2598.75
636.383,2599.1
636.547,2585.9
636.711,2575.1
636.874,2578.6
637.038,2601.02
637.202,2603.05
637.365,2576.45
637.529,2588.45
637.693,2585.25
637.856,2594.27
638.02,2628.32
638.184,2599.4
638.347,2606.27
638.511,2608.88
638.674,2586.4
638.838,2612.63
639.002,2610.13
639.165,2592.73
639.329,2590.25
639.492,2597.4
639.656,2606.93
639.819,2626.27
639.983,2603.55
640.146,2601.25
640.31,2617.32
640.473,2596.68
640.637,2593.15
640.8,2625.3
640.964,2611.27
641.127,2620.98
641.291,2624.93
641.454,2599.63
641.618,2622.23
641.781,2616.9
641.944,2622.38
642.108,2609.52
642.271,2623.43
642.435,2626.68
642.598,2627.88
642.761,2611.13
642.925,2639.43
643.088,2620.52
643.251,2615.65
643.415,2634.27
643.578,2634.5
643.741,2643.48
643.905,2656.25
644.068,2647.23
644.231,2626.13
644.394,2637.27
644.558,2647.85
644.721,2626.3
644.884,2623.32
645.047,2626.1
645.211,2639.0
645.374,2653.98
645.537,2626.65
645.7,2613.25
645.863,2601.7
646.027,2622.38
646.19,2616.3
646.353,2625.0
646.516,2623.73
646.679,2625.43
646.842,2607.85
647.005,2608.98
647.169,2595.88
647.332,2604.85
647.495,2611.0
647.658,2601.23
647.821,2593.9
647.984,2601.88
648.147,2604.7
648.31,2576.3
648.473,2571.38
648.636,2610.35
648.799,2582.38
648.962,2582.48
649.125,2562.3
649.288,2557.43
649.451,2585.1
649.614,2596.0
649.777,2565.75
649.94,2557.43
650.103,2550.6
650.266,2553.9
650.429,2583.9
650.592,2573.45
650.755,2574.73
650.918,2565.77
651.08,2553.95
651.243,2568.48
651.406,2556.45
651.569,2540.3
651.732,2532.2
651.895,2538.0
652.058,2560.52
652.22,2544.85
652.383,2539.18
652.546,2521.0
652.709,2525.68
652.872,2546.35
653.034,2524.52
653.197,2539.13
653.36,2533.0
653.523,2515.82
653.685,2510.43
653.848,2483.25
654.011,2505.98
654.173,2486.0
654.336,2476.5
654.499,2500.93
654.662,2488.02
654.824,2470.2
654.987,2497.63
655.149,2480.77
655.312,2494.25
655.475,2473.45
655.637,2469.48
655.8,2467.93
655.963,2458.77
656.125,2459.15
656.288,2443.32
656.45,2446.93
656.613,2427.4
656.775,2433.2
656.938,2420.77
657.1,2434.98
657.263,2431.93
657.425,2409.18
657.588,2405.65
657.75,2393.13
657.913,2405.63
658.075,2412.9
658.238,2367.6
658.4,2366.95
658.563,2355.7
658.725,2352.93
658.888,2370.18
659.05,2333.43
659.212,2358.82
659.375,2316.52
659.537,2311.65
659.7,2322.6
659.862,2326.5
660.024,2329.27
660.187,2296.13
660.349,2288.93
660.511,2298.63
660.674,2299.3
660.836,2277.9
660.998,2271.6
661.079,2270.25