File: spectra/VLFR_08-PLA_nobio_Raman_f70e02df.csv
nm,Intensity
526.547,831.9
526.683,833.2
526.82,831.8
526.957,833.5
527.094,833.3
527.23,833.0
527.367,833.4
527.504,834.0
527.641,831.7
527.777,833.4
527.914,833.3
528.051,833.6
528.188,832.7
528.324,833.1
528.461,832.5
528.598,833.2
528.734,832.4
528.871,832.3
529.008,833.3
529.144,832.1
529.281,832.0
529.417,833.0
529.554,833.7
529.691,832.7
529.827,833.9
529.964,832.8
530.1,833.2
530.237,832.7
530.373,832.8
530.51,833.3
530.647,834.6
530.783,832.4
530.92,833.2
531.056,833.2
531.193,832.1
531.329,832.5
531.466,833.3
531.602,832.7
531.738,833.7
531.875,833.3
532.011,839.4
532.148,869.3
532.284,859.4
532.421,836.4
532.557,832.2
532.693,831.5
532.83,831.7
532.966,833.7
533.103,830.9
533.239,831.9
533.375,832.6
533.512,832.8
533.648,837.4
533.784,864.8
533.921,965.7
534.057,1088.1
534.193,1117.8
534.33,1107.9
534.466,1090.3
534.602,1078.3
534.738,1072.3
534.875,1055.0
535.011,1041.1
535.147,1031.6
535.283,1028.3
535.42,1018.4
535.556,1017.6
535.692,1015.9
535.828,1005.0
535.964,1002.6
536.101,998.2
536.237,997.6
536.373,998.5
536.509,1005.6
536.645,1003.4
536.781,1008.4
536.917,1004.0
537.054,992.0
537.19,990.5
537.326,986.5
537.462,993.4
537.598,992.6
537.734,992.4
537.87,986.0
538.006,990.2
538.142,993.9
538.278,982.3
538.414,977.1
538.55,978.5
538.686,977.4
538.822,976.0
538.958,975.0
539.094,978.1
539.23,978.2
539.366,975.0
539.502,974.8
539.638,970.8
539.774,968.2
539.91,968.0
540.046,967.9
540.182,961.0
540.318,975.6
540.454,977.5
540.59,983.8
540.726,988.5
540.862,991.9
540.997,989.0
541.133,991.0
541.269,994.5
541.405,985.8
541.541,986.1
541.677,983.0
541.812,983.2
541.948,982.4
542.084,976.9
542.22,975.4
542.356,979.6
542.492,974.8
542.627,975.7
542.763,981.7
542.899,986.7
543.035,987.5
543.17,986.1
543.306,1001.1
543.442,1010.4
543.578,1018.7
543.713,1024.4
543.849,1018.6
543.985,1015.8
544.12,1018.3
544.256,1008.2
544.392,999.0
544.527,988.8
544.663,986.8
544.799,979.3
544.934,986.7
545.07,982.6
545.206,978.3
545.341,972.4
545.477,979.4
545.612,977.3
545.748,979.8
545.884,980.3
546.019,985.9
546.155,977.6
546.29,982.5
546.426,981.4
546.562,983.2
546.697,981.5
546.833,983.8
546.968,986.0
547.104,985.5
547.239,987.5
547.375,983.3
547.51,984.1
547.646,978.6
547.781,982.3
547.917,980.3
548.052,985.6
548.188,992.9
548.323,983.7
548.458,991.2
548.594,990.3
548.729,984.4
548.865,985.4
549.0,988.4
549.136,987.3
549.271,987.5
549.406,988.9
549.542,994.0
549.677,991.7
549.812,993.8
549.948,990.8
550.083,991.8
550.219,991.3
550.354,990.1
550.489,995.1
550.625,993.6
550.76,999.0
550.895,994.8
551.03,999.7
551.166,997.1
551.301,1002.4
551.436,996.7
551.572,1001.0
551.707,1001.4
551.842,1007.5
551.977,1008.7
552.113,1008.7
552.248,1007.8
552.383,1004.4
552.518,1009.0
552.654,1008.1
552.789,1011.8
552.924,1001.5
553.059,1003.3
553.194,1008.3
553.329,1006.0
553.465,998.8
553.6,1004.3
553.735,1008.7
553.87,1008.2
554.005,1023.0
554.14,1016.8
554.276,1017.2
554.411,1010.6
554.546,1013.8
554.681,1012.7
554.816,1008.1
554.951,1003.3
555.086,1004.0
555.221,1000.5
555.356,1004.0
555.491,998.0
555.626,1000.0
555.761,1001.8
555.896,1000.7
556.031,999.1
556.167,1000.2
556.302,1002.5
556.437,1001.1
556.572,1002.4
556.707,1000.8
556.842,1005.2
556.977,1009.3
557.112,1008.9
557.246,1012.8
557.381,1018.4
557.516,1027.7
557.651,1047.3
557.786,1078.2
557.921,1125.8
558.056,1179.9
558.191,1183.5
558.326,1128.7
558.461,1073.4
558.596,1044.5
558.731,1035.5
558.866,1029.9
559.0,1021.6
559.135,1022.4
559.27,1023.6
559.405,1024.3
559.54,1020.1
559.675,1017.3
559.81,1021.2
559.944,1014.7
560.079,1017.7
560.214,1011.8
560.349,1007.4
560.484,1013.1
560.618,1015.9
560.753,1014.2
560.888,1016.5
561.023,1008.4
561.158,1011.1
561.292,1008.6
561.427,1008.6
561.562,1005.8
561.697,1010.9
561.831,1008.7
561.966,1012.9
562.101,1010.0
562.235,1015.5
562.37,1014.8
562.505,1018.6
562.64,1016.3
562.774,1022.0
562.909,1024.0
563.044,1030.1
563.178,1047.9
563.313,1054.8
563.448,1065.0
563.582,1065.5
563.717,1057.2
563.852,1051.9
563.986,1039.4
564.121,1031.1
564.255,1028.2
564.39,1029.1
564.525,1033.0
564.659,1039.8
564.794,1040.4
564.928,1049.7
565.063,1060.5
565.198,1059.5
565.332,1056.9
565.467,1056.8
565.601,1052.5
565.736,1057.9
565.87,1069.3
566.005,1081.0
566.139,1090.2
566.274,1087.2
566.408,1077.2
566.543,1054.5
566.677,1046.0
566.812,1034.4
566.946,1029.8
567.081,1031.2
567.215,1027.9
567.35,1024.7
567.484,1023.3
567.619,1032.3
567.753,1034.3
567.887,1042.0
568.022,1041.2
568.156,1037.8
568.291,1036.6
568.425,1036.1
568.56,1038.5
568.694,1037.0
568.828,1036.6
568.963,1039.6
569.097,1043.3
569.231,1040.9
569.366,1042.9
569.5,1037.9
569.635,1033.8
569.769,1030.9
569.903,1035.8
570.038,1035.0
570.172,1033.3
570.306,1035.8
570.441,1034.4
570.575,1036.5
570.709,1037.0
570.843,1034.5
570.978,1038.9
571.112,1037.2
571.246,1046.6
571.381,1045.5
571.515,1061.9
571.649,1067.1
571.783,1070.1
571.918,1070.7
572.052,1059.7
572.186,1056.4
572.32,1054.5
572.455,1052.4
572.589,1054.0
572.723,1053.6
572.857,1053.0
572.991,1054.0
573.126,1059.1
573.26,1062.4
573.394,1059.7
573.528,1059.0
573.662,1058.7
573.796,1062.6
573.931,1059.9
574.065,1060.5
574.199,1054.8
574.333,1064.7
574.467,1069.1
574.601,1071.4
574.735,1064.1
574.869,1060.4
575.004,1049.0
575.138,1045.9
575.272,1042.7
575.406,1044.8
575.54,1044.8
575.674,1046.4
575.808,1047.8
575.942,1045.1
576.076,1056.2
576.21,1057.2
576.344,1070.7
576.478,1097.0
576.612,1123.2
576.746,1136.4
576.88,1140.9
577.014,1132.8
577.148,1119.0
577.282,1086.7
577.416,1072.8
577.55,1060.2
577.684,1053.5
577.818,1049.1
577.952,1055.3
578.086,1049.1
578.22,1049.7
578.354,1048.7
578.488,1054.0
578.622,1047.9
578.756,1048.3
578.89,1055.3
579.024,1053.1
579.158,1052.9
579.292,1051.2
579.426,1046.6
579.559,1050.0
579.693,1049.2
579.827,1047.1
579.961,1048.0
580.095,1051.1
580.229,1050.0
580.363,1047.3
580.497,1044.7
580.63,1053.0
580.764,1050.9
580.898,1051.9
581.032,1046.9
581.166,1045.1
581.3,1050.7
581.433,1046.7
581.567,1043.4
581.701,1049.5
581.835,1052.8
581.969,1056.3
582.102,1050.2
582.236,1051.9
582.37,1054.1
582.504,1047.0
582.637,1052.7
582.771,1052.9
582.905,1048.5
583.039,1052.0
583.172,1053.9
583.306,1056.7
583.44,1055.4
583.574,1050.7
583.707,1052.6
583.841,1049.9
583.975,1059.0
584.108,1057.5
584.242,1053.3
584.376,1053.9
584.51,1057.0
584.643,1058.9
584.777,1051.2
584.911,1057.5
585.044,1048.3
585.178,1054.9
585.312,1054.7
585.445,1053.6
585.579,1062.7
585.712,1053.7
585.846,1058.2
585.98,1059.3
586.113,1058.2
586.247,1060.6
586.381,1067.6
586.514,1076.8
586.648,1090.6
586.781,1096.3
586.915,1116.4
587.048,1113.5
587.182,1123.7
587.316,1131.2
587.449,1142.7
587.583,1150.2
587.716,1131.3
587.85,1111.7
587.983,1097.0
588.117,1088.5
588.25,1071.3
588.384,1068.6
588.517,1060.0
588.651,1055.3
588.784,1060.4
588.918,1062.6
589.051,1049.2
589.185,1055.8
589.318,1061.6
589.452,1050.4
589.585,1052.8
589.719,1050.7
589.852,1057.4
589.986,1056.7
590.119,1057.3
590.253,1057.1
590.386,1051.5
590.519,1055.7
590.653,1056.5
590.786,1054.6
590.92,1053.1
591.053,1054.9
591.187,1059.4
591.32,1057.5
591.453,1053.0
591.587,1056.6
591.72,1056.0
591.853,1055.3
591.987,1054.6
592.12,1056.5
592.254,1057.8
592.387,1051.1
592.52,1055.0
592.654,1050.3
592.787,1053.7
592.92,1056.2
593.054,1053.2
593.187,1049.2
593.32,1051.5
593.454,1049.4
593.587,1055.5
593.72,1052.3
593.853,1054.6
593.987,1049.3
594.12,1050.6
594.253,1052.7
594.387,1054.5
594.52,1052.2
594.653,1055.2
594.786,1052.0
594.92,1051.9
595.053,1051.5
595.186,1057.9
595.319,1053.2
595.453,1056.2
595.586,1049.0
595.719,1052.7
595.852,1052.7
595.985,1055.5
596.119,1050.5
596.252,1056.6
596.385,1049.3
596.518,1052.3
596.651,1054.4
596.785,1052.8
596.918,1054.4
597.051,1052.2
597.184,1054.6
597.317,1056.3
597.45,1055.1
597.584,1055.9
597.717,1055.1
597.85,1054.9
597.983,1058.9
598.116,1055.6
598.249,1055.9
598.382,1060.8
598.516,1058.2
598.649,1057.3
598.782,1062.2
598.915,1058.5
599.048,1053.9
599.181,1060.9
599.314,1062.0
599.447,1055.3
599.58,1047.6
599.713,1060.8
599.846,1053.2
599.979,1061.1
600.113,1060.2
600.246,1061.3
600.379,1051.1
600.512,1055.8
600.645,1059.9
600.778,1053.8
600.911,1051.1
601.044,1050.0
601.177,1051.9
601.31,1056.2
601.443,1052.8
601.576,1058.1
601.709,1053.5
601.842,1055.2
601.975,1049.7
602.108,1055.2
602.241,1054.2
602.374,1058.6
602.507,1049.7
602.64,1051.8
602.773,1058.9
602.905,1054.9
603.038,1051.2
603.171,1054.7
603.304,1049.5
603.437,1047.8
603.57,1049.0
603.703,1056.2
603.836,1054.0
603.969,1054.0
604.102,1053.2
604.235,1055.9
604.368,1050.4
604.501,1048.4
604.633,1046.0
604.766,1050.5
604.899,1048.4
605.032,1053.5
605.165,1044.0
605.298,1045.1
605.431,1042.6
605.563,1047.0
605.696,1039.8
605.829,1040.2
605.962,1047.4
606.095,1044.2
606.228,1041.4
606.36,1040.8
606.493,1037.7
606.626,1040.0
606.759,1038.6
606.892,1044.1
607.025,1039.5
607.157,1041.8
607.29,1045.7
607.423,1039.6
607.556,1044.4
607.688,1045.8
607.821,1045.8
607.954,1043.8
608.087,1045.0
608.219,1046.7
608.352,1045.0
608.485,1043.7
608.618,1046.7
608.75,1039.6
608.883,1042.4
609.016,1045.7
609.149,1043.3
609.281,1044.4
609.414,1037.5
609.547,1044.6
609.68,1041.3
609.812,1047.2
609.945,1048.2
610.078,1046.9
610.21,1045.9
610.343,1044.1
610.476,1040.6
610.608,1040.7
610.741,1043.8
610.874,1039.2
611.006,1044.6
611.139,1039.8
611.272,1044.2
611.404,1041.2
611.537,1039.5
611.67,1041.9
611.802,1044.7
611.935,1045.6
612.067,1037.4
612.2,1041.9
612.333,1044.4
612.465,1043.8
612.598,1043.4
612.731,1044.8
612.863,1045.7
612.996,1042.8
613.128,1042.6
613.261,1043.9
613.393,1044.0
613.526,1047.9
613.659,1048.7
613.791,1045.7
613.924,1044.2
614.056,1047.1
614.189,1047.0
614.321,1045.7
614.454,1043.1
614.586,1050.2
614.719,1041.7
614.852,1044.3
614.984,1047.1
615.117,1042.5
615.249,1048.6
615.382,1043.9
615.514,1041.7
615.647,1047.6
615.779,1043.4
615.912,1041.2
616.044,1043.3
616.177,1046.2
616.309,1046.0
616.442,1045.3
616.574,1040.5
616.707,1041.2
616.839,1042.1
616.971,1045.2
617.104,1044.3
617.236,1044.9
617.369,1046.1
617.501,1040.5
617.634,1050.4
617.766,1041.6
617.899,1046.5
618.031,1045.8
618.163,1044.5
618.296,1045.1
618.428,1050.0
618.561,1046.4
618.693,1041.7
618.826,1042.1
618.958,1040.5
619.09,1045.7
619.223,1040.1
619.355,1042.7
619.487,1041.5
619.62,1042.8
619.752,1040.3
619.885,1047.0
620.017,1040.5
620.149,1037.5
620.282,1037.7
620.414,1038.6
620.546,1036.9
620.679,1038.6
620.811,1045.7
620.943,1038.9
621.076,1040.4
621.208,1038.2
621.34,1035.3
621.473,1038.2
621.605,1038.5
621.737,1038.0
621.87,1044.1
622.002,1039.6
622.134,1041.1
622.267,1044.5
622.399,1044.0
622.531,1049.8
622.663,1049.4
622.796,1058.8
622.928,1059.3
623.06,1057.0
623.193,1056.0
623.325,1053.9
623.457,1052.5
623.589,1052.3
623.722,1052.6
623.854,1050.6
623.986,1044.8
624.118,1044.0
624.251,1046.1
624.383,1044.6
624.515,1038.1
624.647,1044.7
624.78,1043.9
624.912,1038.3
625.044,1042.9
625.176,1038.3
625.308,1037.6
625.441,1042.3
625.573,1042.0
625.705,1038.0
625.837,1037.4
625.969,1037.5
626.102,1041.0
626.234,1037.7
626.366,1046.9
626.498,1041.8
626.63,1033.3
626.762,1035.0
626.895,1043.0
627.027,1036.7
627.159,1041.4
627.291,1043.0
627.423,1049.5
627.555,1043.1
627.687,1037.9
627.82,1046.2
627.952,1051.4
628.084,1061.9
628.216,1087.0
628.348,1109.3
628.48,1137.9
628.612,1139.9
628.744,1126.4
628.877,1121.1
629.009,1107.5
629.141,1103.9
629.273,1111.4
629.405,1111.3
629.537,1109.9
629.669,1106.3
629.801,1116.4
629.933,1117.8
630.065,1118.3
630.197,1127.4
630.33,1141.3
630.462,1155.3
630.594,1198.9
630.726,1274.6
630.858,1409.6
630.99,1561.8
631.122,1675.2
631.254,1629.6
631.386,1536.6
631.518,1413.7
631.65,1326.7
631.782,1259.4
631.914,1229.6
632.046,1204.8
632.178,1189.2
632.31,1171.2
632.442,1166.9
632.574,1165.2
632.706,1168.6
632.838,1185.6
632.97,1220.6
633.102,1256.2
633.234,1288.0
633.366,1279.2
633.498,1267.1
633.63,1256.9
633.762,1227.3
633.894,1194.7
634.026,1159.0
634.158,1132.8
634.29,1102.5
634.422,1086.2
634.554,1064.1
634.686,1059.7
634.818,1052.6
634.95,1043.2
635.082,1041.6
635.214,1042.5
635.346,1035.3
635.477,1036.4
635.609,1033.3
635.741,1033.4
635.873,1032.9
636.005,1034.7
636.137,1032.2
636.269,1026.9
636.401,1027.9
636.533,1024.9
636.665,1027.1
636.797,1030.3
636.929,1024.8
637.06,1029.2
637.192,1016.8
637.324,1022.1
637.456,1021.2
637.588,1025.3
637.72,1024.4
637.852,1019.1
637.984,1021.7
638.115,1021.3
638.247,1018.2
638.379,1020.7
638.511,1019.3
638.643,1020.7
638.775,1014.5
638.907,1016.1
639.039,1019.6
639.17,1014.9
639.302,1020.0
639.434,1022.9
639.566,1013.7
639.698,1015.4
639.83,1015.7
639.961,1017.0
640.093,1015.3
640.225,1015.1
640.357,1020.6
640.489,1023.4
640.62,1013.7
640.752,1020.0
640.884,1016.7
641.016,1014.1
641.148,1015.5
641.279,1010.5
641.411,1013.2
641.543,1015.9
641.675,1016.0
641.807,1016.2
641.938,1021.7
642.07,1014.9
642.202,1022.4
642.334,1017.6
642.466,1013.4
642.597,1010.2
642.729,1009.1
642.861,1011.4
642.993,1010.3
643.124,1010.7
643.256,1009.2
643.388,1008.6
643.52,1011.0
643.651,1007.1
643.783,1007.5
643.915,1006.7
644.047,1007.1
644.178,1004.9
644.31,999.9
644.442,1003.8
644.574,1001.8
644.705,1007.5
644.837,1003.1
644.969,1004.6
645.1,996.6
645.232,1002.1
645.364,1003.4
645.496,1007.7
645.627,1001.5
645.759,1001.7
645.891,1000.5
646.022,999.9
646.154,998.4
646.286,999.5
646.417,999.2
646.549,1008.6
646.681,999.2
646.812,999.8
646.944,1001.6
647.076,995.5
647.207,998.2
647.339,999.7
647.471,997.1
647.602,1003.3
647.734,1002.7
647.866,998.4
647.997,1000.4
648.129,996.8
648.261,993.7
648.392,995.3
648.524,994.4
648.656,997.5
648.787,997.2
648.919,992.2
649.051,992.9
649.182,996.7
649.314,994.8
649.446,993.4
649.577,995.7
649.709,992.7
649.84,992.9
649.972,990.3
650.104,996.0
650.235,991.7
650.367,989.2
650.498,989.1
650.63,995.7
650.762,985.0
650.893,993.9
651.025,993.8
651.157,991.5
651.288,999.9
651.42,989.2
651.551,993.8
651.683,993.9
651.814,993.2
651.946,985.6
652.078,993.7
652.209,992.7
652.341,989.9
652.472,988.6
652.604,989.9
652.736,988.7
652.867,993.3
652.999,989.7
653.13,986.8
653.262,989.1
653.393,990.3
653.525,983.0
653.656,993.5
653.788,985.4
653.92,988.2
654.051,990.5
654.183,986.3
654.314,987.0
654.446,987.3
654.577,985.1
654.709,992.5
654.84,986.4
654.972,990.6
655.103,989.0
655.235,981.8
655.366,986.5
655.498,984.8
655.63,989.1
655.761,988.4
655.893,988.4
656.024,981.7
656.156,989.3
656.287,989.3
656.419,983.8
656.55,983.8
656.682,987.5
656.813,985.5
656.945,987.6
657.076,989.0
657.208,988.6
657.339,984.1
657.471,987.7
657.602,986.4
657.734,980.1
657.865,983.8
657.997,985.6
658.128,985.8
658.26,985.2
658.391,983.0
658.522,984.2
658.654,980.3
658.785,983.2
658.917,980.4
659.048,979.2
659.18,983.2
659.311,984.1
659.443,983.7
659.574,981.1
659.706,981.3
659.837,982.3
659.969,979.4
660.1,981.0
660.232,982.5
660.363,984.1
660.494,978.2
660.626,978.0
660.757,978.9
660.889,982.1
661.02,981.5
661.152,975.3
661.283,978.9
661.415,978.9
661.546,979.2
661.677,980.1
661.809,982.9
661.94,975.5
662.072,980.2
662.203,975.6
662.335,976.4
662.466,975.3
662.597,978.7
662.729,979.2
662.86,974.8
662.992,977.5
663.123,974.2