File: spectra/VLFR_01-LDPE_nobio_Raman_c6b1929c.csv
nm,Intensity
526.547,832.8
526.683,831.8
526.82,833.0
526.957,832.3
527.094,832.8
527.23,832.4
527.367,832.7
527.504,831.9
527.641,832.8
527.777,832.5
527.914,832.4
528.051,831.7
528.188,832.2
528.324,831.3
528.461,834.4
528.598,833.3
528.734,831.9
528.871,831.9
529.008,832.6
529.144,833.4
529.281,832.4
529.417,832.7
529.554,832.9
529.691,832.1
529.827,832.8
529.964,832.7
530.1,832.8
530.237,831.9
530.373,833.3
530.51,831.5
530.647,832.4
530.783,831.0
530.92,831.5
531.056,833.3
531.193,832.8
531.329,833.2
531.466,832.3
531.602,832.2
531.738,830.8
531.875,833.6
532.011,837.6
532.148,852.1
532.284,848.4
532.421,834.8
532.557,833.6
532.693,832.6
532.83,833.0
532.966,832.3
533.103,833.8
533.239,833.0
533.375,834.4
533.512,832.6
533.648,835.2
533.784,845.7
533.921,891.4
534.057,937.5
534.193,956.3
534.33,951.5
534.466,945.2
534.602,939.0
534.738,942.3
534.875,933.6
535.011,932.5
535.147,926.4
535.283,921.0
535.42,919.6
535.556,911.5
535.692,907.5
535.828,902.5
535.964,901.0
536.101,895.0
536.237,897.0
536.373,891.7
536.509,891.9
536.645,887.7
536.781,890.3
536.917,890.6
537.054,886.3
537.19,888.0
537.326,887.2
537.462,888.1
537.598,887.5
537.734,886.1
537.87,889.9
538.006,886.5
538.142,883.0
538.278,884.7
538.414,882.3
538.55,883.4
538.686,881.9
538.822,882.5
538.958,877.3
539.094,879.0
539.23,873.6
539.366,877.2
539.502,874.4
539.638,873.1
539.774,872.8
539.91,873.9
540.046,874.3
540.182,872.9
540.318,872.4
540.454,871.0
540.59,872.4
540.726,868.7
540.862,869.7
540.997,870.7
541.133,872.5
541.269,869.9
541.405,870.3
541.541,868.5
541.677,867.9
541.812,868.9
541.948,867.4
542.084,867.8
542.22,867.7
542.356,868.6
542.492,868.5
542.627,864.4
542.763,869.7
542.899,869.5
543.035,866.9
543.17,867.8
543.306,867.9
543.442,866.9
543.578,869.4
543.713,865.4
543.849,869.5
543.985,867.0
544.12,867.4
544.256,865.1
544.392,865.3
544.527,867.3
544.663,868.4
544.799,865.2
544.934,865.4
545.07,867.2
545.206,866.3
545.341,865.3
545.477,864.0
545.612,864.3
545.748,863.0
545.884,868.1
546.019,870.3
546.155,867.7
546.29,865.3
546.426,865.9
546.562,866.1
546.697,863.8
546.833,866.6
546.968,865.0
547.104,867.4
547.239,864.1
547.375,864.0
547.51,865.6
547.646,863.7
547.781,866.6
547.917,861.2
548.052,864.5
548.188,866.9
548.323,863.6
548.458,864.0
548.594,865.6
548.729,864.0
548.865,865.5
549.0,863.4
549.136,863.7
549.271,866.6
549.406,863.7
549.542,862.8
549.677,865.1
549.812,864.8
549.948,864.5
550.083,866.0
550.219,863.2
550.354,863.7
550.489,861.3
550.625,864.0
550.76,866.8
550.895,864.8
551.03,865.2
551.166,867.3
551.301,864.0
551.436,865.2
551.572,865.9
551.707,865.3
551.842,864.4
551.977,866.2
552.113,867.0
552.248,863.5
552.383,866.1
552.518,866.2
552.654,867.4
552.789,865.6
552.924,867.2
553.059,867.4
553.194,870.1
553.329,871.6
553.465,871.7
553.6,871.7
553.735,874.2
553.87,872.6
554.005,870.9
554.14,872.9
554.276,871.7
554.411,871.4
554.546,872.5
554.681,873.3
554.816,875.3
554.951,875.2
555.086,874.6
555.221,874.0
555.356,874.6
555.491,875.5
555.626,873.3
555.761,875.3
555.896,876.4
556.031,876.5
556.167,879.8
556.302,880.8
556.437,879.8
556.572,880.8
556.707,878.4
556.842,883.7
556.977,880.7
557.112,883.0
557.246,886.2
557.381,885.7
557.516,888.4
557.651,889.7
557.786,887.9
557.921,890.9
558.056,889.1
558.191,891.0
558.326,891.4
558.461,890.9
558.596,891.9
558.731,892.8
558.866,893.0
559.0,892.5
559.135,891.4
559.27,887.3
559.405,892.1
559.54,891.2
559.675,891.7
559.81,887.8
559.944,886.8
560.079,891.3
560.214,890.3
560.349,895.3
560.484,889.2
560.618,893.8
560.753,891.0
560.888,893.1
561.023,893.9
561.158,894.2
561.292,896.5
561.427,894.0
561.562,900.8
561.697,895.0
561.831,898.1
561.966,898.9
562.101,900.7
562.235,903.4
562.37,900.7
562.505,906.0
562.64,905.1
562.774,905.9
562.909,910.4
563.044,909.8
563.178,916.1
563.313,916.3
563.448,916.7
563.582,924.6
563.717,932.2
563.852,952.8
563.986,1007.7
564.121,1033.5
564.255,985.2
564.39,952.8
564.525,948.3
564.659,946.7
564.794,948.6
564.928,945.4
565.063,944.3
565.198,940.7
565.332,939.4
565.467,938.2
565.601,938.8
565.736,944.3
565.87,957.9
566.005,988.3
566.139,1044.5
566.274,1033.5
566.408,988.6
566.543,956.4
566.677,949.8
566.812,944.1
566.946,941.7
567.081,945.4
567.215,945.7
567.35,950.4
567.484,960.9
567.619,960.4
567.753,947.3
567.887,955.3
568.022,950.0
568.156,950.9
568.291,954.9
568.425,951.9
568.56,960.3
568.694,958.6
568.828,961.1
568.963,958.4
569.097,966.5
569.231,969.1
569.366,973.0
569.5,973.2
569.635,976.3
569.769,982.0
569.903,980.4
570.038,983.8
570.172,990.3
570.306,992.4
570.441,995.8
570.575,1000.4
570.709,998.3
570.843,1007.6
570.978,1015.5
571.112,1020.0
571.246,1027.6
571.381,1065.8
571.515,1183.8
571.649,1219.1
571.783,1122.7
571.918,1088.9
572.052,1074.0
572.186,1063.1
572.32,1064.0
572.455,1060.6
572.589,1064.0
572.723,1062.5
572.857,1067.9
572.991,1066.6
573.126,1076.0
573.26,1085.8
573.394,1085.5
573.528,1090.1
573.662,1090.6
573.796,1100.8
573.931,1118.4
574.065,1124.8
574.199,1120.9
574.333,1121.2
574.467,1132.6
574.601,1140.8
574.735,1143.2
574.869,1155.3
575.004,1154.0
575.138,1169.4
575.272,1187.1
575.406,1202.1
575.54,1248.3
575.674,1281.6
575.808,1272.3
575.942,1281.8
576.076,1320.5
576.21,1387.5
576.344,1432.3
576.478,1431.6
576.612,1400.8
576.746,1401.0
576.88,1416.1
577.014,1430.6
577.148,1433.6
577.282,1429.4
577.416,1414.9
577.55,1415.8
577.684,1412.8
577.818,1413.3
577.952,1444.2
578.086,1449.9
578.22,1465.8
578.354,1481.1
578.488,1497.4
578.622,1510.9
578.756,1526.5
578.89,1541.7
579.024,1558.1
579.158,1575.4
579.292,1597.8
579.426,1626.2
579.559,1629.8
579.693,1660.5
579.827,1670.7
579.961,1693.0
580.095,1706.9
580.229,1735.7
580.363,1738.1
580.497,1758.7
580.63,1790.1
580.764,1791.4
580.898,1816.6
581.032,1836.6
581.166,1852.3
581.3,1876.0
581.433,1894.0
581.567,1913.7
581.701,1934.0
581.835,1946.9
581.969,1965.6
582.102,1988.0
582.236,2011.4
582.37,2020.0
582.504,2032.8
582.637,2069.8
582.771,2081.5
582.905,2095.8
583.039,2122.2
583.172,2136.8
583.306,2157.8
583.44,2176.2
583.574,2184.7
583.707,2213.7
583.841,2232.0
583.975,2253.3
584.108,2271.1
584.242,2276.8
584.376,2293.2
584.51,2316.9
584.643,2336.7
584.777,2352.7
584.911,2385.3
585.044,2397.4
585.178,2417.1
585.312,2428.4
585.445,2458.9
585.579,2470.2
585.712,2494.3
585.846,2521.5
585.98,2531.0
586.113,2569.8
586.247,2595.0
586.381,2613.7
586.514,2640.5
586.648,2677.3
586.781,2704.8
586.915,2719.3
587.048,2757.7
587.182,2762.3
587.316,2801.2
587.449,2819.1
587.583,2860.1
587.716,2878.3
587.85,2914.4
587.983,2913.6
588.117,2956.7
588.25,2975.2
588.384,3003.6
588.517,3024.4
588.651,3064.3
588.784,3080.0
588.918,3111.3
589.051,3138.2
589.185,3161.4
589.318,3183.7
589.452,3211.1
589.585,3258.7
589.719,3280.7
589.852,3292.1
589.986,3328.2
590.119,3349.6
590.253,3383.2
590.386,3400.0
590.519,3423.4
590.653,3454.5
590.786,3468.8
590.92,3467.1
591.053,3524.1
591.187,3543.4
591.32,3563.3
591.453,3585.4
591.587,3600.4
591.72,3629.4
591.853,3631.6
591.987,3635.2
592.12,3647.4
592.254,3681.1
592.387,3672.2
592.52,3689.4
592.654,3686.5
592.787,3691.5
592.92,3708.4
593.054,3727.5
593.187,3716.7
593.32,3728.9
593.454,3735.6
593.587,3737.7
593.72,3749.3
593.853,3767.8
593.987,3750.4
594.12,3752.8
594.253,3761.5
594.387,3772.6
594.52,3801.2
594.653,3806.3
594.786,3822.9
594.92,3803.5
595.053,3818.5
595.186,3829.4
595.319,3837.0
595.453,3842.7
595.586,3832.8
595.719,3871.7
595.852,3884.7
595.985,3891.0
596.119,3894.5
596.252,3899.9
596.385,3908.8
596.518,3944.5
596.651,3935.2
596.785,3930.9
596.918,3977.5
597.051,3966.3
597.184,3981.2
597.317,3993.6
597.45,4005.9
597.584,4033.2
597.717,4036.1
597.85,4051.6
597.983,4086.4
598.116,4109.2
598.249,4130.5
598.382,4149.9
598.516,4148.3
598.649,4149.8
598.782,4159.8
598.915,4204.4
599.048,4238.4
599.181,4221.9
599.314,4246.3
599.447,4249.4
599.58,4248.7
599.713,4243.5
599.846,4252.8
599.979,4275.3
600.113,4283.6
600.246,4259.5
600.379,4261.7
600.512,4262.3
600.645,4256.4
600.778,4237.8
600.911,4254.6
601.044,4233.4
601.177,4213.3
601.31,4243.0
601.443,4197.9
601.576,4195.9
601.709,4189.1
601.842,4170.9
601.975,4159.0
602.108,4161.5
602.241,4142.7
602.374,4144.8
602.507,4092.8
602.64,4098.4
602.773,4071.3
602.905,4077.4
603.038,4036.5
603.171,4021.8
603.304,3990.1
603.437,3975.3
603.57,3952.5
603.703,3950.5
603.836,3889.5
603.969,3861.9
604.102,3820.8
604.235,3787.8
604.368,3764.2
604.501,3750.3
604.633,3704.0
604.766,3655.2
604.899,3613.7
605.032,3582.9
605.165,3550.3
605.298,3494.5
605.431,3467.2
605.563,3441.0
605.696,3372.9
605.829,3360.3
605.962,3310.3
606.095,3312.4
606.228,3270.2
606.36,3233.6
606.493,3209.7
606.626,3188.2
606.759,3141.5
606.892,3133.8
607.025,3120.0
607.157,3095.2
607.29,3055.1
607.423,3020.1
607.556,3015.3
607.688,2987.1
607.821,2963.7
607.954,2952.2
608.087,2936.1
608.219,2923.1
608.352,2887.4
608.485,2874.6
608.618,2867.7
608.75,2827.5
608.883,2818.0
609.016,2784.3
609.149,2778.0
609.281,2757.4
609.414,2748.8
609.547,2726.7
609.68,2697.0
609.812,2694.6
609.945,2653.5
610.078,2653.0
610.21,2643.6
610.343,2628.3
610.476,2600.4
610.608,2596.7
610.741,2577.4
610.874,2580.2
611.006,2537.9
611.139,2544.8
611.272,2519.3
611.404,2522.6
611.537,2507.8
611.67,2514.0
611.802,2477.6
611.935,2475.5
612.067,2475.8
612.2,2465.1
612.333,2463.2
612.465,2451.9
612.598,2434.4
612.731,2440.8
612.863,2423.2
612.996,2412.8
613.128,2416.8
613.261,2398.6
613.393,2402.4
613.526,2384.1
613.659,2372.7
613.791,2354.0
613.924,2349.2
614.056,2336.0
614.189,2336.4
614.321,2313.0
614.454,2303.5
614.586,2304.9
614.719,2303.9
614.852,2276.4
614.984,2264.8
615.117,2249.4
615.249,2231.7
615.382,2232.8
615.514,2226.2
615.647,2210.3
615.779,2196.1
615.912,2186.6
616.044,2178.5
616.177,2165.5
616.309,2141.3
616.442,2149.8
616.574,2139.5
616.707,2151.4
616.839,2129.9
616.971,2114.2
617.104,2112.9
617.236,2113.2
617.369,2116.2
617.501,2100.0
617.634,2086.4
617.766,2067.6
617.899,2066.9
618.031,2072.4
618.163,2051.2
618.296,2047.1
618.428,2042.5
618.561,2040.5
618.693,2038.7
618.826,2020.5
618.958,2019.3
619.09,2004.1
619.223,2002.3
619.355,2007.6
619.487,1987.9
619.62,1983.0
619.752,1994.1
619.885,1970.6
620.017,1975.0
620.149,1955.4
620.282,1940.7
620.414,1958.9
620.546,1949.9
620.679,1941.3
620.811,1923.6
620.943,1934.4
621.076,1934.2
621.208,1926.5
621.34,1923.3
621.473,1925.6
621.605,1935.3
621.737,1946.7
621.87,1934.4
622.002,1937.8
622.134,1951.2
622.267,1959.1
622.399,1945.7
622.531,1937.0
622.663,1920.6
622.796,1925.7
622.928,1890.7
623.06,1887.9
623.193,1884.9
623.325,1889.8
623.457,1875.6
623.589,1874.6
623.722,1883.6
623.854,1867.5
623.986,1857.4
624.118,1861.5
624.251,1860.4
624.383,1853.4
624.515,1849.6
624.647,1853.5
624.78,1856.1
624.912,1846.2
625.044,1847.0
625.176,1855.6
625.308,1849.5
625.441,1849.7
625.573,1847.1
625.705,1852.6
625.837,1840.9
625.969,1847.9
626.102,1853.7
626.234,1866.1
626.366,1882.4
626.498,1883.0
626.63,1953.1
626.762,2050.6
626.895,2215.2
627.027,2453.5
627.159,2681.9
627.291,2757.5
627.423,2684.1
627.555,2551.7
627.687,2473.5
627.82,2401.4
627.952,2342.5
628.084,2348.2
628.216,2370.7
628.348,2459.9
628.48,2714.8
628.612,2847.8
628.744,2636.7
628.877,2469.3
629.009,2389.7
629.141,2352.4
629.273,2336.7
629.405,2303.8
629.537,2265.8
629.669,2232.0
629.801,2207.4
629.933,2176.1
630.065,2164.1
630.197,2152.9
630.33,2152.4
630.462,2146.3
630.594,2138.4
630.726,2104.0
630.858,2072.2
630.99,2017.8
631.122,1961.2
631.254,1941.1
631.386,1918.2
631.518,1905.0
631.65,1889.9
631.782,1900.6
631.914,1887.8
632.046,1887.5
632.178,1887.8
632.31,1865.9
632.442,1873.2
632.574,1874.2
632.706,1871.5
632.838,1869.2
632.97,1870.8
633.102,1878.5
633.234,1890.8
633.366,1877.5
633.498,1872.9
633.63,1871.3
633.762,1887.0
633.894,1879.2
634.026,1876.3
634.158,1887.2
634.29,1886.1
634.422,1891.5
634.554,1901.6
634.686,1900.3
634.818,1904.1
634.95,1896.2
635.082,1905.7
635.214,1907.8
635.346,1912.2
635.477,1923.8
635.609,1916.5
635.741,1907.2
635.873,1930.2
636.005,1932.1
636.137,1927.1
636.269,1936.1
636.401,1945.8
636.533,1948.1
636.665,1949.0
636.797,1937.5
636.929,1946.0
637.06,1946.5
637.192,1945.3
637.324,1954.4
637.456,1958.1
637.588,1966.1
637.72,1958.2
637.852,1962.5
637.984,1973.1
638.115,1985.7
638.247,1990.2
638.379,1977.2
638.511,1983.8
638.643,2000.0
638.775,1989.7
638.907,2005.6
639.039,2011.9
639.17,2007.8
639.302,2025.3
639.434,2018.8
639.566,2034.2
639.698,2025.5
639.83,2039.3
639.961,2028.2
640.093,2029.4
640.225,2051.1
640.357,2041.4
640.489,2051.0
640.62,2059.1
640.752,2063.4
640.884,2060.7
641.016,2072.9
641.148,2074.7
641.279,2092.5
641.411,2083.4
641.543,2089.6
641.675,2093.7
641.807,2091.0
641.938,2097.4
642.07,2106.0
642.202,2106.1
642.334,2105.5
642.466,2117.9
642.597,2117.5
642.729,2119.3
642.861,2122.7
642.993,2121.7
643.124,2128.9
643.256,2127.5
643.388,2118.3
643.52,2138.1
643.651,2119.6
643.783,2120.5
643.915,2114.7
644.047,2127.5
644.178,2125.4
644.31,2128.6
644.442,2145.1
644.574,2127.0
644.705,2131.1
644.837,2140.8
644.969,2135.9
645.1,2136.3
645.232,2134.9
645.364,2126.4
645.496,2135.7
645.627,2136.2
645.759,2151.5
645.891,2144.2
646.022,2134.2
646.154,2142.1
646.286,2140.8
646.417,2155.0
646.549,2138.6
646.681,2135.9
646.812,2137.3
646.944,2142.7
647.076,2158.9
647.207,2145.2
647.339,2145.9
647.471,2149.5
647.602,2137.6
647.734,2127.5
647.866,2149.8
647.997,2145.5
648.129,2135.6
648.261,2124.4
648.392,2128.0
648.524,2119.8
648.656,2137.9
648.787,2130.2
648.919,2115.4
649.051,2114.5
649.182,2115.4
649.314,2117.1
649.446,2111.3
649.577,2111.9
649.709,2111.4
649.84,2104.4
649.972,2101.1
650.104,2119.7
650.235,2107.9
650.367,2106.9
650.498,2100.3
650.63,2087.6
650.762,2099.3
650.893,2100.9
651.025,2095.7
651.157,2098.3
651.288,2102.2
651.42,2109.7
651.551,2096.2
651.683,2087.9
651.814,2099.2
651.946,2111.3
652.078,2102.1
652.209,2099.5
652.341,2103.0
652.472,2095.3
652.604,2098.1
652.736,2107.6
652.867,2097.4
652.999,2094.2
653.13,2105.7
653.262,2110.7
653.393,2108.1
653.525,2107.8
653.656,2106.1
653.788,2099.1
653.92,2093.4
654.051,2102.7
654.183,2091.0
654.314,2081.2
654.446,2090.4
654.577,2076.4
654.709,2073.7
654.84,2066.3
654.972,2077.2
655.103,2062.2
655.235,2058.8
655.366,2056.2
655.498,2043.7
655.63,2066.3
655.761,2043.4
655.893,2041.8
656.024,2045.7
656.156,2026.1
656.287,2025.9
656.419,2019.3
656.55,2017.6
656.682,2007.0
656.813,2003.4
656.945,2001.6
657.076,1996.0
657.208,1978.9
657.339,1984.7
657.471,1969.1
657.602,1958.7
657.734,1962.4
657.865,1948.0
657.997,1940.0
658.128,1931.3
658.26,1928.8
658.391,1934.3
658.522,1909.2
658.654,1900.3
658.785,1901.3
658.917,1885.3
659.048,1883.0
659.18,1880.1
659.311,1865.8
659.443,1860.2
659.574,1857.4
659.706,1841.1
659.837,1825.0
659.969,1820.1
660.1,1809.1
660.232,1786.3
660.363,1787.5
660.494,1783.3
660.626,1773.1
660.757,1744.8
660.889,1749.9
661.02,1733.8
661.152,1722.8
661.283,1710.3
661.415,1703.7
661.546,1694.6
661.677,1676.5
661.809,1676.4
661.94,1666.5
662.072,1646.5
662.203,1658.6
662.335,1629.9
662.466,1625.5
662.597,1622.0
662.729,1614.5
662.86,1604.5
662.992,1601.4
663.123,1585.8