File: spectra/VLFR_07-PET_bio_Raman_303befb3.csv
nm,Intensity
791.75,3857.05
792.024,3857.3
792.298,3857.15
792.572,3855.3
792.846,3855.8
793.12,3856.15
793.394,3852.75
793.668,3849.6
793.942,3858.7
794.215,3853.45
794.489,3855.2
794.763,3856.3
795.037,3859.65
795.311,3853.7
795.585,3852.25
795.859,3849.45
796.133,3843.35
796.407,3846.2
796.681,3847.1
796.955,3848.55
797.228,3845.85
797.502,3850.25
797.776,3850.65
798.05,3854.2
798.324,3849.3
798.598,3850.85
798.871,3850.6
799.145,3851.35
799.419,3849.05
799.693,3849.85
799.967,3847.5
800.241,3846.4
800.514,3846.35
800.788,3846.5
801.062,3847.15
801.336,3849.2
801.61,3849.25
801.883,3848.9
802.157,3850.35
802.431,3848.35
802.705,3843.55
802.978,3842.55
803.252,3844.75
803.526,3846.55
803.8,3842.05
804.073,3848.9
804.347,3847.75
804.621,3843.9
804.894,3845.1
805.168,3849.75
805.442,3850.9
805.715,3850.9
805.989,3848.25
806.263,3846.35
806.536,3853.1
806.81,3849.3
807.084,3852.6
807.357,3845.95
807.631,3846.05
807.905,3844.05
808.178,3845.0
808.452,3844.15
808.726,3849.15
808.999,3840.85
809.273,3843.45
809.546,3842.55
809.82,3841.65
810.094,3843.7
810.367,3843.6
810.641,3834.7
810.914,3840.9
811.188,3835.75
811.461,3838.75
811.735,3835.65
812.008,3835.9
812.282,3833.0
812.556,3832.65
812.829,3834.85
813.103,3834.1
813.376,3826.2
813.65,3828.35
813.923,3827.85
814.197,3826.55
814.47,3824.55
814.744,3822.7
815.017,3821.8
815.29,3821.9
815.564,3825.2
815.837,3822.95
816.111,3819.55
816.384,3819.6
816.658,3819.0
816.931,3820.25
817.205,3824.75
817.478,3823.7
817.751,3820.15
818.025,3819.5
818.298,3820.3
818.572,3817.4
818.845,3822.15
819.118,3821.55
819.392,3822.1
819.665,3821.7
819.938,3818.55
820.212,3824.55
820.485,3831.75
820.758,3831.8
821.032,3826.75
821.305,3829.3
821.578,3823.85
821.852,3823.95
822.125,3823.1
822.398,3816.05
822.672,3806.85
822.945,3808.5
823.218,3811.85
823.491,3816.7
823.765,3821.05
824.038,3822.1
824.311,3827.9
824.585,3826.35
824.858,3827.45
825.131,3825.0
825.404,3824.35
825.677,3824.2
825.951,3818.95
826.224,3823.75
826.497,3826.85
826.77,3828.85
827.043,3818.95
827.317,3818.45
827.59,3817.45
827.863,3812.5
828.136,3812.1
828.409,3813.25
828.682,3818.35
828.956,3818.8
829.229,3819.55
829.502,3818.8
829.775,3821.85
830.048,3817.5
830.321,3812.95
830.594,3816.05
830.867,3823.3
831.14,3821.9
831.413,3816.9
831.687,3816.05
831.96,3817.1
832.233,3818.0
832.506,3819.5
832.779,3820.4
833.052,3820.95
833.325,3813.45
833.598,3817.8
833.871,3816.1
834.144,3815.9
834.417,3820.35
834.69,3821.5
834.963,3822.85
835.236,3820.5
835.509,3819.85
835.782,3818.15
836.055,3816.15
836.328,3820.05
836.601,3821.95
836.874,3818.85
837.147,3821.4
837.419,3821.35
837.692,3823.3
837.965,3821.85
838.238,3818.9
838.511,3814.3
838.784,3818.1
839.057,3821.4
839.33,3822.55
839.603,3821.7
839.876,3820.25
840.148,3822.6
840.421,3819.0
840.694,3822.0
840.967,3823.0
841.24,3820.45
841.513,3819.45
841.785,3820.65
842.058,3822.5
842.331,3821.55
842.604,3818.8
842.877,3821.0
843.149,3821.4
843.422,3821.35
843.695,3819.4
843.968,3818.25
844.24,3815.8
844.513,3818.15
844.786,3820.35
845.059,3823.4
845.331,3820.1
845.604,3819.05
845.877,3818.4
846.15,3818.55
846.422,3817.55
846.695,3819.5
846.968,3820.1
847.24,3815.85
847.513,3815.75
847.786,3819.6
848.058,3819.45
848.331,3816.95
848.604,3816.8
848.876,3813.85
849.149,3815.0
849.421,3812.75
849.694,3815.3
849.967,3813.8
850.239,3816.5
850.512,3817.35
850.784,3814.95
851.057,3814.2
851.33,3817.55
851.602,3817.35
851.875,3815.95
852.147,3815.65
852.42,3814.85
852.692,3815.45
852.965,3814.2
853.237,3813.5
853.51,3808.1
853.782,3808.1
854.055,3806.15
854.327,3808.35
854.6,3808.3
854.872,3810.55
855.145,3814.25
855.417,3812.15
855.69,3811.95
855.962,3810.5
856.235,3811.9
856.507,3813.1
856.779,3815.35
857.052,3813.7
857.324,3814.8
857.597,3813.1
857.869,3815.9
858.142,3809.4
858.414,3816.15
858.686,3815.25
858.959,3813.15
859.231,3809.45
859.503,3811.6
859.776,3814.15
860.048,3810.8
860.32,3814.5
860.593,3812.65
860.865,3806.95
861.137,3812.4
861.41,3811.8
861.682,3810.55
861.954,3811.3
862.226,3809.85
862.499,3809.5
862.771,3812.25
863.043,3809.5
863.315,3811.35
863.588,3810.9
863.86,3809.15
864.132,3807.7
864.404,3808.9
864.677,3808.25
864.949,3812.85
865.221,3804.75
865.493,3807.85
865.765,3802.05
866.038,3804.2
866.31,3805.7
866.582,3807.1
866.854,3805.05
867.126,3806.55
867.398,3808.4
867.67,3806.4
867.943,3806.0
868.215,3807.55
868.487,3806.55
868.759,3806.8
869.031,3808.1
869.303,3806.4
869.575,3806.35
869.847,3809.95
870.119,3807.4
870.391,3808.15
870.663,3805.65
870.935,3806.1
871.207,3807.85
871.479,3810.35
871.751,3810.1
872.023,3809.3
872.295,3805.65
872.567,3808.1
872.839,3806.05
873.111,3808.0
873.383,3803.85
873.655,3807.1
873.927,3801.2
874.199,3806.75
874.471,3805.85
874.743,3806.8
875.015,3805.0
875.287,3805.1
875.559,3802.1
875.831,3800.25
876.103,3801.1
876.374,3802.05
876.646,3803.85
876.918,3804.95
877.19,3804.6
877.462,3801.1
877.734,3801.55
878.006,3801.45
878.277,3803.95
878.549,3803.6
878.821,3805.75
879.093,3801.25
879.365,3800.9
879.636,3805.8
879.908,3802.8
880.18,3802.05
880.452,3798.6
880.723,3799.0
880.995,3796.7
881.267,3800.35
881.539,3800.95
881.81,3802.9
882.082,3800.55
882.354,3799.95
882.626,3796.5
882.897,3795.9
883.169,3800.3
883.441,3801.0
883.712,3801.0
883.984,3800.2
884.256,3799.2
884.527,3800.75
884.799,3796.85
885.07,3796.8
885.342,3796.45
885.614,3795.35
885.885,3799.25
886.157,3796.6
886.428,3795.05
886.7,3795.95
886.972,3796.05
887.243,3794.75
887.515,3796.5
887.786,3797.2
888.058,3794.6
888.329,3792.8
888.601,3792.9
888.872,3797.9
889.144,3795.5
889.415,3796.55
889.687,3795.65
889.958,3795.8
890.23,3791.85
890.501,3795.1
890.773,3792.95
891.044,3795.5
891.316,3792.05
891.587,3792.2
891.859,3791.35
892.13,3791.5
892.401,3789.0
892.673,3788.8
892.944,3785.4
893.216,3787.4
893.487,3785.45
893.758,3783.85
894.03,3784.1
894.301,3783.75
894.572,3782.55
894.844,3782.45
895.115,3780.1
895.386,3781.8
895.658,3780.15
895.929,3778.1
896.2,3779.35
896.472,3776.9
896.743,3776.1
897.014,3778.55
897.285,3776.85
897.557,3777.5
897.828,3778.6
898.099,3778.6
898.37,3777.2
898.642,3779.35
898.913,3778.55
899.184,3777.25
899.455,3777.2
899.726,3775.55
899.998,3776.1
900.269,3775.75
900.54,3773.35
900.811,3773.1
901.082,3772.35
901.353,3776.1
901.625,3775.75
901.896,3774.2
902.167,3775.25
902.438,3775.2
902.709,3777.7
902.98,3776.3
903.251,3776.7
903.522,3778.6
903.793,3779.2
904.064,3780.75
904.335,3777.7
904.606,3776.4
904.877,3778.4
905.148,3777.95
905.419,3777.1
905.69,3774.9
905.961,3773.4
906.232,3773.4
906.503,3773.45
906.774,3775.05
907.045,3770.65
907.316,3774.4
907.587,3774.9
907.858,3771.65
908.129,3772.6
908.4,3769.9
908.671,3771.2
908.942,3771.05
909.213,3771.3
909.484,3772.55
909.755,3769.15
910.025,3770.1
910.296,3772.05
910.567,3768.35
910.838,3768.95
911.109,3770.25
911.38,3771.15
911.65,3771.05
911.921,3768.75
912.192,3768.0
912.463,3768.95
912.734,3767.0
913.004,3766.7
913.275,3766.95
913.546,3768.8
913.817,3766.85
914.087,3766.85
914.358,3766.05
914.629,3766.3
914.9,3762.9
915.17,3766.35
915.441,3766.05
915.712,3766.3
915.982,3764.85
916.253,3766.2
916.524,3765.7
916.794,3763.4
917.065,3764.4
917.336,3762.8
917.606,3765.05
917.877,3764.85
918.147,3765.95
918.418,3765.0
918.689,3769.35
918.959,3766.6
919.23,3767.35
919.5,3766.9
919.771,3768.45
920.042,3767.9
920.312,3767.8
920.583,3766.5
920.853,3767.45
921.124,3766.0
921.394,3766.05
921.665,3766.0
921.935,3766.25
922.206,3764.9
922.476,3763.85
922.747,3765.9
923.017,3764.1
923.287,3764.5
923.558,3761.9
923.828,3763.25
924.099,3763.35
924.369,3763.2
924.639,3761.1
924.91,3761.85
925.18,3763.7
925.451,3763.25
925.721,3762.45
925.991,3763.5
926.262,3762.7
926.532,3763.35
926.802,3759.55
927.073,3762.05
927.343,3760.1
927.613,3759.7
927.884,3757.25
928.154,3758.5
928.424,3756.85
928.694,3757.15
928.965,3756.5
929.235,3754.9
929.505,3754.4
929.775,3754.6
930.046,3754.65
930.316,3755.55
930.586,3754.3
930.856,3755.5
931.126,3752.65
931.397,3751.35
931.667,3753.45
931.937,3753.8
932.207,3752.5
932.477,3751.4
932.747,3754.6
933.017,3752.2
933.288,3751.95
933.558,3753.1
933.828,3754.1
934.098,3751.9
934.368,3752.1
934.638,3750.2
934.908,3751.4
935.178,3752.85
935.448,3751.9
935.718,3749.05
935.988,3752.15
936.258,3750.65
936.528,3751.25
936.798,3749.35
937.068,3750.05
937.338,3749.65
937.608,3752.0
937.878,3748.6
938.148,3752.0
938.418,3751.15
938.688,3750.45
938.958,3751.45
939.228,3750.3
939.498,3750.1
939.767,3751.05
940.037,3750.8
940.307,3752.5
940.577,3751.75
940.847,3750.4
941.117,3750.05
941.387,3749.45
941.656,3749.05
941.926,3751.3
942.196,3748.45
942.466,3749.3
942.736,3749.3
943.005,3748.6
943.275,3748.95
943.545,3749.9
943.815,3750.35
944.084,3749.5
944.354,3749.05
944.624,3749.6
944.894,3748.65
945.163,3748.95
945.433,3746.5
945.703,3750.5
945.972,3749.0
946.242,3749.65
946.512,3748.05
946.781,3749.35
947.051,3747.7
947.321,3748.05
947.59,3747.75
947.86,3748.9
948.13,3749.4
948.399,3747.45
948.669,3749.3
948.938,3749.15
949.208,3747.95
949.477,3747.55
949.747,3748.1
950.016,3747.15
950.286,3746.75
950.556,3746.3
950.825,3747.6
951.095,3748.15
951.364,3747.15
951.634,3747.4
951.903,3744.8
952.172,3747.65
952.442,3748.0
952.711,3748.1
952.981,3745.5
953.25,3747.2
953.52,3747.2
953.789,3748.0
954.058,3746.85
954.328,3746.45
954.597,3747.5
954.867,3745.85
955.136,3746.05
955.405,3746.6
955.675,3746.55
955.944,3748.4
956.213,3749.05
956.483,3747.1
956.752,3746.5
957.021,3747.05
957.29,3744.9
957.56,3746.95
957.829,3747.4
958.098,3746.75
958.367,3746.05
958.637,3746.2
958.906,3746.25
959.175,3745.9
959.444,3747.0
959.714,3744.75
959.983,3745.85
960.252,3745.55
960.521,3746.75
960.79,3746.6
961.059,3745.25
961.328,3748.55
961.598,3747.2
961.867,3746.4
962.136,3746.55
962.405,3745.05
962.674,3747.2
962.943,3747.0
963.212,3745.0
963.481,3745.65
963.75,3746.55
964.019,3746.45
964.288,3746.2
964.557,3746.8
964.826,3745.35
965.095,3747.4
965.364,3746.55
965.633,3747.2
965.902,3745.3
966.171,3745.65
966.44,3746.65
966.709,3747.2
966.978,3747.2
967.247,3747.85
967.516,3748.4
967.785,3749.4
968.054,3748.4
968.323,3748.25
968.591,3747.4
968.86,3748.1
969.129,3747.95
969.398,3748.15
969.667,3747.95
969.936,3748.85
970.204,3746.65
970.473,3747.0
970.742,3747.55
971.011,3748.3
971.28,3747.95
971.548,3747.95
971.817,3746.9
972.086,3747.0
972.355,3745.9
972.623,3746.75
972.892,3746.25
973.161,3746.75
973.429,3747.4
973.698,3747.35
973.967,3746.15
974.235,3746.8
974.504,3745.8
974.773,3747.6
975.041,3747.85
975.31,3746.2
975.579,3745.6
975.847,3746.35
976.116,3746.75
976.384,3746.7
976.653,3746.45
976.922,3745.9
977.19,3746.35
977.459,3746.25
977.727,3746.5
977.996,3747.5
978.264,3745.95
978.533,3745.9
978.801,3744.75
979.07,3746.5
979.338,3745.9
979.607,3746.3
979.875,3746.25
980.143,3746.95
980.412,3747.4
980.68,3746.05
980.949,3746.85
981.217,3746.55
981.486,3747.15
981.754,3746.8
982.022,3747.8
982.291,3746.15
982.559,3747.6
982.827,3745.55
983.096,3745.5
983.364,3746.2
983.632,3745.25
983.901,3746.25
984.169,3746.25
984.437,3746.75
984.705,3746.15
984.974,3746.45
985.242,3747.6
985.51,3748.6
985.778,3747.15
986.047,3746.0
986.315,3746.55
986.583,3747.2
986.851,3746.45
987.119,3746.15
987.388,3744.15
987.656,3746.85
987.924,3747.3
988.192,3745.05
988.46,3747.45
988.728,3745.65
988.996,3746.0
989.264,3747.05
989.533,3747.05
989.801,3745.3
990.069,3745.35
990.337,3747.55
990.605,3745.8
990.873,3746.85
991.141,3747.2
991.409,3746.5
991.677,3747.05
991.945,3746.3
992.213,3747.15
992.481,3744.15
992.749,3746.95
993.017,3746.7
993.285,3746.2
993.553,3746.6
993.82,3746.25
994.088,3748.0
994.356,3746.05
994.624,3746.9
994.892,3745.65
995.16,3747.2
995.428,3746.6
995.696,3746.7
995.963,3745.65
996.231,3745.85
996.499,3746.05
996.767,3745.95
997.035,3746.4
997.302,3745.75
997.57,3745.45
997.838,3746.95
998.106,3745.8
998.373,3743.95
998.641,3746.7
998.909,3744.7
999.177,3746.15
999.444,3743.85
999.712,3745.35
999.98,3745.55
1000.25,3743.95
1000.51,3745.95
1000.78,3745.35
1001.05,3744.9
1001.32,3746.55
1001.59,3746.5
1001.85,3745.4
1002.12,3745.0
1002.39,3745.15
1002.66,3745.0
1002.92,3745.3
1003.19,3745.1
1003.46,3744.95
1003.73,3746.05
1003.99,3743.75
1004.26,3744.6
1004.53,3743.2
1004.8,3744.8
1005.06,3744.8
1005.33,3744.3
1005.6,3743.8
1005.87,3745.4
1006.13,3745.2
1006.4,3743.7
1006.67,3745.0
1006.94,3745.7
1007.2,3744.25
1007.47,3744.7
1007.74,3744.05
1008.0,3742.85
1008.27,3743.75
1008.54,3743.85
1008.81,3744.2
1009.07,3745.1
1009.34,3743.2
1009.61,3743.0
1009.88,3744.3
1010.14,3745.0
1010.41,3743.9
1010.68,3742.45
1010.95,3743.8
1011.21,3745.3
1011.48,3742.8
1011.75,3744.5
1012.01,3744.85
1012.28,3743.45
1012.55,3743.1
1012.82,3743.65
1013.08,3743.05
1013.35,3744.15
1013.62,3744.2
1013.88,3744.65
1014.15,3743.95
1014.42,3742.45
1014.69,3744.3
1014.95,3744.4
1015.22,3743.05
1015.49,3743.1
1015.75,3744.25
1016.02,3744.35
1016.29,3743.15
1016.55,3743.2
1016.82,3743.75
1017.09,3744.45
1017.36,3742.95
1017.62,3743.95
1017.89,3743.4
1018.16,3742.7
1018.42,3742.9
1018.69,3744.65
1018.96,3742.55
1019.22,3743.75
1019.49,3742.95
1019.76,3743.25
1020.02,3741.55
1020.29,3742.55
1020.56,3743.65
1020.83,3743.2
1021.09,3744.05
1021.36,3743.95
1021.63,3742.75
1021.89,3743.85
1022.16,3743.7
1022.43,3743.25
1022.69,3741.5
1022.96,3743.55
1023.23,3741.75
1023.49,3743.4
1023.76,3743.15
1024.03,3741.6
1024.29,3743.95
1024.56,3742.95
1024.83,3743.15
1025.09,3742.95
1025.36,3744.0
1025.63,3742.2
1025.89,3742.75
1026.16,3742.15
1026.43,3743.05
1026.69,3744.4
1026.96,3741.65
1027.23,3742.25
1027.49,3741.55
1027.76,3742.8
1028.03,3741.95
1028.29,3742.35
1028.56,3743.3
1028.83,3743.85
1029.09,3743.05
1029.36,3741.4
1029.62,3740.9
1029.89,3742.25
1030.16,3741.7
1030.42,3741.3
1030.69,3741.9
1030.96,3742.2
1031.22,3741.6
1031.49,3742.1
1031.76,3742.1
1032.02,3742.95
1032.29,3741.65
1032.56,3742.55
1032.82,3742.35
1033.09,3741.0
1033.35,3741.7
1033.62,3741.3
1033.89,3742.6
1034.15,3743.35
1034.42,3742.1
1034.69,3742.0
1034.95,3741.6
1035.22,3743.45
1035.48,3741.4
1035.75,3742.2
1036.02,3741.2
1036.28,3742.0
1036.55,3740.45
1036.81,3742.95
1037.08,3740.75
1037.35,3741.85
1037.61,3741.45
1037.88,3741.6
1038.15,3740.95
1038.41,3741.75
1038.68,3742.6
1038.94,3742.25
1039.21,3741.4
1039.48,3741.65
1039.74,3740.55
1040.01,3741.65
1040.27,3742.35
1040.54,3741.75
1040.81,3742.25
1041.07,3741.0
1041.34,3741.55
1041.6,3741.7
1041.87,3741.4
1042.14,3742.1
1042.4,3741.65
1042.67,3742.45
1042.93,3742.55
1043.2,3740.45
1043.47,3740.85
1043.73,3741.75
1044.0,3741.55
1044.26,3742.25
1044.53,3739.5
1044.79,3742.0
1045.06,3741.5
1045.33,3741.85
1045.59,3741.25
1045.86,3741.95
1046.12,3740.6
1046.39,3740.45
1046.65,3741.1
1046.92,3740.4
1047.19,3739.9
1047.45,3741.95
1047.72,3742.55
1047.98,3741.15
1048.25,3742.4
1048.51,3742.35
1048.78,3740.05
1049.05,3740.25
1049.31,3739.85
1049.58,3740.8
1049.84,3740.65
1050.11,3739.85
1050.37,3740.15
1050.64,3741.6
1050.91,3741.65
1051.17,3741.6
1051.44,3740.15
1051.7,3741.25
1051.97,3741.45
1052.23,3741.1
1052.5,3741.25
1052.76,3739.4
1053.03,3741.5
1053.29,3742.3
1053.56,3740.65
1053.83,3740.3
1054.09,3741.3
1054.36,3740.5
1054.62,3742.85
1054.89,3740.5
1055.15,3741.45
1055.42,3741.95
1055.68,3741.5
1055.95,3740.95
1056.21,3740.6
1056.48,3742.2
1056.74,3740.0
1057.01,3740.45
1057.27,3739.95
1057.54,3740.6
1057.81,3740.35
1058.07,3741.15
1058.34,3741.55
1058.6,3739.9
1058.87,3741.25
1059.13,3741.25
1059.4,3739.6
1059.66,3741.25
1059.93,3741.15
1060.19,3741.2
1060.46,3740.15
1060.72,3741.3
1060.99,3740.5
1061.25,3741.5
1061.52,3741.7
1061.78,3741.25
1062.05,3741.95
1062.31,3740.25
1062.58,3740.9
1062.84,3740.85
1063.11,3741.65
1063.37,3741.45
1063.64,3741.4
1063.9,3738.9
1064.17,3739.8
1064.43,3739.55
1064.7,3739.9
1064.96,3741.65
1065.23,3740.6
1065.49,3741.25
1065.76,3739.95
1066.02,3739.25
1066.29,3741.0
1066.55,3740.55
1066.82,3740.6
1067.08,3740.6
1067.35,3739.6
1067.61,3740.1
1067.88,3740.75