File: spectra/VLFR_08-PLA_nobio_Raman_a41dd254.csv
cm-1,Intensity
-123.878,1855.05
-117.855,1855.7
-111.836,1855.75
-105.821,1856.95
-99.8104,1856.1
-93.8036,1855.2
-87.8007,1855.6
-81.8019,1854.0
-75.807,1855.6
-69.8161,1855.7
-63.8293,1855.2
-57.8464,1856.35
-51.8675,1856.3
-45.8926,1858.15
-39.9216,1857.1
-33.9547,1857.3
-27.9917,1859.5
-22.0326,1863.8
-16.0776,1898.05
-10.1265,2371.9
-4.17932,3752.35
1.76388,3237.8
7.70313,1996.25
13.6384,1860.05
19.5698,1858.4
25.4972,1857.85
31.4207,1857.4
37.3403,1857.4
43.256,1861.85
49.1677,1892.7
55.0755,2092.25
60.9794,2434.45
66.8794,2617.85
72.7754,2644.2
78.6676,2577.35
84.5559,2536.3
90.4402,2513.4
96.3207,2483.6
102.197,2476.15
108.07,2434.1
113.939,2412.25
119.804,2405.3
125.665,2365.3
131.522,2348.7
137.375,2331.8
143.225,2356.45
149.07,2366.5
154.912,2369.6
160.75,2351.6
166.584,2332.45
172.414,2325.4
178.241,2317.35
184.063,2324.25
189.882,2344.65
195.697,2321.15
201.508,2336.45
207.315,2305.05
213.119,2277.3
218.918,2273.4
224.714,2278.3
230.506,2276.85
236.294,2280.75
242.078,2292.8
247.859,2294.6
253.636,2290.95
259.409,2265.75
265.178,2251.4
270.943,2259.15
276.705,2272.85
282.463,2297.65
288.217,2317.8
293.967,2353.0
299.713,2343.9
305.456,2342.2
311.195,2327.5
316.93,2350.15
322.662,2335.5
328.389,2335.75
334.113,2311.85
339.834,2293.35
345.55,2311.3
351.263,2293.5
356.972,2300.1
362.677,2322.0
368.379,2333.85
374.077,2341.65
379.771,2368.4
385.461,2391.55
391.148,2459.85
396.831,2445.85
402.51,2455.35
408.186,2463.45
413.858,2441.0
419.526,2387.1
425.19,2354.0
430.851,2323.0
436.508,2330.95
442.162,2315.95
447.811,2308.0
453.458,2306.7
459.1,2297.3
464.739,2301.35
470.374,2304.1
476.005,2299.85
481.633,2303.0
487.257,2314.05
492.878,2304.75
498.494,2310.45
504.107,2319.6
509.717,2319.05
515.323,2321.45
520.925,2314.0
526.524,2305.35
532.119,2331.1
537.71,2322.9
543.298,2332.85
548.882,2330.95
554.462,2333.9
560.039,2334.95
565.613,2341.05
571.182,2330.25
576.748,2349.6
582.311,2338.6
587.87,2367.15
593.425,2341.75
598.977,2354.45
604.525,2340.7
610.069,2348.1
615.61,2351.1
621.148,2355.85
626.682,2368.7
632.212,2372.85
637.739,2359.95
643.262,2373.45
648.781,2402.05
654.297,2394.55
659.81,2396.5
665.319,2417.6
670.824,2408.9
676.326,2424.3
681.824,2409.55
687.319,2413.0
692.81,2415.55
698.298,2421.05
703.782,2427.7
709.262,2423.15
714.739,2399.9
720.213,2406.15
725.683,2399.9
731.15,2438.75
736.613,2448.7
742.072,2462.7
747.528,2469.95
752.981,2440.2
758.43,2441.0
763.875,2429.7
769.317,2442.0
774.756,2413.4
780.191,2421.2
785.623,2404.7
791.051,2396.65
796.475,2414.1
801.897,2412.0
807.314,2404.4
812.729,2408.75
818.139,2415.65
823.547,2420.7
828.951,2421.1
834.351,2428.35
839.748,2461.45
845.142,2474.2
850.532,2508.2
855.918,2580.95
861.302,2753.5
866.681,3043.45
872.058,3165.0
877.431,3086.25
882.8,2800.1
888.166,2613.8
893.529,2550.2
898.888,2536.9
904.244,2530.4
909.596,2517.35
914.945,2498.2
920.291,2509.8
925.633,2499.85
930.972,2495.95
936.308,2488.6
941.64,2477.85
946.968,2480.5
952.294,2477.75
957.615,2488.3
962.934,2468.95
968.249,2473.5
973.561,2469.7
978.869,2460.65
984.174,2471.65
989.476,2475.85
994.774,2486.15
1000.07,2479.4
1005.36,2476.2
1010.65,2499.95
1015.93,2481.8
1021.22,2540.2
1026.49,2562.3
1031.77,2622.8
1037.04,2636.25
1042.31,2706.25
1047.57,2701.65
1052.83,2622.75
1058.09,2597.2
1063.35,2531.35
1068.6,2532.05
1073.85,2545.75
1079.09,2556.2
1084.33,2589.1
1089.57,2637.4
1094.81,2665.8
1100.04,2671.6
1105.27,2660.15
1110.49,2635.55
1115.71,2687.65
1120.93,2718.15
1126.15,2785.0
1131.36,2762.0
1136.57,2698.6
1141.77,2621.1
1146.98,2575.45
1152.18,2533.85
1157.37,2518.45
1162.56,2520.75
1167.75,2539.95
1172.94,2537.35
1178.12,2563.05
1183.3,2574.5
1188.48,2586.35
1193.65,2548.2
1198.82,2555.5
1203.99,2556.6
1209.15,2571.95
1214.31,2568.05
1219.46,2532.6
1224.62,2574.45
1229.77,2557.15
1234.92,2525.7
1240.06,2527.5
1245.2,2566.95
1250.34,2550.55
1255.47,2534.1
1260.6,2535.2
1265.73,2565.45
1270.85,2554.7
1275.97,2563.7
1281.09,2564.7
1286.21,2585.55
1291.32,2668.0
1296.43,2696.45
1301.53,2699.1
1306.63,2665.7
1311.73,2663.2
1316.83,2633.95
1321.92,2626.85
1327.01,2627.55
1332.1,2627.55
1337.18,2645.7
1342.26,2633.1
1347.34,2639.35
1352.41,2651.75
1357.48,2659.6
1362.55,2630.85
1367.61,2657.05
1372.67,2615.8
1377.73,2615.9
1382.78,2664.85
1387.84,2674.55
1392.88,2636.75
1397.93,2597.7
1402.97,2578.9
1408.01,2578.85
1413.05,2563.5
1418.08,2572.15
1423.11,2580.7
1428.14,2597.85
1433.16,2627.9
1438.18,2687.0
1443.2,2810.9
1448.21,2909.65
1453.22,2968.0
1458.23,2915.65
1463.23,2862.9
1468.23,2757.65
1473.23,2655.5
1478.23,2626.6
1483.22,2594.45
1488.21,2592.1
1493.2,2591.2
1498.18,2571.7
1503.16,2572.45
1508.14,2564.05
1513.11,2565.85
1518.08,2560.9
1523.05,2564.9
1528.01,2573.75
1532.97,2570.05
1537.93,2576.65
1542.89,2577.25
1547.84,2579.85
1552.79,2587.0
1557.73,2569.2
1562.68,2573.7
1567.62,2582.15
1572.56,2572.6
1577.49,2591.7
1582.42,2587.1
1587.35,2577.15
1592.27,2579.95
1597.19,2575.7
1602.11,2585.9
1607.03,2564.35
1611.94,2586.55
1616.85,2579.15
1621.76,2584.7
1626.66,2591.3
1631.56,2578.9
1636.46,2578.25
1641.36,2582.2
1646.25,2599.4
1651.14,2590.05
1656.02,2579.3
1660.9,2595.1
1665.78,2588.85
1670.66,2599.55
1675.54,2580.2
1680.41,2596.75
1685.27,2587.1
1690.14,2577.2
1695.0,2605.5
1699.86,2583.75
1704.71,2590.15
1709.57,2601.7
1714.42,2586.15
1719.26,2598.45
1724.11,2574.65
1728.95,2609.5
1733.79,2621.45
1738.62,2684.25
1743.46,2725.35
1748.28,2773.35
1753.11,2831.65
1757.93,2904.9
1762.75,2910.0
1767.57,2980.65
1772.39,2981.05
1777.2,2900.5
1782.01,2805.75
1786.81,2715.05
1791.62,2663.25
1796.41,2633.65
1801.21,2606.95
1806.01,2586.15
1810.8,2613.65
1815.59,2598.05
1820.37,2577.05
1825.15,2593.55
1829.93,2575.7
1834.71,2591.05
1839.48,2574.45
1844.25,2575.15
1849.02,2596.4
1853.79,2580.4
1858.55,2587.35
1863.31,2572.15
1868.06,2569.5
1872.82,2575.8
1877.57,2589.6
1882.31,2565.0
1887.06,2592.95
1891.8,2574.35
1896.54,2567.1
1901.28,2598.6
1906.01,2568.75
1910.74,2577.05
1915.47,2582.0
1920.19,2579.3
1924.91,2577.95
1929.63,2593.85
1934.35,2561.0
1939.06,2577.5
1943.77,2552.25
1948.48,2579.0
1953.19,2573.4
1957.89,2584.1
1962.59,2557.9
1967.28,2564.35
1971.98,2556.45
1976.67,2568.75
1981.35,2573.25
1986.04,2594.25
1990.72,2574.5
1995.4,2569.55
2000.08,2577.25
2004.75,2571.35
2009.42,2580.3
2014.09,2584.0
2018.75,2569.2
2023.42,2574.9
2028.08,2579.9
2032.73,2598.5
2037.39,2564.6
2042.04,2582.95
2046.69,2566.5
2051.33,2578.85
2055.97,2575.7
2060.61,2594.4
2065.25,2572.9
2069.88,2589.85
2074.52,2541.85
2079.15,2569.95
2083.77,2559.9
2088.39,2556.2
2093.01,2569.4
2097.63,2569.55
2102.25,2579.45
2106.86,2567.9
2111.47,2590.3
2116.08,2563.3
2120.68,2568.4
2125.28,2577.65
2129.88,2568.1
2134.47,2561.3
2139.07,2559.15
2143.66,2570.85
2148.24,2559.15
2152.83,2568.25
2157.41,2558.55
2161.99,2563.35
2166.57,2564.95
2171.14,2565.25
2175.71,2555.45
2180.28,2570.35
2184.84,2558.65
2189.41,2563.3
2193.97,2558.3
2198.52,2566.45
2203.08,2558.85
2207.63,2555.0
2212.18,2552.65
2216.73,2549.65
2221.27,2540.3
2225.81,2561.3
2230.35,2543.85
2234.89,2552.6
2239.42,2549.6
2243.95,2553.3
2248.48,2545.4
2253.0,2540.45
2257.52,2529.7
2262.04,2535.05
2266.56,2556.55
2271.07,2536.45
2275.58,2525.15
2280.09,2521.4
2284.6,2553.75
2289.1,2529.05
2293.6,2514.3
2298.1,2529.85
2302.6,2550.95
2307.09,2535.55
2311.58,2531.1
2316.07,2526.55
2320.55,2539.5
2325.03,2532.15
2329.51,2538.9
2333.99,2518.75
2338.46,2539.1
2342.93,2516.4
2347.4,2523.0
2351.87,2550.05
2356.33,2509.5
2360.79,2521.7
2365.25,2502.1
2369.71,2519.65
2374.16,2517.15
2378.61,2514.75
2383.06,2530.5
2387.5,2533.6
2391.94,2494.8
2396.38,2508.55
2400.82,2532.45
2405.26,2515.8
2409.69,2533.45
2414.12,2534.6
2418.54,2503.05
2422.97,2518.8
2427.39,2512.5
2431.81,2505.75
2436.22,2508.85
2440.64,2512.3
2445.05,2503.7
2449.46,2513.2
2453.86,2499.95
2458.27,2496.2
2462.67,2513.2
2467.06,2517.2
2471.46,2499.3
2475.85,2502.65
2480.24,2493.7
2484.63,2506.45
2489.02,2507.4
2493.4,2502.1
2497.78,2500.45
2502.16,2507.2
2506.53,2486.85
2510.9,2494.8
2515.27,2497.7
2519.64,2511.15
2524.0,2504.2
2528.37,2492.2
2532.73,2494.35
2537.08,2491.1
2541.44,2484.8
2545.79,2494.7
2550.14,2497.9
2554.48,2490.4
2558.83,2496.9
2563.17,2476.7
2567.51,2477.45
2571.85,2509.75
2576.18,2502.1
2580.51,2460.0
2584.84,2480.75
2589.17,2483.85
2593.49,2489.15
2597.81,2494.2
2602.13,2491.55
2606.45,2489.7
2610.76,2469.45
2615.07,2490.85
2619.38,2448.9
2623.69,2470.75
2627.99,2467.65
2632.29,2463.15
2636.59,2459.05
2640.89,2470.15
2645.18,2464.9
2649.47,2475.0
2653.76,2470.65
2658.05,2480.5
2662.33,2468.85
2666.61,2475.95
2670.89,2479.9
2675.17,2463.9
2679.44,2471.4
2683.71,2473.75
2687.98,2442.85
2692.25,2459.0
2696.51,2467.95
2700.77,2457.6
2705.03,2476.95
2709.29,2463.9
2713.54,2476.45
2717.79,2479.45
2722.04,2493.75
2726.29,2497.15
2730.53,2509.8
2734.77,2543.65
2739.01,2541.2
2743.25,2535.6
2747.48,2528.2
2751.71,2513.1
2755.94,2510.1
2760.17,2500.4
2764.39,2498.45
2768.61,2479.65
2772.83,2472.3
2777.05,2444.5
2781.27,2478.8
2785.48,2466.25
2789.69,2454.6
2793.89,2449.8
2798.1,2450.65
2802.3,2429.5
2806.5,2467.35
2810.7,2450.45
2814.89,2432.55
2819.09,2429.35
2823.28,2446.85
2827.46,2448.6
2831.65,2447.75
2835.83,2429.5
2840.01,2451.7
2844.19,2436.55
2848.37,2452.0
2852.54,2457.15
2856.71,2469.15
2860.88,2483.55
2865.05,2501.6
2869.21,2599.6
2873.37,2730.15
2877.53,2842.75
2881.69,2904.5
2885.84,2877.55
2889.99,2796.25
2894.14,2793.7
2898.29,2769.8
2902.43,2786.9
2906.58,2800.25
2910.72,2800.5
2914.85,2800.3
2918.99,2848.5
2923.12,2885.85
2927.25,2997.5
2931.38,3212.3
2935.5,3640.6
2939.63,4462.35
2943.75,5133.0
2947.87,5285.0
2951.98,4706.25
2956.1,4203.2
2960.21,3673.3
2964.32,3439.55
2968.42,3243.45
2972.53,3188.95
2976.63,3102.25
2980.73,3093.9
2984.83,3103.15
2988.92,3218.75
2993.01,3412.8
2997.1,3586.15
3001.19,3638.75
3005.28,3581.1
3009.36,3453.1
3013.44,3274.95
3017.52,3079.35
3021.6,2937.9
3025.67,2801.6
3029.74,2689.45
3033.81,2595.7
3037.88,2547.45
3041.94,2513.45
3046.01,2484.5
3050.07,2441.2
3054.12,2425.2
3058.18,2442.45
3062.23,2414.6
3066.28,2394.6
3070.33,2388.15
3074.38,2402.65
3078.42,2397.65
3082.46,2409.25
3086.5,2385.45
3090.54,2390.75
3094.57,2379.9
3098.6,2373.2
3102.63,2382.5
3106.66,2357.0
3110.69,2375.0
3114.71,2375.55
3118.73,2368.7
3122.75,2374.05
3126.77,2374.4
3130.78,2362.8
3134.79,2358.25
3138.8,2359.85
3142.81,2370.35
3146.81,2331.55
3150.82,2349.55
3154.82,2355.75
3158.81,2366.15
3162.81,2354.1
3166.8,2337.85
3170.79,2354.75
3174.78,2361.2
3178.77,2353.3
3182.75,2338.05
3186.74,2349.3
3190.72,2352.8
3194.69,2331.15
3198.67,2356.05
3202.64,2361.3
3206.61,2329.1
3210.58,2356.9
3214.55,2331.5
3218.51,2356.05
3222.47,2327.95
3226.43,2336.9
3230.39,2356.55
3234.35,2330.85
3238.3,2342.95
3242.25,2340.4
3246.2,2335.55
3250.15,2325.65
3254.09,2320.2
3258.03,2320.2
3261.97,2310.8
3265.91,2317.45
3269.84,2307.25
3273.78,2314.7
3277.71,2302.45
3281.64,2316.6
3285.56,2278.75
3289.49,2289.1
3293.41,2323.8
3297.33,2317.25
3301.25,2289.75
3305.16,2290.7
3309.07,2285.05
3312.99,2289.75
3316.89,2279.0
3320.8,2301.3
3324.7,2286.2
3328.61,2273.7
3332.51,2272.85
3336.4,2279.75
3340.3,2275.55
3344.19,2290.7
3348.08,2265.1
3351.97,2277.15
3355.86,2275.9
3359.74,2270.7
3363.63,2280.75
3367.51,2258.1
3371.39,2256.25
3375.26,2261.9
3379.13,2268.25
3383.01,2254.35
3386.88,2261.45
3390.74,2259.55
3394.61,2237.75
3398.47,2255.0
3402.33,2258.05
3406.19,2260.85
3410.05,2248.15
3413.9,2252.35
3417.75,2259.1
3421.6,2245.15
3425.45,2235.15
3429.3,2235.2
3433.14,2247.35
3436.98,2234.2
3440.82,2236.65
3444.66,2228.15
3448.49,2230.25
3452.32,2232.35
3456.15,2222.95
3459.98,2234.85
3463.81,2235.4
3467.63,2216.7
3471.46,2216.4
3475.28,2241.95
3479.09,2232.1
3482.91,2219.8
3486.72,2216.65
3490.53,2213.9
3494.34,2202.4
3498.15,2210.05
3501.96,2213.4
3505.76,2192.2
3509.56,2208.0
3513.36,2203.8
3517.15,2212.3
3520.95,2206.65
3524.74,2196.1
3528.53,2195.65
3532.32,2203.0
3536.11,2196.1
3539.89,2201.5
3543.67,2193.15
3547.45,2191.55
3551.23,2189.4
3555.0,2192.85
3558.78,2188.55
3562.55,2189.85
3566.32,2191.7
3570.09,2190.85
3573.85,2174.6
3577.61,2192.25
3581.37,2177.4
3585.13,2168.35
3588.89,2179.45
3592.64,2173.5
3596.4,2183.6
3600.15,2169.35
3603.9,2173.7
3607.64,2172.25
3611.39,2160.85
3615.13,2155.1
3618.87,2173.3
3622.61,2157.1
3626.34,2153.0
3630.08,2165.45
3633.81,2156.95
3637.54,2143.6
3641.27,2152.25
3644.99,2156.45
3648.72,2145.65
3652.44,2144.25
3656.16,2142.6
3659.87,2154.9
3663.59,2140.75
3665.45,2133.95