File: spectra/VLFR_02-HDPE_bio_Raman_37f9e83a.csv
nm,Intensity
526.549,830.55
526.686,831.55
526.823,830.55
526.959,830.65
527.096,830.45
527.233,831.25
527.37,830.35
527.506,829.6
527.643,829.95
527.78,830.15
527.917,830.35
528.053,830.4
528.19,831.1
528.327,830.2
528.463,830.8
528.6,829.75
528.737,829.65
528.873,831.0
529.01,829.85
529.147,830.5
529.283,830.7
529.42,830.4
529.556,829.65
529.693,830.6
529.83,831.1
529.966,829.8
530.103,830.45
530.239,830.5
530.376,831.25
530.512,830.65
530.649,830.35
530.785,831.55
530.922,830.6
531.058,831.05
531.195,829.9
531.331,830.05
531.468,829.6
531.604,830.7
531.741,831.0
531.877,830.3
532.014,842.2
532.15,886.6
532.287,875.8
532.423,838.55
532.559,830.75
532.696,830.85
532.832,831.25
532.968,830.6
533.105,830.4
533.241,830.15
533.378,830.35
533.514,830.3
533.65,832.35
533.787,837.95
533.923,862.3
534.059,888.35
534.196,892.75
534.332,891.55
534.468,887.65
534.604,886.45
534.741,885.85
534.877,886.25
535.013,886.65
535.149,883.15
535.286,879.5
535.422,875.75
535.558,869.6
535.694,866.0
535.83,862.35
535.967,860.35
536.103,858.2
536.239,856.95
536.375,855.55
536.511,856.85
536.647,855.55
536.784,854.1
536.92,854.65
537.056,852.65
537.192,853.2
537.328,852.25
537.464,852.45
537.6,854.25
537.736,854.0
537.872,852.5
538.008,853.35
538.145,853.45
538.281,853.7
538.417,851.4
538.553,851.7
538.689,849.8
538.825,850.0
538.961,849.2
539.097,847.75
539.233,848.7
539.369,848.2
539.505,847.3
539.641,846.8
539.777,846.5
539.912,846.9
540.048,846.7
540.184,845.35
540.32,846.25
540.456,845.55
540.592,845.9
540.728,843.9
540.864,846.75
541.0,845.15
541.136,844.7
541.271,845.75
541.407,843.85
541.543,844.65
541.679,843.95
541.815,846.55
541.951,845.35
542.087,845.3
542.222,845.35
542.358,846.2
542.494,844.15
542.63,846.3
542.765,844.05
542.901,845.75
543.037,844.7
543.173,844.55
543.308,846.6
543.444,845.0
543.58,843.9
543.716,845.4
543.851,845.8
543.987,846.2
544.123,844.75
544.258,844.9
544.394,844.65
544.53,845.1
544.665,844.15
544.801,845.1
544.937,843.8
545.072,845.75
545.208,844.85
545.344,843.95
545.479,845.1
545.615,844.1
545.75,845.35
545.886,844.8
546.022,844.5
546.157,846.45
546.293,843.8
546.428,846.4
546.564,845.95
546.699,845.65
546.835,844.4
546.971,843.55
547.106,846.9
547.242,845.4
547.377,846.05
547.513,845.95
547.648,844.5
547.784,844.7
547.919,845.6
548.054,846.25
548.19,845.8
548.325,846.2
548.461,845.9
548.596,845.7
548.732,844.25
548.867,844.3
549.003,844.05
549.138,845.3
549.273,844.95
549.409,845.75
549.544,844.9
549.679,845.55
549.815,844.35
549.95,845.05
550.086,845.05
550.221,844.45
550.356,843.9
550.492,845.85
550.627,845.65
550.762,843.25
550.898,845.35
551.033,844.4
551.168,845.95
551.303,844.8
551.439,844.7
551.574,845.35
551.709,845.15
551.844,845.3
551.98,845.2
552.115,845.2
552.25,845.7
552.385,846.1
552.521,843.25
552.656,845.85
552.791,845.95
552.926,846.75
553.061,846.2
553.197,846.55
553.332,848.1
553.467,847.9
553.602,847.85
553.737,847.5
553.872,847.6
554.007,849.7
554.143,848.5
554.278,848.45
554.413,848.65
554.548,848.15
554.683,848.35
554.818,846.8
554.953,849.45
555.088,848.5
555.223,849.2
555.358,849.2
555.493,848.25
555.629,848.95
555.764,847.8
555.899,848.85
556.034,848.55
556.169,848.1
556.304,849.65
556.439,850.05
556.574,850.8
556.709,850.25
556.844,850.0
556.979,851.45
557.114,851.55
557.248,852.55
557.383,853.2
557.518,852.35
557.653,853.75
557.788,853.85
557.923,852.7
558.058,854.55
558.193,853.75
558.328,852.6
558.463,855.0
558.598,854.1
558.733,852.85
558.867,853.25
559.002,852.1
559.137,852.9
559.272,851.7
559.407,852.25
559.542,851.25
559.677,854.15
559.811,853.2
559.946,853.4
560.081,851.85
560.216,852.3
560.351,851.85
560.485,852.0
560.62,852.9
560.755,851.6
560.89,850.3
561.024,852.25
561.159,852.5
561.294,850.95
561.429,851.45
561.563,851.05
561.698,852.65
561.833,853.5
561.968,854.2
562.102,852.7
562.237,853.85
562.372,853.7
562.506,853.9
562.641,854.45
562.776,856.75
562.91,856.15
563.045,857.8
563.18,856.95
563.314,857.65
563.449,858.1
563.584,862.5
563.718,868.0
563.853,888.2
563.987,955.3
564.122,977.1
564.257,914.6
564.391,878.65
564.526,875.4
564.66,871.0
564.795,872.6
564.93,869.75
565.064,868.85
565.199,866.25
565.333,865.4
565.468,864.1
565.602,865.25
565.737,870.6
565.871,876.5
566.006,910.85
566.14,988.65
566.275,1015.45
566.409,928.4
566.544,878.3
566.678,865.85
566.813,862.25
566.947,863.35
567.082,860.7
567.216,860.15
567.351,864.35
567.485,874.95
567.619,873.35
567.754,861.45
567.888,856.9
568.023,857.8
568.157,856.7
568.291,857.55
568.426,856.6
568.56,855.1
568.695,856.3
568.829,856.15
568.963,857.05
569.098,856.55
569.232,858.6
569.366,858.55
569.501,859.55
569.635,859.25
569.769,858.75
569.904,860.3
570.038,857.95
570.172,860.25
570.307,861.2
570.441,863.55
570.575,865.7
570.709,866.4
570.844,867.0
570.978,867.1
571.112,870.4
571.247,875.65
571.381,906.55
571.515,1026.95
571.649,1068.45
571.783,938.35
571.918,891.65
572.052,883.0
572.186,875.85
572.32,870.8
572.455,870.25
572.589,866.6
572.723,864.75
572.857,863.3
572.991,863.0
573.125,864.55
573.26,862.1
573.394,862.75
573.528,863.25
573.662,865.6
573.796,868.9
573.93,874.1
574.064,875.3
574.199,869.5
574.333,866.15
574.467,863.1
574.601,862.95
574.735,864.9
574.869,864.5
575.003,866.35
575.137,866.95
575.271,873.5
575.405,900.95
575.539,961.05
575.673,956.05
575.807,915.55
575.941,909.7
576.075,927.9
576.209,963.5
576.344,997.45
576.478,978.1
576.612,946.45
576.746,938.5
576.88,940.4
577.014,946.6
577.147,942.5
577.281,927.95
577.415,912.2
577.549,900.75
577.683,891.25
577.817,886.95
577.951,884.5
578.085,883.0
578.219,882.55
578.353,882.2
578.487,881.5
578.621,881.0
578.755,881.55
578.889,883.3
579.023,883.8
579.156,883.9
579.29,884.4
579.424,884.1
579.558,888.45
579.692,885.85
579.826,887.15
579.96,886.7
580.094,889.6
580.227,887.2
580.361,886.2
580.495,888.85
580.629,889.9
580.763,889.2
580.897,894.45
581.03,890.7
581.164,889.75
581.298,892.05
581.432,892.4
581.565,893.05
581.699,894.45
581.833,897.1
581.967,893.9
582.101,897.0
582.234,898.35
582.368,896.3
582.502,897.0
582.636,898.95
582.769,899.65
582.903,898.0
583.037,899.55
583.17,900.35
583.304,901.65
583.438,900.35
583.572,901.85
583.705,901.15
583.839,902.5
583.973,904.1
584.106,903.55
584.24,905.4
584.374,903.45
584.507,906.55
584.641,908.9
584.775,909.45
584.908,908.3
585.042,907.6
585.175,910.75
585.309,910.1
585.443,914.05
585.576,912.15
585.71,914.9
585.844,914.85
585.977,914.35
586.111,912.45
586.244,915.4
586.378,915.4
586.511,916.35
586.645,919.35
586.779,922.85
586.912,920.55
587.046,922.7
587.179,922.95
587.313,922.75
587.446,922.6
587.58,925.6
587.713,927.35
587.847,926.7
587.98,926.3
588.114,927.55
588.247,929.2
588.381,930.3
588.514,931.85
588.648,932.35
588.781,930.25
588.915,931.55
589.048,933.95
589.182,932.2
589.315,936.55
589.449,939.15
589.582,935.6
589.716,936.8
589.849,937.7
589.982,939.6
590.116,940.1
590.249,940.0
590.383,940.6
590.516,943.7
590.65,944.75
590.783,943.7
590.916,944.7
591.05,943.65
591.183,946.95
591.316,950.25
591.45,947.55
591.583,950.6
591.717,950.0
591.85,951.0
591.983,947.95
592.117,950.0
592.25,953.2
592.383,956.75
592.517,953.4
592.65,951.4
592.783,954.0
592.917,954.15
593.05,954.3
593.183,954.65
593.316,955.2
593.45,956.95
593.583,955.75
593.716,956.4
593.85,959.1
593.983,958.35
594.116,958.35
594.249,959.65
594.383,959.35
594.516,958.5
594.649,960.35
594.782,957.95
594.916,956.45
595.049,960.9
595.182,961.5
595.315,959.7
595.449,960.0
595.582,961.55
595.715,963.9
595.848,962.7
595.981,966.15
596.115,960.5
596.248,965.15
596.381,963.35
596.514,962.35
596.647,964.65
596.78,964.3
596.914,965.7
597.047,966.5
597.18,967.9
597.313,966.75
597.446,967.2
597.579,966.1
597.712,966.85
597.846,970.15
597.979,968.05
598.112,966.7
598.245,970.8
598.378,968.05
598.511,968.3
598.644,965.2
598.777,967.1
598.91,971.15
599.043,968.8
599.177,972.3
599.31,968.9
599.443,969.55
599.576,972.75
599.709,967.8
599.842,972.7
599.975,971.8
600.108,968.1
600.241,971.15
600.374,968.05
600.507,968.95
600.64,966.9
600.773,970.7
600.906,966.1
601.039,970.25
601.172,967.8
601.305,965.75
601.438,968.25
601.571,967.45
601.704,969.5
601.837,967.4
601.97,969.5
602.103,969.3
602.236,969.35
602.369,968.5
602.502,963.4
602.635,966.65
602.768,965.55
602.901,962.9
603.034,963.75
603.166,962.0
603.299,963.45
603.432,962.65
603.565,959.75
603.698,959.1
603.831,960.95
603.964,959.8
604.097,962.3
604.23,959.3
604.363,957.05
604.496,956.55
604.628,953.8
604.761,953.75
604.894,954.95
605.027,951.55
605.16,951.0
605.293,951.0
605.426,949.65
605.558,946.4
605.691,946.3
605.824,945.5
605.957,945.2
606.09,946.3
606.223,942.55
606.355,942.3
606.488,942.7
606.621,940.45
606.754,942.45
606.887,939.8
607.019,940.3
607.152,940.45
607.285,941.65
607.418,935.65
607.551,937.3
607.683,938.35
607.816,937.1
607.949,937.85
608.082,936.9
608.214,937.95
608.347,933.8
608.48,936.55
608.613,936.75
608.745,935.7
608.878,930.8
609.011,933.7
609.143,932.3
609.276,932.6
609.409,931.45
609.542,929.15
609.674,927.4
609.807,929.75
609.94,928.15
610.072,927.55
610.205,928.65
610.338,926.9
610.47,928.05
610.603,926.25
610.736,925.8
610.868,925.7
611.001,927.35
611.134,928.0
611.266,926.2
611.399,929.1
611.532,925.85
611.664,925.5
611.797,923.25
611.93,922.55
612.062,921.2
612.195,922.65
612.327,922.5
612.46,923.2
612.593,922.9
612.725,923.6
612.858,920.8
612.99,920.85
613.123,922.25
613.256,921.9
613.388,920.8
613.521,919.0
613.653,919.95
613.786,921.2
613.919,918.35
614.051,918.5
614.184,919.65
614.316,919.0
614.449,919.1
614.581,916.65
614.714,917.5
614.846,919.1
614.979,914.1
615.111,916.45
615.244,916.7
615.376,917.95
615.509,915.3
615.641,913.5
615.774,917.1
615.906,914.35
616.039,915.8
616.171,914.3
616.304,915.2
616.436,916.4
616.569,915.35
616.701,916.1
616.834,917.05
616.966,920.75
617.099,922.75
617.231,920.0
617.364,918.8
617.496,918.55
617.629,916.25
617.761,919.85
617.894,922.25
618.026,919.75
618.158,919.35
618.291,920.0
618.423,917.85
618.556,918.3
618.688,916.0
618.82,918.3
618.953,915.75
619.085,914.55
619.218,917.25
619.35,918.55
619.482,919.6
619.615,921.45
619.747,922.5
619.88,918.15
620.012,923.35
620.144,919.1
620.277,919.45
620.409,918.05
620.541,917.1
620.674,920.75
620.806,918.05
620.939,921.25
621.071,921.3
621.203,925.95
621.336,928.65
621.468,928.8
621.6,937.05
621.733,941.1
621.865,946.15
621.997,950.95
622.13,958.4
622.262,965.35
622.394,966.0
622.526,963.0
622.659,954.35
622.791,943.5
622.923,932.6
623.056,926.35
623.188,924.4
623.32,923.0
623.452,920.05
623.585,919.2
623.717,919.8
623.849,918.05
623.981,916.25
624.114,917.75
624.246,917.05
624.378,915.7
624.511,915.8
624.643,916.4
624.775,917.3
624.907,918.6
625.039,918.5
625.172,917.65
625.304,920.8
625.436,921.75
625.568,923.5
625.701,925.65
625.833,928.5
625.965,935.3
626.097,939.65
626.229,947.6
626.362,961.55
626.494,985.75
626.626,1037.0
626.758,1118.9
626.89,1262.5
627.022,1455.85
627.155,1639.75
627.287,1698.9
627.419,1627.2
627.551,1509.05
627.683,1419.0
627.815,1362.25
627.948,1324.55
628.08,1316.2
628.212,1341.1
628.344,1422.85
628.476,1632.2
628.608,1788.65
628.74,1577.25
628.873,1383.65
629.005,1320.25
629.137,1296.35
629.269,1284.0
629.401,1260.0
629.533,1229.65
629.665,1193.2
629.797,1169.85
629.929,1147.95
630.061,1133.5
630.194,1131.35
630.326,1131.3
630.458,1124.1
630.59,1111.65
630.722,1087.0
630.854,1058.4
630.986,1027.0
631.118,994.25
631.25,968.55
631.382,950.2
631.514,943.45
631.646,936.6
631.778,936.05
631.91,931.15
632.042,928.25
632.175,926.2
632.307,926.3
632.439,922.7
632.571,919.5
632.703,917.3
632.835,918.6
632.967,919.2
633.099,916.1
633.231,917.7
633.363,916.8
633.495,914.3
633.627,912.05
633.759,912.65
633.891,915.0
634.023,914.15
634.155,911.95
634.287,911.5
634.419,911.4
634.551,908.45
634.683,910.8
634.815,910.7
634.947,910.1
635.079,908.35
635.21,911.35
635.342,909.9
635.474,909.45
635.606,905.65
635.738,908.5
635.87,905.85
636.002,907.2
636.134,909.7
636.266,906.45
636.398,906.05
636.53,909.0
636.662,907.25
636.794,908.65
636.926,908.0
637.058,907.2
637.19,906.35
637.321,904.9
637.453,905.6
637.585,904.7
637.717,903.6
637.849,902.8
637.981,903.0
638.113,903.5
638.245,900.9
638.377,902.5
638.509,905.35
638.64,903.55
638.772,901.75
638.904,904.8
639.036,903.75
639.168,903.05
639.3,904.55
639.432,902.5
639.563,905.3
639.695,903.0
639.827,903.45
639.959,903.4
640.091,904.55
640.223,904.55
640.355,906.55
640.486,904.45
640.618,902.55
640.75,904.25
640.882,904.7
641.014,904.6
641.146,904.15
641.277,902.75
641.409,905.3
641.541,904.25
641.673,900.95
641.805,902.65
641.936,903.3
642.068,904.9
642.2,903.4
642.332,907.55
642.464,903.9
642.595,906.25
642.727,905.4
642.859,901.5
642.991,904.2
643.123,903.15
643.254,902.55
643.386,902.65
643.518,900.55
643.65,904.0
643.781,902.4
643.913,902.25
644.045,903.65
644.177,902.55
644.309,900.55
644.44,901.95
644.572,901.45
644.704,904.35
644.836,902.95
644.967,898.85
645.099,903.15
645.231,902.85
645.362,900.8
645.494,900.6
645.626,898.9
645.758,902.55
645.889,901.8
646.021,900.35
646.153,900.5
646.285,902.45
646.416,901.35
646.548,902.75
646.68,900.75
646.811,900.2
646.943,901.85
647.075,900.85
647.206,901.25
647.338,901.55
647.47,900.45
647.602,900.75
647.733,900.9
647.865,900.25
647.997,901.55
648.128,902.05
648.26,898.75
648.392,900.55
648.523,901.95
648.655,901.45
648.787,900.9
648.918,900.45
649.05,903.1
649.182,898.75
649.313,897.3
649.445,899.0
649.577,898.1
649.708,898.35
649.84,901.1
649.972,900.05
650.103,899.25
650.235,899.25
650.366,898.4
650.498,899.0
650.63,897.35
650.761,897.95
650.893,897.75
651.025,900.25
651.156,896.7
651.288,896.75
651.419,898.8
651.551,896.6
651.683,894.75
651.814,899.15
651.946,897.75
652.077,896.95
652.209,898.4
652.341,899.15
652.472,897.0
652.604,898.0
652.735,899.25
652.867,899.55
652.999,898.1
653.13,897.55
653.262,895.8
653.393,897.05
653.525,897.35
653.657,899.3
653.788,896.2
653.92,897.7
654.051,898.35
654.183,896.9
654.314,896.55
654.446,896.6
654.578,894.8
654.709,895.55
654.841,895.7
654.972,894.8
655.104,894.85
655.235,893.65
655.367,896.95
655.498,896.4
655.63,896.15
655.762,896.7
655.893,893.8
656.025,893.2
656.156,891.9
656.288,889.85
656.419,892.15
656.551,892.9
656.682,891.4
656.814,893.2
656.945,891.1
657.077,893.1
657.208,890.3
657.34,892.9
657.471,891.55
657.603,891.8
657.734,892.0
657.866,891.8
657.997,889.85
658.129,892.15
658.26,891.55
658.392,891.85
658.523,889.75
658.655,888.65
658.786,889.25
658.918,890.95
659.049,889.1
659.181,888.4
659.312,888.3
659.444,888.9
659.575,888.9
659.707,887.75
659.838,889.85
659.97,887.7
660.101,888.15
660.233,887.85
660.364,890.1
660.496,886.5
660.627,885.8
660.759,886.4
660.89,885.1
661.022,883.5
661.153,884.45
661.285,882.95
661.416,885.65
661.547,882.1
661.679,883.2
661.81,882.4
661.942,882.0
662.073,881.75
662.205,880.55
662.336,881.75
662.468,880.6
662.599,881.1
662.731,881.8
662.862,881.3
662.993,879.2
663.125,879.4