File: spectra/VLFR_07-PET_bio_Raman_9a128a40.csv
nm,Intensity
791.377,11735.5
791.652,11763.8
791.927,11410.8
792.202,11232.5
792.477,11184.8
792.752,11141.3
793.027,10920.2
793.301,10876.3
793.576,10840.3
793.851,10516.6
794.126,10422.2
794.401,10400.2
794.676,10355.4
794.951,10270.6
795.225,10223.1
795.5,10171.0
795.775,10043.0
796.05,10094.7
796.325,10037.4
796.599,10261.3
796.874,10000.5
797.149,9916.6
797.424,9978.74
797.698,10007.8
797.973,9950.48
798.248,9976.84
798.523,9867.5
798.797,9925.14
799.072,10011.1
799.347,9909.24
799.622,9840.04
799.896,9869.2
800.171,9841.66
800.446,9780.3
800.72,9908.52
800.995,9926.7
801.27,9799.06
801.544,9741.1
801.819,9770.48
802.094,9830.34
802.368,9873.58
802.643,9961.56
802.918,9839.6
803.192,9780.62
803.467,9665.62
803.742,9665.7
804.016,9541.12
804.291,9553.56
804.565,9516.88
804.84,9460.02
805.114,9523.04
805.389,9501.9
805.664,9478.74
805.938,9440.98
806.213,9428.36
806.487,9477.6
806.762,9434.92
807.036,9358.06
807.311,9333.68
807.585,9351.3
807.86,9326.52
808.134,9250.4
808.409,9276.56
808.683,9213.82
808.958,9184.88
809.232,9096.28
809.507,9124.04
809.781,9101.24
810.056,9100.48
810.33,9165.46
810.605,9053.26
810.879,9040.14
811.153,8973.4
811.428,8925.9
811.702,9017.4
811.977,8970.44
812.251,8901.42
812.525,8888.8
812.8,8840.96
813.074,8796.04
813.349,8721.6
813.623,8659.04
813.897,8772.64
814.172,8730.96
814.446,8498.3
814.72,8493.7
814.995,8546.6
815.269,8602.78
815.543,8566.88
815.818,8502.06
816.092,8457.12
816.366,8469.88
816.64,8363.54
816.915,8450.16
817.189,8430.98
817.463,8401.94
817.737,8358.66
818.012,8322.98
818.286,8310.4
818.56,8317.04
818.834,8267.68
819.109,8208.58
819.383,8219.18
819.657,8228.86
819.931,8281.4
820.205,8277.84
820.48,8356.34
820.754,8326.76
821.028,8292.12
821.302,8203.2
821.576,8215.62
821.85,8123.04
822.125,8099.48
822.399,8046.8
822.673,7918.16
822.947,7849.88
823.221,7901.06
823.495,8001.8
823.769,8054.82
824.043,7950.42
824.317,7999.1
824.591,8024.42
824.865,8034.52
825.14,8048.64
825.414,8101.96
825.688,8134.9
825.962,8095.92
826.236,8022.7
826.51,8071.86
826.784,8026.72
827.058,7877.44
827.332,7797.64
827.606,7739.34
827.88,7696.06
828.154,7776.18
828.428,7739.9
828.702,7749.32
828.976,7761.22
829.249,7760.48
829.523,7791.16
829.797,7696.24
830.071,7644.56
830.345,7702.52
830.619,7736.74
830.893,7744.72
831.167,7737.18
831.441,7643.94
831.715,7568.76
831.988,7603.14
832.262,7612.7
832.536,7561.12
832.81,7490.46
833.084,7460.98
833.358,7511.32
833.632,7518.28
833.905,7573.54
834.179,7496.74
834.453,7463.66
834.727,7460.14
835.001,7409.78
835.274,7449.84
835.548,7405.66
835.822,7400.6
836.096,7399.46
836.369,7491.96
836.643,7487.92
836.917,7454.08
837.191,7449.56
837.464,7480.34
837.738,7445.54
838.012,7465.64
838.285,7424.68
838.559,7428.24
838.833,7362.54
839.106,7353.2
839.38,7416.9
839.654,7319.0
839.927,7271.06
840.201,7306.0
840.475,7392.14
840.748,7433.88
841.022,7559.02
841.295,7700.24
841.569,7775.82
841.843,7702.04
842.116,7545.34
842.39,7380.14
842.663,7338.06
842.937,7308.1
843.211,7252.02
843.484,7173.64
843.758,7129.96
844.031,7118.04
844.305,7131.24
844.578,7060.02
844.852,7080.92
845.125,7101.8
845.399,7054.58
845.672,7045.54
845.946,7087.18
846.219,6972.98
846.493,6921.7
846.766,6924.8
847.039,6986.72
847.313,6968.44
847.586,6939.46
847.86,6952.88
848.133,6924.74
848.407,7004.62
848.68,6954.56
848.953,6844.0
849.227,6779.92
849.5,6806.32
849.773,6856.78
850.047,6849.62
850.32,6775.34
850.593,6786.66
850.867,6847.3
851.14,6879.48
851.413,6851.98
851.687,6833.96
851.96,6862.12
852.233,6850.48
852.507,6804.38
852.78,6782.72
853.053,6767.74
853.326,6740.08
853.6,6648.1
853.873,6591.0
854.146,6563.28
854.419,6581.04
854.693,6549.4
854.966,6539.58
855.239,6618.5
855.512,6660.24
855.785,6666.68
856.059,6666.6
856.332,6638.62
856.605,6621.02
856.878,6589.96
857.151,6552.8
857.424,6647.24
857.698,6673.28
857.971,6713.06
858.244,6693.52
858.517,6745.36
858.79,6776.84
859.063,6786.9
859.336,6762.7
859.609,6634.02
859.882,6589.68
860.155,6617.9
860.428,6602.36
860.701,6580.12
860.974,6578.32
861.247,6538.46
861.52,6527.48
861.793,6449.62
862.066,6426.18
862.339,6388.18
862.612,6379.2
862.885,6418.26
863.158,6377.96
863.431,6362.86
863.704,6366.24
863.977,6369.54
864.25,6375.98
864.523,6435.86
864.796,6438.38
865.069,6419.7
865.342,6369.24
865.615,6304.04
865.888,6292.24
866.16,6230.4
866.433,6165.06
866.706,6210.84
866.979,6212.22
867.252,6193.02
867.525,6205.16
867.798,6188.52
868.07,6203.3
868.343,6194.48
868.616,6204.0
868.889,6231.16
869.162,6175.62
869.434,6203.62
869.707,6226.0
869.98,6245.6
870.253,6233.56
870.525,6209.74
870.798,6135.42
871.071,6231.68
871.344,6305.06
871.616,6320.38
871.889,6294.2
872.162,6309.28
872.434,6364.92
872.707,6426.66
872.98,6421.96
873.252,6468.54
873.525,6418.44
873.798,6415.32
874.07,6341.66
874.343,6300.98
874.615,6251.02
874.888,6177.28
875.161,6138.52
875.433,6119.72
875.706,6050.7
875.978,6065.8
876.251,6067.22
876.524,6020.2
876.796,5993.52
877.069,5984.84
877.341,5973.52
877.614,5992.16
877.886,5997.1
878.159,5960.74
878.431,5940.56
878.704,5986.46
878.976,5947.32
879.249,5963.56
879.521,5936.9
879.794,5901.84
880.066,5856.7
880.338,5826.12
880.611,5863.64
880.883,5899.68
881.156,5894.22
881.428,5842.1
881.7,5850.66
881.973,5853.82
882.245,5899.34
882.518,5856.28
882.79,5823.9
883.062,5844.34
883.335,5859.8
883.607,5846.76
883.879,5861.12
884.152,5835.82
884.424,5823.64
884.696,5783.4
884.968,5782.86
885.241,5836.16
885.513,5843.46
885.785,5743.22
886.058,5721.48
886.33,5760.12
886.602,5759.52
886.874,5759.86
887.146,5753.72
887.419,5751.94
887.691,5672.92
887.963,5658.06
888.235,5660.64
888.507,5660.12
888.78,5645.1
889.052,5610.74
889.324,5621.6
889.596,5633.52
889.868,5620.04
890.14,5609.8
890.412,5622.72
890.684,5644.64
890.957,5627.64
891.229,5624.84
891.501,5623.46
891.773,5591.46
892.045,5593.08
892.317,5612.32
892.589,5589.46
892.861,5527.8
893.133,5474.4
893.405,5493.32
893.677,5500.58
893.949,5475.92
894.221,5451.36
894.493,5460.64
894.765,5461.86
895.037,5444.26
895.309,5365.54
895.581,5357.44
895.853,5421.86
896.125,5410.22
896.397,5389.32
896.668,5358.32
896.94,5383.84
897.212,5401.98
897.484,5462.58
897.756,5565.98
898.028,5709.9
898.3,5811.64
898.571,5832.84
898.843,5825.74
899.115,5734.58
899.387,5670.92
899.659,5554.52
899.931,5431.66
900.202,5329.38
900.474,5278.44
900.746,5244.12
901.018,5212.2
901.289,5166.44
901.561,5169.0
901.833,5201.78
902.105,5195.26
902.376,5169.74
902.648,5193.14
902.92,5167.3
903.191,5169.06
903.463,5210.38
903.735,5219.1
904.006,5168.12
904.278,5162.3
904.55,5202.72
904.821,5198.68
905.093,5183.38
905.365,5177.84
905.636,5190.56
905.908,5160.48
906.179,5150.98
906.451,5192.66
906.722,5232.04
906.994,5295.32
907.266,5357.86
907.537,5387.9
907.809,5410.28
908.08,5408.0
908.352,5401.48
908.623,5374.34
908.895,5302.82
909.166,5226.74
909.438,5137.72
909.709,5097.6
909.981,5053.28
910.252,5022.22
910.523,5019.04
910.795,5015.76
911.066,4975.74
911.338,4970.66
911.609,4982.7
911.881,4943.4
912.152,4921.56
912.423,4891.8
912.695,4893.88
912.966,4883.36
913.237,4888.44
913.509,4878.28
913.78,4865.64
914.051,4858.2
914.323,4852.0
914.594,4845.62
914.865,4836.8
915.136,4841.8
915.408,4838.98
915.679,4841.88
915.95,4830.34
916.221,4807.24
916.493,4799.28
916.764,4806.62
917.035,4807.94
917.306,4800.86
917.578,4786.74
917.849,4773.3
918.12,4767.62
918.391,4753.72
918.662,4757.36
918.933,4766.48
919.204,4769.18
919.476,4788.78
919.747,4794.24
920.018,4780.0
920.289,4768.44
920.56,4741.5
920.831,4725.66
921.102,4726.56
921.373,4727.96
921.644,4697.98
921.915,4707.7
922.186,4714.8
922.457,4693.9
922.728,4689.4
922.999,4690.84
923.27,4685.52
923.541,4663.28
923.812,4644.32
924.083,4625.34
924.354,4633.64
924.625,4639.18
924.896,4626.86
925.167,4636.12
925.438,4637.76
925.709,4645.16
925.98,4613.52
926.251,4618.06
926.522,4618.96
926.792,4599.82
927.063,4589.08
927.334,4575.66
927.605,4568.74
927.876,4563.66
928.147,4543.96
928.417,4540.18
928.688,4512.4
928.959,4499.04
929.23,4475.16
929.501,4480.14
929.771,4467.52
930.042,4452.54
930.313,4459.78
930.584,4451.14
930.854,4422.48
931.125,4409.74
931.396,4396.52
931.666,4384.86
931.937,4372.52
932.208,4385.7
932.478,4372.96
932.749,4363.48
933.02,4354.56
933.29,4343.0
933.561,4326.4
933.832,4324.94
934.102,4320.44
934.373,4305.52
934.643,4301.28
934.914,4313.52
935.184,4309.02
935.455,4308.34
935.726,4304.54
935.996,4301.14
936.267,4307.62
936.537,4293.22
936.808,4271.12
937.078,4276.04
937.349,4287.22
937.619,4281.32
937.89,4277.62
938.16,4275.44
938.43,4279.06
938.701,4284.62
938.971,4291.9
939.242,4293.0
939.512,4300.46
939.782,4304.82
940.053,4294.3
940.323,4293.32
940.594,4282.22
940.864,4284.42
941.134,4263.68
941.405,4256.38
941.675,4250.92
941.945,4249.7
942.216,4242.02
942.486,4240.26
942.756,4237.52
943.026,4223.52
943.297,4212.14
943.567,4199.5
943.837,4194.92
944.107,4200.98
944.378,4205.36
944.648,4211.86
944.918,4195.34
945.188,4197.14
945.458,4201.58
945.729,4193.36
945.999,4184.96
946.269,4186.06
946.539,4178.28
946.809,4177.94
947.079,4181.18
947.349,4177.62
947.62,4169.5
947.89,4169.62
948.16,4171.26
948.43,4171.58
948.7,4166.64
948.97,4156.98
949.24,4145.02
949.51,4152.44
949.78,4150.74
950.05,4147.08
950.32,4149.18
950.59,4155.78
950.86,4160.08
951.13,4144.92
951.4,4141.38
951.67,4138.42
951.94,4131.6
952.21,4125.5
952.48,4115.32
952.75,4116.7
953.02,4120.62
953.289,4113.22
953.559,4116.18
953.829,4108.36
954.099,4107.02
954.369,4105.48
954.639,4110.84
954.909,4105.22
955.178,4105.34
955.448,4107.22
955.718,4101.8
955.988,4099.62
956.257,4098.36
956.527,4094.94
956.797,4096.82
957.067,4094.5
957.336,4087.46
957.606,4088.58
957.876,4080.94
958.146,4077.44
958.415,4066.0
958.685,4066.66
958.955,4078.84
959.224,4080.34
959.494,4080.74
959.764,4073.38
960.033,4070.24
960.303,4070.94
960.572,4068.3
960.842,4071.32
961.112,4058.08
961.381,4062.2
961.651,4056.84
961.92,4057.0
962.19,4063.5
962.459,4058.88
962.729,4059.92
962.998,4053.88
963.268,4040.98
963.537,4038.5
963.807,4040.3
964.076,4044.68
964.346,4047.52
964.615,4042.52
964.885,4046.08
965.154,4038.54
965.424,4029.9
965.693,4035.52
965.962,4037.16
966.232,4032.76
966.501,4030.92
966.771,4030.88
967.04,4030.2
967.309,4031.7
967.579,4033.12
967.848,4046.74
968.117,4046.74
968.387,4037.24
968.656,4027.76
968.925,4026.22
969.194,4026.24
969.464,4032.56
969.733,4029.72
970.002,4032.16
970.271,4030.38
970.541,4037.58
970.81,4022.88
971.079,4018.66
971.348,4018.26
971.617,4013.04
971.887,4010.14
972.156,4010.16
972.425,4012.3
972.694,4008.7
972.963,4005.22
973.232,4000.2
973.501,3999.32
973.77,3994.46
974.04,3992.28
974.309,3997.32
974.578,3992.26
974.847,3985.1
975.116,3975.4
975.385,3978.96
975.654,3981.6
975.923,3980.42
976.192,3983.04
976.461,3979.6
976.73,3980.02
976.999,3978.78
977.268,3976.6
977.537,3975.82
977.806,3977.22
978.074,3969.46
978.343,3971.9
978.612,3975.86
978.881,3973.22
979.15,3968.54
979.419,3964.28
979.688,3967.02
979.957,3968.8
980.225,3969.78
980.494,3966.42
980.763,3961.4
981.032,3960.14
981.301,3958.64
981.569,3962.1
981.838,3963.0
982.107,3964.6
982.376,3959.24
982.644,3958.98
982.913,3962.22
983.182,3959.64
983.451,3959.38
983.719,3954.82
983.988,3953.6
984.257,3955.86
984.525,3958.54
984.794,3954.88
985.063,3956.7
985.331,3958.94
985.6,3957.36
985.868,3955.72
986.137,3952.36
986.406,3947.76
986.674,3953.5
986.943,3947.12
987.211,3949.36
987.48,3947.1
987.748,3941.9
988.017,3941.12
988.285,3944.86
988.554,3944.34
988.822,3942.24
989.091,3939.66
989.359,3942.38
989.628,3938.96
989.896,3932.82
990.164,3934.6
990.433,3930.44
990.701,3931.76
990.97,3932.16
991.238,3931.74
991.506,3927.34
991.775,3925.74
992.043,3921.82
992.311,3927.26
992.58,3922.68
992.848,3920.84
993.116,3918.62
993.385,3921.4
993.653,3920.88
993.921,3920.36
994.19,3921.32
994.458,3918.98
994.726,3917.06
994.994,3914.1
995.262,3915.3
995.531,3914.36
995.799,3916.12
996.067,3912.04
996.335,3910.78
996.603,3907.0
996.872,3904.42
997.14,3904.3
997.408,3902.86
997.676,3899.82
997.944,3898.92
998.212,3901.16
998.48,3900.78
998.748,3903.44
999.016,3899.4
999.284,3901.38
999.552,3896.62
999.82,3895.28
1000.09,3893.48
1000.36,3893.46
1000.62,3892.16
1000.89,3889.82
1001.16,3892.24
1001.43,3890.98
1001.7,3891.3
1001.96,3888.04
1002.23,3887.22
1002.5,3883.14
1002.77,3882.64
1003.04,3880.58
1003.3,3875.92
1003.57,3879.74
1003.84,3879.9
1004.11,3879.44
1004.38,3881.04
1004.64,3878.76
1004.91,3874.2
1005.18,3872.52
1005.45,3869.52
1005.71,3867.4
1005.98,3868.42
1006.25,3868.04
1006.52,3866.82
1006.79,3864.72
1007.05,3864.34
1007.32,3865.48
1007.59,3866.56
1007.86,3867.34
1008.12,3868.3
1008.39,3865.82
1008.66,3863.94
1008.93,3860.74
1009.19,3859.12
1009.46,3857.14
1009.73,3856.06
1010.0,3854.3
1010.26,3852.02
1010.53,3854.4
1010.8,3855.64
1011.07,3856.96
1011.33,3855.84
1011.6,3853.78
1011.87,3855.28
1012.14,3853.16
1012.4,3851.3
1012.67,3850.72
1012.94,3847.22
1013.21,3846.12
1013.47,3844.84
1013.74,3846.66
1014.01,3847.36
1014.28,3847.32
1014.54,3846.96
1014.81,3845.54
1015.08,3847.02
1015.35,3841.0
1015.61,3841.84
1015.88,3842.0
1016.15,3841.64
1016.42,3840.74
1016.68,3841.54
1016.95,3840.54
1017.22,3841.0
1017.48,3840.64
1017.75,3841.66
1018.02,3839.74
1018.29,3839.68
1018.55,3838.28
1018.82,3836.52
1019.09,3834.6
1019.36,3835.68
1019.62,3833.64
1019.89,3832.02
1020.16,3831.16
1020.42,3832.64
1020.69,3830.76
1020.96,3833.92
1021.23,3833.82
1021.49,3834.76
1021.76,3836.96
1022.03,3836.22
1022.29,3833.94
1022.56,3832.52
1022.83,3830.92
1023.09,3830.28
1023.36,3830.66
1023.63,3828.92
1023.9,3830.3
1024.16,3831.94
1024.43,3830.36
1024.7,3828.02
1024.96,3828.94
1025.23,3828.14
1025.5,3828.66
1025.76,3825.04
1026.03,3824.46
1026.3,3821.3
1026.56,3822.72
1026.83,3820.26
1027.1,3817.96
1027.37,3817.72
1027.63,3818.88
1027.9,3818.6
1028.17,3816.36
1028.43,3819.0
1028.7,3818.0
1028.97,3816.98
1029.23,3817.02
1029.5,3816.32
1029.77,3814.48
1030.03,3812.32
1030.3,3812.18
1030.57,3810.86
1030.83,3812.46
1031.1,3812.02
1031.37,3810.86
1031.63,3812.68
1031.9,3811.58
1032.17,3812.8
1032.43,3811.48
1032.7,3810.76
1032.97,3812.4
1033.23,3813.36
1033.5,3812.42
1033.77,3809.42
1034.03,3811.18
1034.3,3809.26
1034.57,3810.84
1034.83,3811.22
1035.1,3812.52
1035.36,3811.72
1035.63,3813.76
1035.9,3813.58
1036.16,3813.24
1036.43,3812.78
1036.7,3810.06
1036.96,3808.04
1037.23,3807.88
1037.5,3805.64
1037.76,3804.12
1038.03,3804.82
1038.3,3802.86
1038.56,3803.94
1038.83,3803.56
1039.09,3803.7
1039.36,3803.62
1039.63,3806.2
1039.89,3805.48
1040.16,3805.7
1040.43,3803.96
1040.69,3802.28
1040.96,3801.96
1041.22,3799.16
1041.49,3799.56
1041.76,3799.22
1042.02,3797.96
1042.29,3799.16
1042.55,3799.96
1042.82,3800.64
1043.09,3799.9
1043.35,3801.8
1043.62,3802.28
1043.89,3800.96
1044.15,3800.38
1044.42,3798.58
1044.68,3796.58
1044.95,3796.32
1045.22,3795.34
1045.48,3794.78
1045.75,3794.64
1046.01,3795.42
1046.28,3795.66
1046.55,3797.32
1046.81,3796.46
1047.08,3797.82
1047.34,3797.36
1047.61,3798.16
1047.88,3796.6
1048.14,3797.06
1048.41,3795.56
1048.67,3795.04
1048.94,3793.36
1049.2,3793.42
1049.47,3793.4
1049.74,3793.0
1050.0,3793.42
1050.27,3793.06
1050.53,3794.1
1050.8,3794.28
1051.06,3795.54
1051.33,3795.84
1051.6,3794.66
1051.86,3794.06
1052.13,3793.78
1052.39,3793.68
1052.66,3791.94
1052.92,3791.64
1053.19,3791.98
1053.46,3791.12
1053.72,3790.26
1053.99,3790.96
1054.25,3791.7
1054.52,3792.7
1054.78,3792.78
1055.05,3793.58
1055.32,3793.66
1055.58,3792.48
1055.85,3791.4
1056.11,3791.74
1056.38,3790.24
1056.64,3790.76
1056.91,3789.18
1057.17,3790.74
1057.44,3789.0
1057.7,3790.18
1057.97,3789.32
1058.24,3789.92
1058.5,3789.94
1058.77,3791.02
1059.03,3792.14
1059.3,3791.32
1059.56,3790.3
1059.83,3791.02
1060.09,3789.26
1060.36,3789.08
1060.62,3789.2
1060.89,3788.78
1061.15,3788.64
1061.42,3789.22
1061.68,3788.08
1061.95,3789.64
1062.22,3789.14
1062.48,3789.22
1062.75,3790.12
1063.01,3791.06
1063.28,3791.02
1063.54,3790.52
1063.81,3789.48
1064.07,3789.1
1064.34,3787.34
1064.6,3787.64
1064.87,3786.96
1065.13,3788.26
1065.4,3787.94
1065.66,3787.5
1065.93,3787.62
1066.19,3787.9
1066.46,3788.8
1066.72,3788.8
1066.99,3790.08
1067.25,3790.24
1067.52,3790.24
1067.78,3789.84
1068.05,3788.26