File: spectra/VLFR_07-PET_bio_Raman_ca415bf0.csv
nm,Intensity
791.588,8999.7
791.862,8810.5
792.136,8683.4
792.411,8628.3
792.685,8455.7
792.959,8380.2
793.233,8307.1
793.507,8228.9
793.781,8201.9
794.056,8238.1
794.33,8209.3
794.604,8125.0
794.878,8056.1
795.152,8073.3
795.426,8089.3
795.701,8109.4
795.975,8027.5
796.249,8035.1
796.523,7996.5
796.797,7986.9
797.071,8073.6
797.345,8027.1
797.619,8053.6
797.894,8113.6
798.168,8111.0
798.442,8062.5
798.716,7986.2
798.99,8073.3
799.264,8141.9
799.538,8102.1
799.812,8062.9
800.086,8104.2
800.36,7977.2
800.634,8029.8
800.908,8006.3
801.182,7976.3
801.456,7949.6
801.73,8074.7
802.004,8077.4
802.278,8012.2
802.552,7992.5
802.826,7962.1
803.1,7914.2
803.374,7886.8
803.648,7925.5
803.922,7880.9
804.196,7845.4
804.47,7879.7
804.744,7815.4
805.018,7823.4
805.292,7841.7
805.566,7893.4
805.84,7796.7
806.114,7817.6
806.388,7775.9
806.662,7731.7
806.936,7690.9
807.209,7709.1
807.483,7799.1
807.757,7692.4
808.031,7671.3
808.305,7713.1
808.579,7732.4
808.853,7652.5
809.127,7639.8
809.4,7626.7
809.674,7606.6
809.948,7589.6
810.222,7625.5
810.496,7633.6
810.77,7553.4
811.043,7467.9
811.317,7571.7
811.591,7464.8
811.865,7460.8
812.139,7493.0
812.412,7488.4
812.686,7520.8
812.96,7467.5
813.234,7434.4
813.507,7391.2
813.781,7315.3
814.055,7378.4
814.329,7335.4
814.602,7355.9
814.876,7379.9
815.15,7350.6
815.424,7348.9
815.697,7253.1
815.971,7254.5
816.245,7225.3
816.518,7268.0
816.792,7278.2
817.066,7213.9
817.34,7225.1
817.613,7218.2
817.887,7213.7
818.161,7206.3
818.434,7130.1
818.708,7132.4
818.981,7148.7
819.255,7120.2
819.529,7135.8
819.802,7119.8
820.076,7081.6
820.35,7097.1
820.623,7142.4
820.897,7107.7
821.17,7128.8
821.444,7094.7
821.718,7058.2
821.991,7038.4
822.265,6958.6
822.538,6971.8
822.812,6944.9
823.085,6945.5
823.359,6934.8
823.632,6971.3
823.906,7010.4
824.179,6940.7
824.453,6920.6
824.727,6887.9
825.0,6923.0
825.274,6922.2
825.547,6927.4
825.821,7058.3
826.094,7064.4
826.367,6973.3
826.641,6880.5
826.914,6792.7
827.188,6811.3
827.461,6798.3
827.735,6822.8
828.008,6773.8
828.282,6763.7
828.555,6764.7
828.828,6765.0
829.102,6749.6
829.375,6707.2
829.649,6721.4
829.922,6732.6
830.195,6734.1
830.469,6742.5
830.742,6781.1
831.016,6731.0
831.289,6792.7
831.562,6683.8
831.836,6605.1
832.109,6616.3
832.382,6640.9
832.656,6635.9
832.929,6626.0
833.202,6617.2
833.476,6559.6
833.749,6502.5
834.022,6543.3
834.295,6579.9
834.569,6534.9
834.842,6492.8
835.115,6492.6
835.388,6497.5
835.662,6478.7
835.935,6492.5
836.208,6481.9
836.481,6498.0
836.755,6494.7
837.028,6541.0
837.301,6536.7
837.574,6515.8
837.848,6524.3
838.121,6500.7
838.394,6504.6
838.667,6430.1
838.94,6397.5
839.213,6439.3
839.487,6491.7
839.76,6435.9
840.033,6407.8
840.306,6431.3
840.579,6489.6
840.852,6525.3
841.125,6527.0
841.399,6561.7
841.672,6556.1
841.945,6540.0
842.218,6497.4
842.491,6419.8
842.764,6417.2
843.037,6331.5
843.31,6332.5
843.583,6385.2
843.856,6348.2
844.129,6293.4
844.402,6294.8
844.675,6260.6
844.948,6225.1
845.221,6180.7
845.495,6189.5
845.768,6154.1
846.041,6160.0
846.314,6113.2
846.586,6167.5
846.859,6139.9
847.132,6138.6
847.405,6116.8
847.678,6098.0
847.951,6081.2
848.224,6072.6
848.497,6080.0
848.77,6086.3
849.043,5977.9
849.316,5993.6
849.589,6052.3
849.862,6090.5
850.135,6037.5
850.408,6000.9
850.68,6010.8
850.953,6020.8
851.226,6043.9
851.499,6015.3
851.772,5987.3
852.045,5987.4
852.318,5992.7
852.591,5950.1
852.863,5989.1
853.136,5956.7
853.409,5966.8
853.682,5949.4
853.955,5924.3
854.227,5932.6
854.5,5938.9
854.773,5923.9
855.046,5895.7
855.318,5872.2
855.591,5877.8
855.864,5899.2
856.137,5855.6
856.409,5863.0
856.682,5915.8
856.955,5913.9
857.228,5894.2
857.5,5863.1
857.773,5880.3
858.046,5855.8
858.318,5862.6
858.591,5897.4
858.864,5941.7
859.136,5930.2
859.409,5914.1
859.682,5933.2
859.954,5947.2
860.227,5928.2
860.5,5936.8
860.772,5924.6
861.045,5856.9
861.318,5827.4
861.59,5794.4
861.863,5787.3
862.135,5741.7
862.408,5776.4
862.681,5775.8
862.953,5757.4
863.226,5747.3
863.498,5752.6
863.771,5772.7
864.043,5733.6
864.316,5729.5
864.588,5756.1
864.861,5708.6
865.133,5702.0
865.406,5694.8
865.678,5743.2
865.951,5715.7
866.223,5670.0
866.496,5644.9
866.768,5633.4
867.041,5619.5
867.313,5620.4
867.586,5620.9
867.858,5603.6
868.131,5621.6
868.403,5633.2
868.675,5618.6
868.948,5629.9
869.22,5619.0
869.493,5624.4
869.765,5645.4
870.037,5640.1
870.31,5603.7
870.582,5650.5
870.854,5682.5
871.127,5705.2
871.399,5743.8
871.672,5708.1
871.944,5694.8
872.216,5723.3
872.488,5751.4
872.761,5791.9
873.033,5809.0
873.305,5764.9
873.578,5787.7
873.85,5739.3
874.122,5705.2
874.394,5693.7
874.667,5656.3
874.939,5580.0
875.211,5598.6
875.483,5553.7
875.756,5546.8
876.028,5558.2
876.3,5521.0
876.572,5463.7
876.845,5477.9
877.117,5483.0
877.389,5488.3
877.661,5467.0
877.933,5466.0
878.205,5463.2
878.478,5447.0
878.75,5452.0
879.022,5456.3
879.294,5448.7
879.566,5411.6
879.838,5399.5
880.11,5426.9
880.382,5425.2
880.654,5388.6
880.927,5411.4
881.199,5403.9
881.471,5372.2
881.743,5413.9
882.015,5417.0
882.287,5397.8
882.559,5382.0
882.831,5365.6
883.103,5382.5
883.375,5374.6
883.647,5379.5
883.919,5370.5
884.191,5330.7
884.463,5338.2
884.735,5360.2
885.007,5346.0
885.279,5338.5
885.551,5356.6
885.823,5309.8
886.095,5303.3
886.367,5294.7
886.639,5288.4
886.91,5288.9
887.182,5278.0
887.454,5248.5
887.726,5263.1
887.998,5240.2
888.27,5216.6
888.542,5228.3
888.814,5236.0
889.085,5204.9
889.357,5198.6
889.629,5180.2
889.901,5196.0
890.173,5215.7
890.445,5194.0
890.716,5164.8
890.988,5210.9
891.26,5216.2
891.532,5170.5
891.804,5149.1
892.075,5164.8
892.347,5160.9
892.619,5131.4
892.891,5132.2
893.162,5123.9
893.434,5138.0
893.706,5139.2
893.978,5121.7
894.249,5077.0
894.521,5080.4
894.793,5077.5
895.064,5068.6
895.336,5057.8
895.608,5074.6
895.879,5024.6
896.151,5026.1
896.423,5031.6
896.694,5060.2
896.966,5128.5
897.237,5125.2
897.509,5196.4
897.781,5291.4
898.052,5324.7
898.324,5361.5
898.595,5365.1
898.867,5316.4
899.139,5267.4
899.41,5249.7
899.682,5190.7
899.953,5129.1
900.225,5051.2
900.496,5012.1
900.768,4982.4
901.039,4920.1
901.311,4925.7
901.582,4923.5
901.854,4919.5
902.125,4897.1
902.397,4873.2
902.668,4891.2
902.94,4865.2
903.211,4854.3
903.482,4876.1
903.754,4876.6
904.025,4875.0
904.297,4847.2
904.568,4850.5
904.839,4875.9
905.111,4887.7
905.382,4867.0
905.654,4856.1
905.925,4869.9
906.196,4954.5
906.468,4962.3
906.739,4993.4
907.01,5002.6
907.282,5037.5
907.553,5068.6
907.824,5069.0
908.096,5073.7
908.367,5085.9
908.638,5031.0
908.909,4958.6
909.181,4911.4
909.452,4861.5
909.723,4816.5
909.994,4799.3
910.266,4760.5
910.537,4712.0
910.808,4737.3
911.079,4719.6
911.35,4702.6
911.622,4715.1
911.893,4699.0
912.164,4689.1
912.435,4701.0
912.706,4672.7
912.977,4662.8
913.249,4662.2
913.52,4639.6
913.791,4628.3
914.062,4631.1
914.333,4636.1
914.604,4611.6
914.875,4604.5
915.146,4606.9
915.417,4624.2
915.688,4602.6
915.959,4589.8
916.231,4592.1
916.502,4597.3
916.773,4571.7
917.044,4549.7
917.315,4554.2
917.586,4562.1
917.857,4553.6
918.128,4567.3
918.399,4565.8
918.67,4550.0
918.941,4539.4
919.211,4533.7
919.482,4532.3
919.753,4548.3
920.024,4543.7
920.295,4532.2
920.566,4501.2
920.837,4501.8
921.108,4518.8
921.379,4511.1
921.65,4484.8
921.921,4473.2
922.191,4467.0
922.462,4448.5
922.733,4448.2
923.004,4454.0
923.275,4467.6
923.546,4449.2
923.816,4457.5
924.087,4457.1
924.358,4437.8
924.629,4422.5
924.9,4424.3
925.17,4421.6
925.441,4415.9
925.712,4408.6
925.983,4396.3
926.253,4395.1
926.524,4401.5
926.795,4388.3
927.065,4390.8
927.336,4390.9
927.607,4359.7
927.877,4350.9
928.148,4348.4
928.419,4351.8
928.689,4349.5
928.96,4340.5
929.231,4329.7
929.501,4335.3
929.772,4320.4
930.043,4313.2
930.313,4314.1
930.584,4299.0
930.854,4308.9
931.125,4296.8
931.396,4286.4
931.666,4281.6
931.937,4294.0
932.207,4283.3
932.478,4287.3
932.748,4273.4
933.019,4253.4
933.289,4253.3
933.56,4250.3
933.83,4262.5
934.101,4240.4
934.371,4244.1
934.642,4235.0
934.912,4233.2
935.183,4222.9
935.453,4233.9
935.723,4222.2
935.994,4218.3
936.264,4201.4
936.535,4209.2
936.805,4208.2
937.075,4212.5
937.346,4209.2
937.616,4190.1
937.886,4186.6
938.157,4186.3
938.427,4192.6
938.697,4179.1
938.968,4179.5
939.238,4179.2
939.508,4173.5
939.779,4167.7
940.049,4177.7
940.319,4184.4
940.59,4168.2
940.86,4162.9
941.13,4151.4
941.4,4151.3
941.671,4146.6
941.941,4133.2
942.211,4150.9
942.481,4144.4
942.751,4142.2
943.022,4126.4
943.292,4125.4
943.562,4128.3
943.832,4111.4
944.102,4111.7
944.372,4109.7
944.642,4107.3
944.913,4106.1
945.183,4107.9
945.453,4104.2
945.723,4100.7
945.993,4092.7
946.263,4094.0
946.533,4093.3
946.803,4086.8
947.073,4087.7
947.343,4086.6
947.613,4077.1
947.883,4079.8
948.153,4087.9
948.423,4085.1
948.693,4080.5
948.963,4069.5
949.233,4059.1
949.503,4070.4
949.773,4062.1
950.043,4065.4
950.313,4059.0
950.583,4050.1
950.853,4057.5
951.123,4041.7
951.393,4046.4
951.663,4044.1
951.933,4038.3
952.202,4039.5
952.472,4036.0
952.742,4034.8
953.012,4036.0
953.282,4027.0
953.552,4025.8
953.822,4025.4
954.091,4018.7
954.361,4011.4
954.631,4013.4
954.901,4010.6
955.17,4008.2
955.44,4010.1
955.71,4004.0
955.98,3999.1
956.25,4013.7
956.519,4005.3
956.789,4001.0
957.059,3995.5
957.328,3996.9
957.598,4000.2
957.868,3988.9
958.137,3987.6
958.407,3984.1
958.677,3989.9
958.946,3983.4
959.216,3975.4
959.486,3979.6
959.755,3975.8
960.025,3971.0
960.294,3974.9
960.564,3977.3
960.834,3961.5
961.103,3972.4
961.373,3962.2
961.642,3968.7
961.912,3965.8
962.181,3959.7
962.451,3958.8
962.72,3959.4
962.99,3959.0
963.259,3959.5
963.529,3958.5
963.798,3951.0
964.068,3950.3
964.337,3948.5
964.607,3944.9
964.876,3942.1
965.146,3941.8
965.415,3939.6
965.684,3946.2
965.954,3940.9
966.223,3937.9
966.493,3940.7
966.762,3934.9
967.031,3941.7
967.301,3933.7
967.57,3931.4
967.839,3927.5
968.109,3920.3
968.378,3925.4
968.647,3918.1
968.917,3924.5
969.186,3921.3
969.455,3916.7
969.724,3917.9
969.994,3914.7
970.263,3914.1
970.532,3920.6
970.801,3916.3
971.071,3910.7
971.34,3914.2
971.609,3919.0
971.878,3911.5
972.147,3903.6
972.417,3903.1
972.686,3898.7
972.955,3901.6
973.224,3909.6
973.493,3897.1
973.762,3896.2
974.031,3896.0
974.3,3889.5
974.57,3887.6
974.839,3890.7
975.108,3886.2
975.377,3889.4
975.646,3883.9
975.915,3885.5
976.184,3880.0
976.453,3885.6
976.722,3886.8
976.991,3882.3
977.26,3880.2
977.529,3877.0
977.798,3877.3
978.067,3873.4
978.336,3872.6
978.605,3880.0
978.874,3866.3
979.143,3869.1
979.412,3875.2
979.68,3865.9
979.949,3865.7
980.218,3872.5
980.487,3867.8
980.756,3873.0
981.025,3864.9
981.294,3865.7
981.563,3867.1
981.831,3862.3
982.1,3862.6
982.369,3862.8
982.638,3857.2
982.907,3858.1
983.175,3855.3
983.444,3859.1
983.713,3863.6
983.982,3856.2
984.25,3853.0
984.519,3851.4
984.788,3849.6
985.057,3851.7
985.325,3853.8
985.594,3852.2
985.863,3847.2
986.131,3846.4
986.4,3842.2
986.669,3843.6
986.937,3844.0
987.206,3844.3
987.475,3840.8
987.743,3844.8
988.012,3842.9
988.28,3843.8
988.549,3842.5
988.817,3839.0
989.086,3840.5
989.355,3842.0
989.623,3836.7
989.892,3837.6
990.16,3836.8
990.429,3832.0
990.697,3828.1
990.966,3824.2
991.234,3827.8
991.503,3831.9
991.771,3823.0
992.04,3824.3
992.308,3825.0
992.576,3822.5
992.845,3824.7
993.113,3826.7
993.382,3825.6
993.65,3821.7
993.918,3817.4
994.187,3820.3
994.455,3827.6
994.723,3818.2
994.992,3819.2
995.26,3820.6
995.528,3814.3
995.797,3817.4
996.065,3812.7
996.333,3812.4
996.602,3809.9
996.87,3811.6
997.138,3810.6
997.406,3809.4
997.675,3813.3
997.943,3811.3
998.211,3814.5
998.479,3807.9
998.747,3807.3
999.016,3807.4
999.284,3808.9
999.552,3809.1
999.82,3810.3
1000.09,3808.8
1000.36,3806.7
1000.62,3801.5
1000.89,3800.7
1001.16,3800.7
1001.43,3798.3
1001.7,3800.5
1001.97,3802.6
1002.23,3801.5
1002.5,3801.1
1002.77,3797.9
1003.04,3795.2
1003.31,3797.2
1003.57,3798.3
1003.84,3796.4
1004.11,3793.1
1004.38,3790.4
1004.65,3796.1
1004.91,3795.5
1005.18,3791.4
1005.45,3797.0
1005.72,3791.2
1005.98,3787.7
1006.25,3793.6
1006.52,3790.3
1006.79,3790.7
1007.06,3790.7
1007.32,3784.8
1007.59,3786.7
1007.86,3789.2
1008.13,3788.7
1008.4,3788.1
1008.66,3784.1
1008.93,3783.3
1009.2,3784.2
1009.47,3782.3
1009.73,3781.4
1010.0,3780.9
1010.27,3782.5
1010.54,3782.6
1010.81,3781.4
1011.07,3779.7
1011.34,3779.6
1011.61,3780.3
1011.88,3779.5
1012.14,3782.5
1012.41,3778.9
1012.68,3778.7
1012.95,3775.8
1013.21,3779.2
1013.48,3776.5
1013.75,3780.9
1014.02,3778.7
1014.29,3777.7
1014.55,3776.2
1014.82,3776.0
1015.09,3780.9
1015.36,3774.0
1015.62,3777.1
1015.89,3773.3
1016.16,3769.9
1016.43,3771.8
1016.69,3774.3
1016.96,3772.7
1017.23,3773.8
1017.5,3769.9
1017.76,3770.6
1018.03,3770.7
1018.3,3770.1
1018.57,3772.6
1018.83,3771.2
1019.1,3768.2
1019.37,3771.6
1019.63,3768.5
1019.9,3772.2
1020.17,3768.7
1020.44,3770.0
1020.7,3769.8
1020.97,3771.6
1021.24,3769.6
1021.51,3771.3
1021.77,3773.9
1022.04,3770.5
1022.31,3769.7
1022.58,3772.8
1022.84,3772.7
1023.11,3772.7
1023.38,3771.1
1023.64,3767.6
1023.91,3767.6
1024.18,3770.3
1024.45,3767.4
1024.71,3767.1
1024.98,3764.8
1025.25,3763.7
1025.51,3766.3
1025.78,3764.5
1026.05,3761.6
1026.32,3762.9
1026.58,3763.3
1026.85,3761.4
1027.12,3761.8
1027.38,3758.3
1027.65,3762.1
1027.92,3758.4
1028.19,3758.3
1028.45,3758.2
1028.72,3756.5
1028.99,3755.5
1029.25,3755.2
1029.52,3756.2
1029.79,3755.7
1030.05,3757.7
1030.32,3755.5
1030.59,3755.8
1030.85,3752.5
1031.12,3755.0
1031.39,3755.9
1031.66,3753.9
1031.92,3754.5
1032.19,3754.9
1032.46,3757.9
1032.72,3755.7
1032.99,3755.4
1033.26,3754.1
1033.52,3755.2
1033.79,3757.3
1034.06,3755.0
1034.32,3756.1
1034.59,3756.9
1034.86,3757.6
1035.12,3756.2
1035.39,3756.0
1035.66,3756.1
1035.92,3756.8
1036.19,3753.9
1036.46,3755.0
1036.72,3753.5
1036.99,3751.3
1037.26,3752.6
1037.52,3753.2
1037.79,3751.7
1038.06,3751.3
1038.32,3753.4
1038.59,3747.3
1038.86,3749.9
1039.12,3750.7
1039.39,3748.9
1039.66,3749.4
1039.92,3749.6
1040.19,3750.8
1040.46,3747.8
1040.72,3748.3
1040.99,3749.5
1041.26,3749.3
1041.52,3747.3
1041.79,3749.1
1042.06,3748.1
1042.32,3744.9
1042.59,3745.5
1042.86,3746.2
1043.12,3747.8
1043.39,3745.9
1043.65,3744.8
1043.92,3748.1
1044.19,3745.8
1044.45,3747.0
1044.72,3744.6
1044.99,3746.5
1045.25,3745.4
1045.52,3745.2
1045.79,3745.6
1046.05,3744.1
1046.32,3744.7
1046.58,3747.9
1046.85,3743.7
1047.12,3742.9
1047.38,3744.5
1047.65,3747.0
1047.92,3744.0
1048.18,3744.8
1048.45,3744.4
1048.71,3745.5
1048.98,3744.8
1049.25,3744.4
1049.51,3744.5
1049.78,3744.3
1050.04,3742.8
1050.31,3744.5
1050.58,3743.2
1050.84,3744.4
1051.11,3742.1
1051.37,3744.1
1051.64,3744.4
1051.91,3742.3
1052.17,3742.9
1052.44,3742.3
1052.7,3743.2
1052.97,3742.8
1053.24,3740.7
1053.5,3742.3
1053.77,3744.1
1054.03,3741.5
1054.3,3741.8
1054.57,3742.9
1054.83,3740.9
1055.1,3743.6
1055.36,3745.0
1055.63,3742.7
1055.9,3741.4
1056.16,3741.6
1056.43,3743.6
1056.69,3743.0
1056.96,3742.3
1057.23,3742.2
1057.49,3741.6
1057.76,3740.3
1058.02,3742.4
1058.29,3742.1
1058.55,3742.3
1058.82,3741.1
1059.09,3742.2
1059.35,3742.2
1059.62,3742.3
1059.88,3743.7
1060.15,3742.2
1060.41,3742.1
1060.68,3743.0
1060.95,3741.0
1061.21,3739.8
1061.48,3741.2
1061.74,3740.7
1062.01,3743.0
1062.27,3738.4
1062.54,3742.2
1062.8,3740.6
1063.07,3742.7
1063.34,3740.6
1063.6,3740.5
1063.87,3741.9
1064.13,3739.6
1064.4,3738.9
1064.66,3740.0
1064.93,3742.7
1065.19,3742.5
1065.46,3742.3
1065.73,3740.1
1065.99,3742.7
1066.26,3739.6
1066.52,3741.6
1066.79,3741.5
1067.05,3739.5
1067.32,3741.6
1067.58,3739.9
1067.85,3740.3
1068.11,3739.5