File: spectra/VLFR_09-PET_bio_Raman_02ad0209.csv
nm,Intensity
528.65,1846.65
528.819,1844.25
528.987,1845.45
529.155,1846.2
529.324,1844.3
529.492,1844.05
529.66,1845.2
529.829,1843.25
529.997,1845.0
530.165,1843.4
530.334,1845.45
530.502,1844.5
530.67,1846.2
530.839,1846.65
531.007,1846.4
531.175,1845.5
531.344,1850.45
531.512,1853.65
531.68,1875.7
531.848,2232.8
532.017,3657.05
532.185,3478.7
532.353,1985.65
532.521,1851.7
532.69,1848.8
532.858,1853.4
533.026,1854.8
533.194,1858.85
533.363,1882.15
533.531,2069.6
533.699,3240.5
533.867,5645.8
534.036,6969.8
534.204,7269.55
534.372,7451.45
534.54,7131.35
534.708,7242.8
534.877,7318.8
535.045,7174.65
535.213,7083.4
535.381,7153.35
535.549,7031.4
535.717,6989.9
535.886,7022.35
536.054,6855.2
536.222,6821.4
536.39,6908.85
536.558,6797.55
536.726,6822.8
536.894,6907.25
537.062,6940.3
537.231,6936.1
537.399,7093.5
537.567,7072.35
537.735,7072.75
537.903,7263.95
538.071,7131.75
538.239,7080.1
538.407,7109.4
538.575,7277.3
538.743,7226.9
538.911,7280.6
539.079,7336.75
539.247,7591.25
539.415,7617.65
539.583,7583.35
539.751,7749.0
539.919,7812.5
540.087,7849.75
540.255,7887.0
540.423,7841.25
540.591,7914.2
540.759,7698.1
540.927,8013.8
541.095,7915.7
541.263,7813.3
541.431,7963.6
541.599,8080.15
541.767,8075.85
541.935,8092.6
542.103,8252.45
542.271,8245.5
542.439,8133.45
542.607,8512.7
542.775,8501.1
542.943,8475.85
543.111,8471.55
543.279,8584.55
543.446,8378.05
543.614,8645.25
543.782,8616.75
543.95,8812.3
544.118,8762.3
544.286,8600.45
544.454,8906.1
544.622,8802.85
544.789,8926.55
544.957,8706.7
545.125,9089.15
545.293,8942.6
545.461,8793.05
545.629,8954.95
545.796,9105.3
545.964,9102.9
546.132,9267.65
546.3,9152.25
546.468,9399.1
546.635,9312.0
546.803,9298.4
546.971,9378.75
547.139,9495.55
547.306,9306.55
547.474,9327.35
547.642,9677.7
547.81,9449.65
547.977,9374.9
548.145,9457.85
548.313,9503.8
548.481,9563.4
548.648,9731.95
548.816,9726.15
548.984,9686.55
549.151,9874.7
549.319,9731.1
549.487,9709.0
549.655,9897.05
549.822,9830.65
549.99,9734.1
550.158,9882.9
550.325,9938.55
550.493,10354.7
550.66,10355.0
550.828,10411.6
550.996,10127.4
551.163,10309.5
551.331,10090.7
551.499,10353.8
551.666,10528.8
551.834,10345.3
552.001,10484.5
552.169,10506.5
552.337,10570.7
552.504,10737.3
552.672,10338.2
552.839,10652.3
553.007,10564.8
553.174,10536.8
553.342,10514.3
553.509,10757.5
553.677,10522.4
553.844,10936.0
554.012,10872.2
554.179,10762.6
554.347,10859.0
554.514,10972.9
554.682,10848.1
554.849,10996.5
555.017,10992.3
555.184,11457.1
555.352,11364.5
555.519,11430.6
555.687,11423.6
555.854,11367.3
556.022,11548.5
556.189,11645.5
556.357,11487.7
556.524,11379.6
556.691,11518.5
556.859,11665.7
557.026,11704.7
557.194,12230.4
557.361,12219.7
557.528,12544.5
557.696,12728.4
557.863,12489.2
558.031,12094.0
558.198,12177.0
558.365,12036.0
558.533,11966.7
558.7,12204.5
558.867,12159.3
559.035,11884.5
559.202,12189.8
559.369,12287.1
559.537,12057.8
559.704,12198.8
559.871,12246.0
560.038,12140.9
560.206,12302.8
560.373,12204.2
560.54,12573.1
560.708,12510.7
560.875,12564.9
561.042,12575.2
561.209,12797.2
561.377,12657.2
561.544,12843.1
561.711,13092.7
561.878,12952.2
562.045,13051.5
562.213,12926.7
562.38,12909.7
562.547,13322.3
562.714,12912.9
562.881,13142.3
563.049,13175.0
563.216,13048.3
563.383,13084.2
563.55,13024.0
563.717,13284.3
563.884,13187.9
564.052,13345.0
564.219,13370.0
564.386,13350.2
564.553,13684.3
564.72,13720.1
564.887,13658.4
565.054,14234.2
565.221,14055.0
565.388,14027.3
565.556,14139.5
565.723,14208.3
565.89,14227.2
566.057,14326.2
566.224,14241.3
566.391,13832.0
566.558,13993.2
566.725,13790.9
566.892,13817.3
567.059,14015.3
567.226,14005.3
567.393,13945.1
567.56,14212.8
567.727,14298.2
567.894,14293.7
568.061,14578.6
568.228,14237.6
568.395,14157.2
568.562,14404.2
568.729,14585.5
568.896,14261.9
569.063,14253.5
569.23,14819.2
569.396,14089.4
569.563,14454.8
569.73,14671.0
569.897,14908.2
570.064,14613.8
570.231,14664.5
570.398,14938.2
570.565,15524.2
570.732,15264.5
570.898,15085.0
571.065,16078.7
571.232,16379.8
571.399,16619.9
571.566,16378.7
571.733,15865.0
571.9,15833.5
572.066,15961.5
572.233,15367.8
572.4,15453.3
572.567,15288.8
572.734,15022.7
572.9,15336.8
573.067,15358.8
573.234,15238.5
573.401,15343.6
573.567,15063.2
573.734,15409.2
573.901,15415.3
574.068,15416.6
574.234,15456.2
574.401,15256.3
574.568,15331.5
574.734,15416.7
574.901,15384.5
575.068,15803.0
575.235,15745.9
575.401,16170.3
575.568,15750.8
575.735,15743.7
575.901,15693.8
576.068,15943.4
576.235,16045.3
576.401,15990.9
576.568,16259.2
576.734,16194.5
576.901,16293.4
577.068,16019.3
577.234,16158.3
577.401,15742.0
577.567,15892.9
577.734,15824.3
577.901,16140.9
578.067,16022.2
578.234,15976.2
578.4,15719.0
578.567,16221.8
578.733,15938.5
578.9,15848.4
579.066,16319.2
579.233,16252.1
579.399,16040.0
579.566,16157.3
579.732,16429.3
579.899,16835.9
580.065,16137.3
580.232,16476.6
580.398,16703.5
580.565,16741.8
580.731,16782.9
580.898,16391.8
581.064,16908.3
581.231,16568.7
581.397,16999.6
581.563,17217.3
581.73,18114.3
581.896,19844.6
582.063,22068.4
582.229,22601.2
582.395,19334.7
582.562,17331.2
582.728,17312.2
582.895,16868.6
583.061,17073.1
583.227,16785.7
583.394,16769.4
583.56,17119.5
583.726,16670.7
583.893,17247.3
584.059,17084.8
584.225,16991.2
584.391,16972.6
584.558,17233.9
584.724,17110.6
584.89,17304.7
585.057,17026.3
585.223,17132.7
585.389,17462.8
585.555,18379.4
585.722,19646.7
585.888,20495.6
586.054,20401.7
586.22,20053.4
586.386,19558.3
586.553,18214.4
586.719,18101.6
586.885,17592.3
587.051,17529.4
587.217,17225.6
587.384,17745.9
587.55,17361.9
587.716,17762.1
587.882,17522.9
588.048,17297.1
588.214,17814.6
588.38,17487.8
588.546,17279.3
588.713,17462.3
588.879,17455.3
589.045,17625.8
589.211,17658.4
589.377,17511.5
589.543,17441.9
589.709,17314.0
589.875,17412.8
590.041,17496.2
590.207,17848.7
590.373,17557.2
590.539,17337.8
590.705,17752.5
590.871,17402.7
591.037,17386.7
591.203,17806.4
591.369,17696.9
591.535,17884.3
591.701,17684.7
591.867,18053.7
592.033,17769.6
592.199,17710.3
592.365,17764.5
592.531,17763.1
592.697,18227.8
592.863,18107.2
593.029,17796.4
593.195,17780.4
593.361,17851.3
593.526,17763.8
593.692,17809.1
593.858,17928.8
594.024,18037.1
594.19,18085.2
594.356,17576.6
594.522,17932.7
594.687,18623.1
594.853,17989.8
595.019,18323.3
595.185,17527.1
595.351,17998.1
595.516,18389.8
595.682,18454.8
595.848,18203.4
596.014,18039.3
596.18,18470.8
596.345,18622.7
596.511,18232.8
596.677,18175.7
596.843,18496.1
597.008,18508.8
597.174,18552.6
597.34,18299.8
597.505,18207.7
597.671,18809.9
597.837,18442.1
598.002,18384.6
598.168,18359.4
598.334,18425.3
598.499,18433.8
598.665,19008.8
598.831,18340.9
598.996,18705.2
599.162,18521.2
599.328,18514.1
599.493,18554.8
599.659,18746.3
599.824,18892.9
599.99,19087.8
600.156,18923.3
600.321,18701.4
600.487,19147.4
600.652,18378.1
600.818,18913.6
600.983,19113.6
601.149,18767.1
601.314,19207.5
601.48,18713.9
601.645,19198.8
601.811,18971.1
601.976,19076.1
602.142,19095.1
602.307,18749.8
602.473,19015.7
602.638,19261.3
602.804,18946.4
602.969,19523.7
603.135,19109.7
603.3,19345.8
603.466,18812.6
603.631,19296.9
603.796,19177.8
603.962,19157.2
604.127,19197.1
604.293,19308.9
604.458,19328.0
604.623,19364.8
604.789,19502.1
604.954,19450.1
605.119,19465.6
605.285,19166.2
605.45,19607.7
605.615,19284.6
605.781,19298.8
605.946,19728.1
606.111,19591.3
606.277,19397.3
606.442,19426.2
606.607,19929.2
606.772,19715.9
606.938,19286.4
607.103,20023.8
607.268,20064.5
607.433,20107.4
607.599,19703.8
607.764,19546.2
607.929,19623.5
608.094,20425.7
608.259,20008.7
608.425,20074.8
608.59,19387.2
608.755,20141.1
608.92,20132.9
609.085,19867.8
609.25,20135.8
609.415,20111.9
609.581,20657.4
609.746,20093.3
609.911,20251.7
610.076,20192.8
610.241,20581.6
610.406,20380.5
610.571,20736.9
610.736,20184.0
610.901,20695.4
611.066,20667.8
611.231,20945.4
611.396,20117.7
611.561,21046.1
611.727,20880.1
611.892,20333.9
612.057,20683.3
612.222,21132.7
612.386,21050.8
612.551,20693.3
612.716,20753.8
612.881,20571.2
613.046,21208.1
613.211,20783.8
613.376,21030.1
613.541,20973.9
613.706,21354.8
613.871,21235.9
614.036,20957.6
614.201,21451.8
614.366,21507.9
614.531,21616.7
614.695,21456.8
614.86,21263.4
615.025,21649.1
615.19,22000.6
615.355,21363.0
615.52,21672.4
615.684,22126.3
615.849,21834.2
616.014,21266.4
616.179,21483.4
616.344,22128.3
616.508,22287.3
616.673,21876.1
616.838,22176.1
617.003,22140.6
617.168,22044.9
617.332,21332.1
617.497,22560.3
617.662,22951.9
617.826,22209.3
617.991,22475.9
618.156,22749.7
618.32,22811.3
618.485,22351.4
618.65,23046.1
618.814,22772.3
618.979,22470.7
619.144,23288.0
619.308,22462.3
619.473,23187.0
619.638,22890.6
619.802,22932.3
619.967,23131.7
620.131,23139.8
620.296,23159.9
620.461,22937.8
620.625,23454.5
620.79,23577.0
620.954,23467.9
621.119,23084.8
621.283,23414.4
621.448,23990.5
621.612,23270.8
621.777,23465.1
621.941,23885.2
622.106,23458.7
622.27,24036.8
622.435,23880.1
622.599,23632.5
622.764,23579.8
622.928,23905.2
623.093,24409.2
623.257,24364.7
623.422,24164.8
623.586,23873.8
623.75,23983.3
623.915,24513.3
624.079,24498.2
624.244,24545.7
624.408,24143.7
624.572,24580.5
624.737,24773.1
624.901,24939.6
625.065,24692.0
625.23,24813.9
625.394,25145.3
625.558,24359.7
625.723,24663.3
625.887,24612.3
626.051,24626.4
626.215,25740.1
626.38,25106.2
626.544,25417.4
626.708,24759.1
626.872,24329.6
627.037,24824.6
627.201,24986.8
627.365,24509.8
627.529,26096.4
627.693,25228.2
627.858,25821.3
628.022,25579.3
628.186,25590.3
628.35,24992.4
628.514,26006.7
628.678,25804.1
628.843,25338.6
629.007,26244.7
629.171,26251.1
629.335,26235.4
629.499,26141.2
629.663,26512.2
629.827,25994.4
629.991,25822.4
630.155,26682.3
630.319,26187.2
630.483,25977.1
630.647,26446.7
630.812,26021.8
630.976,26440.1
631.14,26867.4
631.304,26688.8
631.468,27380.8
631.632,27321.9
631.796,27464.2
631.959,27499.1
632.123,27164.7
632.287,27007.6
632.451,26736.6
632.615,27716.6
632.779,27939.7
632.943,27629.7
633.107,27659.0
633.271,27175.9
633.435,27653.0
633.599,27616.3
633.763,27705.3
633.926,27000.2
634.09,27551.7
634.254,27032.8
634.418,27516.3
634.582,28092.2
634.746,27551.4
634.909,26865.3
635.073,27392.1
635.237,27206.7
635.401,27001.0
635.564,27868.9
635.728,27899.7
635.892,27550.8
636.056,27707.3
636.219,27931.3
636.383,28938.1
636.547,29022.1
636.711,28470.2
636.874,27782.2
637.038,28459.9
637.202,28461.7
637.365,27799.3
637.529,27012.2
637.693,28032.0
637.856,27148.6
638.02,27989.6
638.184,27917.3
638.347,28220.6
638.511,28209.1
638.674,27728.8
638.838,27983.8
639.002,27726.8
639.165,27287.8
639.329,27956.3
639.492,27600.9
639.656,28189.4
639.819,27598.1
639.983,27066.5
640.146,27402.5
640.31,27882.9
640.473,27090.4
640.637,27886.2
640.8,28005.7
640.964,27367.8
641.127,27343.3
641.291,27651.8
641.454,27708.7
641.618,27420.3
641.781,27589.7
641.944,27700.1
642.108,27623.3
642.271,27610.1
642.435,27377.6
642.598,28513.6
642.761,27719.7
642.925,27384.5
643.088,27700.2
643.251,27725.7
643.415,27832.8
643.578,27156.8
643.741,27792.8
643.905,27640.5
644.068,27521.3
644.231,28971.3
644.394,27778.3
644.558,27185.6
644.721,27217.1
644.884,27091.5
645.047,28222.3
645.211,28292.3
645.374,27616.7
645.537,27281.9
645.7,27686.2
645.863,26604.8
646.027,27653.8
646.19,28269.8
646.353,26760.8
646.516,27968.5
646.679,27555.9
646.842,27445.2
647.005,27442.3
647.169,26891.9
647.332,27897.8
647.495,28234.8
647.658,27428.7
647.821,27731.6
647.984,26892.8
648.147,27220.8
648.31,26760.3
648.473,26447.6
648.636,26344.8
648.799,27099.9
648.962,27533.7
649.125,27069.8
649.288,27767.6
649.451,26251.0
649.614,26487.7
649.777,26965.8
649.94,26951.0
650.103,26501.3
650.266,27028.8
650.429,26464.1
650.592,26552.4
650.755,25964.2
650.918,26185.9
651.08,26359.3
651.243,26732.1
651.406,26436.0
651.569,26208.2
651.732,27336.8
651.895,27040.2
652.058,26405.3
652.22,26365.4
652.383,26078.3
652.546,26533.7
652.709,25537.1
652.872,26400.0
653.034,25467.1
653.197,25693.2
653.36,26373.6
653.523,26058.7
653.685,26352.3
653.848,25119.2
654.011,25213.8
654.173,25057.8
654.336,25179.7
654.499,24429.3
654.662,24845.1
654.824,25013.1
654.987,25364.7
655.149,25542.7
655.312,24942.6
655.475,24892.8
655.637,26046.1
655.8,25162.2
655.963,25239.3
656.125,25440.4
656.288,24439.8
656.45,24424.5
656.613,24589.8
656.775,25352.3
656.938,24384.8
657.1,23926.3
657.263,24941.2
657.425,25491.3
657.588,24995.3
657.75,23922.9
657.913,23438.5
658.075,24599.1
658.238,23013.8
658.4,23587.7
658.563,23643.8
658.725,23660.0
658.888,22877.2
659.05,23928.4
659.212,23274.0
659.375,23183.2
659.537,23074.5
659.7,23630.4
659.862,23131.3
660.024,23358.5
660.187,22770.2
660.349,22730.3
660.511,22796.9
660.674,23217.4
660.836,21854.4
660.998,22281.2
661.079,22585.8