File: spectra/VLFR_02-HDPE_bio_Raman_d481c8c0.csv
nm,Intensity
528.629,1850.8
528.797,1851.5
528.965,1850.95
529.134,1851.2
529.302,1850.5
529.471,1850.15
529.639,1851.05
529.808,1850.35
529.976,1850.35
530.145,1849.15
530.313,1851.2
530.481,1850.6
530.65,1852.2
530.818,1851.3
530.987,1852.1
531.155,1851.1
531.323,1855.1
531.492,1854.45
531.66,1874.55
531.829,2195.7
531.997,3025.3
532.165,2727.55
532.334,1927.05
532.502,1853.95
532.67,1851.75
532.839,1850.35
533.007,1851.5
533.175,1850.4
533.344,1851.7
533.512,1855.3
533.68,1874.8
533.848,1903.7
534.017,1916.15
534.185,1922.7
534.353,1917.75
534.522,1916.2
534.69,1922.85
534.858,1921.1
535.026,1917.85
535.195,1915.2
535.363,1907.85
535.531,1903.9
535.699,1900.35
535.868,1896.55
536.036,1894.0
536.204,1890.3
536.372,1890.65
536.54,1891.45
536.709,1890.1
536.877,1886.25
537.045,1889.65
537.213,1891.0
537.381,1889.95
537.55,1893.3
537.718,1889.0
537.886,1889.9
538.054,1889.55
538.222,1890.0
538.39,1881.2
538.558,1886.85
538.727,1890.65
538.895,1887.15
539.063,1887.05
539.231,1887.9
539.399,1885.25
539.567,1885.4
539.735,1886.1
539.903,1884.65
540.071,1885.25
540.239,1885.35
540.408,1882.85
540.576,1884.6
540.744,1886.45
540.912,1883.2
541.08,1883.05
541.248,1882.7
541.416,1883.7
541.584,1884.65
541.752,1883.05
541.92,1884.35
542.088,1884.55
542.256,1885.75
542.424,1887.75
542.592,1885.25
542.76,1887.55
542.928,1885.45
543.096,1883.6
543.264,1886.95
543.432,1885.6
543.6,1887.55
543.768,1885.9
543.936,1885.05
544.104,1886.3
544.271,1884.85
544.439,1886.95
544.607,1884.1
544.775,1884.05
544.943,1886.95
545.111,1883.1
545.279,1884.3
545.447,1885.0
545.615,1885.6
545.783,1886.8
545.95,1886.25
546.118,1888.65
546.286,1886.3
546.454,1891.0
546.622,1890.0
546.79,1888.25
546.957,1886.2
547.125,1886.95
547.293,1886.2
547.461,1887.95
547.629,1888.95
547.797,1887.95
547.964,1889.1
548.132,1886.8
548.3,1890.65
548.468,1887.45
548.635,1884.85
548.803,1888.45
548.971,1889.9
549.139,1886.6
549.306,1888.45
549.474,1888.3
549.642,1888.4
549.81,1887.7
549.977,1888.45
550.145,1891.55
550.313,1887.95
550.48,1890.3
550.648,1889.35
550.816,1892.05
550.983,1887.1
551.151,1888.05
551.319,1891.4
551.486,1891.65
551.654,1893.95
551.822,1891.45
551.989,1891.15
552.157,1894.35
552.325,1889.7
552.492,1896.05
552.66,1892.25
552.828,1891.3
552.995,1894.9
553.163,1891.85
553.33,1892.2
553.498,1894.35
553.665,1895.55
553.833,1894.75
554.001,1897.3
554.168,1891.95
554.336,1896.7
554.503,1897.1
554.671,1899.05
554.838,1895.85
555.006,1901.4
555.173,1899.8
555.341,1893.05
555.508,1893.6
555.676,1900.3
555.843,1900.15
556.011,1898.95
556.178,1896.15
556.346,1900.7
556.513,1903.0
556.681,1904.7
556.848,1902.2
557.016,1900.8
557.183,1904.9
557.35,1907.3
557.518,1903.55
557.685,1909.0
557.853,1909.45
558.02,1911.3
558.188,1907.45
558.355,1910.65
558.522,1911.5
558.69,1909.5
558.857,1912.6
559.024,1907.25
559.192,1906.55
559.359,1909.05
559.526,1907.2
559.694,1906.05
559.861,1904.9
560.028,1909.0
560.196,1904.65
560.363,1904.1
560.53,1903.2
560.698,1903.65
560.865,1904.4
561.032,1905.55
561.2,1907.55
561.367,1904.3
561.534,1910.7
561.701,1908.0
561.869,1907.5
562.036,1909.5
562.203,1906.9
562.37,1910.2
562.538,1915.0
562.705,1912.85
562.872,1915.7
563.039,1917.2
563.206,1915.05
563.374,1919.85
563.541,1929.05
563.708,1969.25
563.875,2034.35
564.042,2061.95
564.209,1988.2
564.376,1944.15
564.544,1940.85
564.711,1940.95
564.878,1928.85
565.045,1934.85
565.212,1934.5
565.379,1933.6
565.546,1939.55
565.713,1952.6
565.881,2027.8
566.048,2121.0
566.215,2186.8
566.382,2035.35
566.549,1944.75
566.716,1930.4
566.883,1924.65
567.05,1927.3
567.217,1929.0
567.384,1943.85
567.551,1930.5
567.718,1918.9
567.885,1922.2
568.052,1917.6
568.219,1916.45
568.386,1916.55
568.553,1918.3
568.72,1917.45
568.887,1919.5
569.054,1916.6
569.221,1923.9
569.388,1915.0
569.555,1918.15
569.722,1920.0
569.888,1918.35
570.055,1921.05
570.222,1922.1
570.389,1923.0
570.556,1925.3
570.723,1933.4
570.89,1932.1
571.057,1940.95
571.224,1995.65
571.39,2124.4
571.557,2191.3
571.724,2048.45
571.891,1963.6
572.058,1944.9
572.225,1934.75
572.391,1931.3
572.558,1925.35
572.725,1921.7
572.892,1917.85
573.059,1924.25
573.225,1920.2
573.392,1920.85
573.559,1920.8
573.726,1928.65
573.892,1934.25
574.059,1929.75
574.226,1923.2
574.393,1921.0
574.559,1919.3
574.726,1915.9
574.893,1921.2
575.059,1933.3
575.226,1960.6
575.393,2046.1
575.559,2089.95
575.726,2026.4
575.893,2014.65
576.059,2024.65
576.226,2060.25
576.393,2055.0
576.559,2023.6
576.726,2011.85
576.893,2013.9
577.059,2010.4
577.226,1987.25
577.392,1959.3
577.559,1943.3
577.726,1936.8
577.892,1930.95
578.059,1919.85
578.225,1925.6
578.392,1923.05
578.558,1917.1
578.725,1924.2
578.891,1921.25
579.058,1920.65
579.224,1921.85
579.391,1923.85
579.557,1922.4
579.724,1923.65
579.89,1920.05
580.057,1923.05
580.223,1919.1
580.39,1921.0
580.556,1914.4
580.723,1921.15
580.889,1921.35
581.056,1919.65
581.222,1912.85
581.388,1916.1
581.555,1915.75
581.721,1917.25
581.888,1919.05
582.054,1915.5
582.22,1916.5
582.387,1914.0
582.553,1914.7
582.719,1917.4
582.886,1918.65
583.052,1914.55
583.219,1916.3
583.385,1912.2
583.551,1914.05
583.717,1918.05
583.884,1914.7
584.05,1910.25
584.216,1915.35
584.383,1908.4
584.549,1917.2
584.715,1916.8
584.881,1916.9
585.048,1911.05
585.214,1915.15
585.38,1909.1
585.546,1912.9
585.713,1910.6
585.879,1916.15
586.045,1916.1
586.211,1918.35
586.377,1914.9
586.544,1911.0
586.71,1918.9
586.876,1913.45
587.042,1917.55
587.208,1914.9
587.374,1912.55
587.541,1913.65
587.707,1918.75
587.873,1913.85
588.039,1919.0
588.205,1917.3
588.371,1909.15
588.537,1917.25
588.703,1914.4
588.869,1915.2
589.035,1912.55
589.201,1912.45
589.368,1910.05
589.534,1914.85
589.7,1908.4
589.866,1911.85
590.032,1914.35
590.198,1910.9
590.364,1915.7
590.53,1913.55
590.696,1914.2
590.862,1914.55
591.028,1916.0
591.194,1921.05
591.36,1908.75
591.525,1912.95
591.691,1917.1
591.857,1916.0
592.023,1915.0
592.189,1918.35
592.355,1913.35
592.521,1915.25
592.687,1917.8
592.853,1917.85
593.019,1917.8
593.185,1919.65
593.35,1911.45
593.516,1915.4
593.682,1920.55
593.848,1916.3
594.014,1915.4
594.18,1915.6
594.345,1915.2
594.511,1912.3
594.677,1919.55
594.843,1918.15
595.009,1917.4
595.174,1916.95
595.34,1922.35
595.506,1921.2
595.672,1917.8
595.837,1920.25
596.003,1917.75
596.169,1917.35
596.335,1921.9
596.5,1919.7
596.666,1919.35
596.832,1922.4
596.997,1919.5
597.163,1921.6
597.329,1921.2
597.494,1920.15
597.66,1921.35
597.826,1920.85
597.991,1921.45
598.157,1919.7
598.323,1922.35
598.488,1921.65
598.654,1922.05
598.819,1925.55
598.985,1923.05
599.151,1921.95
599.316,1926.55
599.482,1925.4
599.647,1925.3
599.813,1927.05
599.978,1928.35
600.144,1925.75
600.309,1925.65
600.475,1925.6
600.641,1926.5
600.806,1917.65
600.972,1929.05
601.137,1924.8
601.302,1922.8
601.468,1925.45
601.633,1924.9
601.799,1929.3
601.964,1932.2
602.13,1932.05
602.295,1926.3
602.461,1933.6
602.626,1930.8
602.791,1926.6
602.957,1923.45
603.122,1923.9
603.288,1926.9
603.453,1923.35
603.618,1923.55
603.784,1923.9
603.949,1925.95
604.114,1919.25
604.28,1924.35
604.445,1920.9
604.61,1924.05
604.776,1928.65
604.941,1919.85
605.106,1920.3
605.272,1925.25
605.437,1928.1
605.602,1922.0
605.767,1921.75
605.933,1921.7
606.098,1918.75
606.263,1920.75
606.428,1926.55
606.593,1924.85
606.759,1920.25
606.924,1920.55
607.089,1917.15
607.254,1921.55
607.419,1924.45
607.585,1920.1
607.75,1923.25
607.915,1918.4
608.08,1920.5
608.245,1921.1
608.41,1920.15
608.575,1921.9
608.74,1925.15
608.906,1919.95
609.071,1919.35
609.236,1920.45
609.401,1918.6
609.566,1915.9
609.731,1920.3
609.896,1922.15
610.061,1919.0
610.226,1917.95
610.391,1920.2
610.556,1928.95
610.721,1925.1
610.886,1928.5
611.051,1927.3
611.216,1927.9
611.381,1924.4
611.546,1927.0
611.711,1928.65
611.876,1918.35
612.041,1919.4
612.206,1922.25
612.371,1917.15
612.536,1922.0
612.7,1923.4
612.865,1921.85
613.03,1915.2
613.195,1917.35
613.36,1913.8
613.525,1920.15
613.69,1917.6
613.855,1920.3
614.019,1921.15
614.184,1919.1
614.349,1917.6
614.514,1911.2
614.679,1921.2
614.843,1919.05
615.008,1925.7
615.173,1916.6
615.338,1920.8
615.503,1917.3
615.667,1923.6
615.832,1923.7
615.997,1928.0
616.161,1920.75
616.326,1927.35
616.491,1923.45
616.656,1920.55
616.82,1927.05
616.985,1931.1
617.15,1933.4
617.314,1930.15
617.479,1928.7
617.644,1931.05
617.808,1932.45
617.973,1932.8
618.137,1930.1
618.302,1930.05
618.467,1929.65
618.631,1931.15
618.796,1928.2
618.96,1928.8
619.125,1935.95
619.289,1937.45
619.454,1935.6
619.619,1940.65
619.783,1944.0
619.948,1938.1
620.112,1930.95
620.277,1933.0
620.441,1936.25
620.606,1939.35
620.77,1938.5
620.935,1939.4
621.099,1950.0
621.263,1955.6
621.428,1955.3
621.592,1970.25
621.757,1977.95
621.921,1986.8
622.086,1993.25
622.25,1998.1
622.414,1987.55
622.579,1982.6
622.743,1965.3
622.907,1951.85
623.072,1945.85
623.236,1945.0
623.401,1934.3
623.565,1940.7
623.729,1929.6
623.893,1933.5
624.058,1936.0
624.222,1931.9
624.386,1934.7
624.551,1939.85
624.715,1937.7
624.879,1935.65
625.043,1939.95
625.208,1939.05
625.372,1940.9
625.536,1945.85
625.7,1955.2
625.864,1960.1
626.029,1972.5
626.193,1994.2
626.357,2044.2
626.521,2129.8
626.685,2295.15
626.849,2582.9
627.014,2933.7
627.178,2993.5
627.342,2921.95
627.506,2743.35
627.67,2640.75
627.834,2564.95
627.998,2554.0
628.162,2660.95
628.326,2855.65
628.49,3042.25
628.654,2808.15
628.818,2540.55
628.983,2489.3
629.147,2448.45
629.311,2407.5
629.475,2384.75
629.639,2308.0
629.803,2272.4
629.966,2232.8
630.13,2249.55
630.294,2225.95
630.458,2218.45
630.622,2170.45
630.786,2111.45
630.95,2068.15
631.114,2017.05
631.278,1979.4
631.442,1968.0
631.606,1965.05
631.77,1955.5
631.933,1945.95
632.097,1932.55
632.261,1935.7
632.425,1933.45
632.589,1931.25
632.753,1929.3
632.916,1927.8
633.08,1922.95
633.244,1932.75
633.408,1923.9
633.572,1922.75
633.735,1922.2
633.899,1921.05
634.063,1920.05
634.227,1916.05
634.39,1919.45
634.554,1913.45
634.718,1917.0
634.881,1915.25
635.045,1916.6
635.209,1912.1
635.372,1919.45
635.536,1911.0
635.7,1915.55
635.863,1910.55
636.027,1913.35
636.191,1913.9
636.354,1913.8
636.518,1910.4
636.681,1909.6
636.845,1910.1
637.009,1907.65
637.172,1904.5
637.336,1908.35
637.499,1905.05
637.663,1905.55
637.826,1906.25
637.99,1906.8
638.153,1905.25
638.317,1905.3
638.48,1901.45
638.644,1905.0
638.807,1901.25
638.971,1905.5
639.134,1900.5
639.298,1902.15
639.461,1901.2
639.625,1900.5
639.788,1901.9
639.951,1904.05
640.115,1904.65
640.278,1904.35
640.441,1901.55
640.605,1896.35
640.768,1903.2
640.932,1895.45
641.095,1902.95
641.258,1899.5
641.422,1900.0
641.585,1902.15
641.748,1900.2
641.911,1898.95
642.075,1899.2
642.238,1897.5
642.401,1900.9
642.565,1902.5
642.728,1899.15
642.891,1901.45
643.054,1903.05
643.217,1897.45
643.381,1898.8
643.544,1902.55
643.707,1898.3
643.87,1895.75
644.033,1901.15
644.197,1898.15
644.36,1896.4
644.523,1898.0
644.686,1893.0
644.849,1898.25
645.012,1898.25
645.175,1897.05
645.338,1896.65
645.501,1901.75
645.664,1894.2
645.828,1895.25
645.991,1895.0
646.154,1900.5
646.317,1898.7
646.48,1897.8
646.643,1899.75
646.806,1895.85
646.969,1895.6
647.132,1899.0
647.295,1894.05
647.458,1893.9
647.621,1898.8
647.783,1895.4
647.946,1895.7
648.109,1898.85
648.272,1898.5
648.435,1893.55
648.598,1897.2
648.761,1894.5
648.924,1894.7
649.087,1892.8
649.25,1894.0
649.412,1894.0
649.575,1893.85
649.738,1893.2
649.901,1893.75
650.064,1893.45
650.226,1893.05
650.389,1894.1
650.552,1894.2
650.715,1891.9
650.878,1894.35
651.04,1891.9
651.203,1892.0
651.366,1895.25
651.528,1896.2
651.691,1895.1
651.854,1894.1
652.017,1892.5
652.179,1891.95
652.342,1896.6
652.505,1892.55
652.667,1891.3
652.83,1892.3
652.992,1894.25
653.155,1889.9
653.318,1893.85
653.48,1889.95
653.643,1886.5
653.805,1893.6
653.968,1892.55
654.131,1890.65
654.293,1892.7
654.456,1890.6
654.618,1887.85
654.781,1891.25
654.943,1890.7
655.106,1891.95
655.268,1889.2
655.431,1890.25
655.593,1886.9
655.756,1894.15
655.918,1888.7
656.081,1890.1
656.243,1886.85
656.405,1889.75
656.568,1893.3
656.73,1890.2
656.893,1888.95
657.055,1890.15
657.217,1885.95
657.38,1891.65
657.542,1891.15
657.704,1887.35
657.867,1886.85
658.029,1884.95
658.191,1889.05
658.354,1885.4
658.516,1885.7
658.678,1891.25
658.84,1887.85
659.003,1887.1
659.165,1886.85
659.327,1886.8
659.489,1886.6
659.652,1887.1
659.814,1891.95
659.976,1886.1
660.138,1887.9
660.3,1883.65
660.463,1885.7
660.625,1886.35
660.787,1884.35
660.949,1885.25
661.03,1886.3