File: spectra/VLFR_02-HDPE_bio_Raman_9f3aff18.csv
nm,Intensity
528.629,1852.7
528.797,1851.55
528.965,1853.0
529.134,1852.85
529.302,1852.3
529.471,1853.5
529.639,1851.4
529.808,1852.35
529.976,1852.45
530.145,1853.4
530.313,1853.9
530.481,1852.65
530.65,1852.45
530.818,1853.05
530.987,1852.25
531.155,1853.85
531.323,1856.25
531.492,1857.15
531.66,1875.1
531.829,2200.15
531.997,2893.35
532.165,2573.5
532.334,1905.7
532.502,1855.0
532.67,1853.75
532.839,1852.95
533.007,1853.6
533.175,1852.3
533.344,1852.2
533.512,1854.7
533.68,1865.15
533.848,1886.65
534.017,1899.65
534.185,1900.75
534.353,1894.45
534.522,1895.55
534.69,1896.85
534.858,1896.2
535.026,1895.7
535.195,1893.2
535.363,1887.3
535.531,1883.4
535.699,1882.6
535.868,1882.3
536.036,1880.4
536.204,1881.85
536.372,1878.3
536.54,1878.5
536.709,1880.0
536.877,1881.0
537.045,1878.8
537.213,1877.05
537.381,1875.95
537.55,1880.05
537.718,1878.8
537.886,1877.2
538.054,1879.5
538.222,1877.2
538.39,1874.3
538.558,1875.65
538.727,1877.45
538.895,1876.2
539.063,1877.2
539.231,1874.25
539.399,1874.95
539.567,1876.0
539.735,1876.2
539.903,1874.8
540.071,1875.8
540.239,1877.95
540.408,1874.0
540.576,1874.5
540.744,1873.6
540.912,1874.95
541.08,1875.4
541.248,1872.35
541.416,1873.95
541.584,1873.5
541.752,1877.15
541.92,1873.9
542.088,1875.05
542.256,1876.75
542.424,1878.15
542.592,1875.9
542.76,1875.85
542.928,1873.2
543.096,1876.25
543.264,1875.9
543.432,1872.9
543.6,1877.45
543.768,1873.55
543.936,1876.65
544.104,1874.05
544.271,1877.75
544.439,1875.3
544.607,1874.7
544.775,1875.9
544.943,1876.9
545.111,1875.55
545.279,1876.4
545.447,1874.15
545.615,1876.05
545.783,1874.6
545.95,1875.25
546.118,1877.15
546.286,1876.85
546.454,1875.55
546.622,1874.95
546.79,1876.5
546.957,1876.05
547.125,1875.3
547.293,1876.25
547.461,1874.5
547.629,1875.25
547.797,1879.2
547.964,1875.1
548.132,1875.95
548.3,1876.45
548.468,1877.75
548.635,1878.0
548.803,1881.35
548.971,1879.35
549.139,1874.9
549.306,1878.25
549.474,1877.2
549.642,1876.9
549.81,1878.15
549.977,1876.5
550.145,1880.75
550.313,1878.4
550.48,1878.2
550.648,1879.35
550.816,1880.35
550.983,1877.05
551.151,1878.95
551.319,1878.35
551.486,1879.4
551.654,1879.45
551.822,1880.05
551.989,1880.45
552.157,1881.85
552.325,1882.05
552.492,1879.85
552.66,1882.3
552.828,1879.25
552.995,1878.9
553.163,1880.65
553.33,1881.0
553.498,1880.8
553.665,1881.75
553.833,1879.6
554.001,1880.9
554.168,1880.0
554.336,1880.35
554.503,1882.0
554.671,1883.35
554.838,1881.35
555.006,1882.25
555.173,1882.85
555.341,1884.2
555.508,1882.75
555.676,1885.05
555.843,1883.45
556.011,1885.75
556.178,1882.15
556.346,1883.0
556.513,1885.95
556.681,1885.85
556.848,1885.15
557.016,1888.35
557.183,1886.3
557.35,1885.95
557.518,1887.35
557.685,1887.55
557.853,1886.2
558.02,1888.4
558.188,1889.8
558.355,1887.05
558.522,1889.65
558.69,1893.65
558.857,1887.45
559.024,1888.0
559.192,1888.9
559.359,1892.6
559.526,1887.1
559.694,1888.0
559.861,1887.45
560.028,1888.8
560.196,1889.3
560.363,1888.25
560.53,1888.75
560.698,1890.6
560.865,1887.5
561.032,1887.65
561.2,1888.35
561.367,1888.3
561.534,1887.3
561.701,1892.6
561.869,1886.35
562.036,1891.6
562.203,1894.35
562.37,1891.35
562.538,1892.25
562.705,1895.2
562.872,1891.3
563.039,1895.3
563.206,1893.25
563.374,1897.2
563.541,1904.45
563.708,1927.15
563.875,1968.65
564.042,2004.95
564.209,1944.9
564.376,1915.35
564.544,1908.45
564.711,1907.9
564.878,1904.1
565.045,1906.5
565.212,1905.5
565.379,1904.6
565.546,1908.65
565.713,1921.75
565.881,1963.8
566.048,2044.15
566.215,2065.6
566.382,1964.5
566.549,1912.85
566.716,1904.7
566.883,1897.8
567.05,1896.15
567.217,1904.35
567.384,1902.05
567.551,1905.1
567.718,1901.4
567.885,1896.5
568.052,1898.9
568.219,1894.35
568.386,1895.15
568.553,1896.45
568.72,1896.05
568.887,1895.3
569.054,1895.8
569.221,1895.3
569.388,1896.8
569.555,1898.95
569.722,1894.7
569.888,1899.9
570.055,1900.85
570.222,1897.1
570.389,1899.75
570.556,1905.8
570.723,1906.1
570.89,1901.5
571.057,1914.6
571.224,1944.05
571.39,2033.65
571.557,2062.95
571.724,1979.4
571.891,1923.55
572.058,1913.8
572.225,1909.5
572.391,1905.05
572.558,1903.5
572.725,1903.25
572.892,1895.8
573.059,1896.5
573.225,1895.5
573.392,1898.95
573.559,1898.8
573.726,1902.35
573.892,1908.9
574.059,1909.85
574.226,1899.55
574.393,1897.6
574.559,1896.7
574.726,1892.4
574.893,1899.75
575.059,1902.4
575.226,1929.4
575.393,1973.9
575.559,2003.65
575.726,1966.2
575.893,1957.25
576.059,1972.75
576.226,1996.15
576.393,1986.85
576.559,1973.95
576.726,1963.7
576.893,1960.95
577.059,1958.0
577.226,1941.95
577.392,1920.95
577.559,1915.0
577.726,1904.9
577.892,1901.1
578.059,1903.85
578.225,1897.35
578.392,1895.25
578.558,1896.9
578.725,1892.9
578.891,1896.9
579.058,1895.8
579.224,1896.3
579.391,1896.25
579.557,1895.35
579.724,1897.85
579.89,1898.3
580.057,1895.2
580.223,1897.0
580.39,1896.85
580.556,1896.05
580.723,1891.9
580.889,1899.05
581.056,1893.95
581.222,1895.8
581.388,1897.9
581.555,1894.25
581.721,1893.75
581.888,1898.85
582.054,1892.85
582.22,1898.35
582.387,1896.15
582.553,1892.7
582.719,1896.4
582.886,1891.6
583.052,1894.45
583.219,1893.85
583.385,1894.15
583.551,1893.55
583.717,1891.95
583.884,1895.1
584.05,1896.75
584.216,1893.6
584.383,1896.6
584.549,1892.1
584.715,1894.85
584.881,1892.65
585.048,1894.8
585.214,1897.95
585.38,1893.55
585.546,1892.65
585.713,1895.4
585.879,1893.4
586.045,1894.6
586.211,1892.35
586.377,1894.45
586.544,1893.25
586.71,1895.0
586.876,1893.25
587.042,1892.6
587.208,1893.35
587.374,1894.1
587.541,1897.0
587.707,1891.8
587.873,1894.35
588.039,1895.55
588.205,1892.15
588.371,1893.65
588.537,1895.15
588.703,1897.35
588.869,1895.9
589.035,1895.9
589.201,1891.3
589.368,1894.7
589.534,1896.0
589.7,1895.8
589.866,1894.05
590.032,1894.35
590.198,1894.1
590.364,1895.3
590.53,1896.35
590.696,1898.8
590.862,1894.0
591.028,1896.3
591.194,1893.65
591.36,1896.35
591.525,1892.45
591.691,1895.65
591.857,1892.25
592.023,1898.7
592.189,1893.35
592.355,1899.8
592.521,1894.4
592.687,1895.3
592.853,1895.05
593.019,1895.8
593.185,1894.7
593.35,1897.1
593.516,1896.85
593.682,1894.55
593.848,1894.1
594.014,1896.25
594.18,1895.15
594.345,1898.0
594.511,1894.35
594.677,1895.4
594.843,1893.95
595.009,1894.2
595.174,1896.8
595.34,1901.0
595.506,1895.05
595.672,1897.65
595.837,1900.95
596.003,1895.45
596.169,1898.55
596.335,1897.65
596.5,1901.65
596.666,1896.95
596.832,1894.45
596.997,1898.95
597.163,1899.0
597.329,1898.8
597.494,1897.1
597.66,1899.65
597.826,1898.75
597.991,1898.75
598.157,1900.3
598.323,1899.65
598.488,1898.35
598.654,1900.4
598.819,1900.5
598.985,1902.35
599.151,1902.2
599.316,1901.7
599.482,1904.75
599.647,1902.0
599.813,1902.6
599.978,1902.85
600.144,1902.9
600.309,1901.2
600.475,1900.4
600.641,1900.15
600.806,1900.45
600.972,1901.95
601.137,1900.0
601.302,1899.75
601.468,1901.8
601.633,1898.3
601.799,1903.6
601.964,1900.25
602.13,1905.25
602.295,1904.8
602.461,1898.55
602.626,1900.7
602.791,1900.15
602.957,1904.75
603.122,1900.1
603.288,1900.2
603.453,1895.15
603.618,1903.7
603.784,1900.2
603.949,1902.4
604.114,1900.5
604.28,1897.0
604.445,1898.65
604.61,1899.85
604.776,1899.05
604.941,1900.75
605.106,1899.7
605.272,1894.85
605.437,1900.7
605.602,1897.5
605.767,1898.55
605.933,1897.4
606.098,1895.15
606.263,1895.05
606.428,1898.55
606.593,1898.5
606.759,1897.25
606.924,1894.5
607.089,1899.8
607.254,1897.3
607.419,1899.65
607.585,1897.55
607.75,1897.65
607.915,1896.0
608.08,1891.6
608.245,1898.2
608.41,1897.2
608.575,1898.1
608.74,1897.25
608.906,1897.05
609.071,1896.45
609.236,1895.15
609.401,1896.0
609.566,1897.3
609.731,1894.3
609.896,1900.5
610.061,1898.5
610.226,1894.85
610.391,1894.75
610.556,1899.55
610.721,1901.35
610.886,1905.45
611.051,1901.5
611.216,1899.15
611.381,1898.9
611.546,1899.0
611.711,1900.25
611.876,1897.9
612.041,1896.25
612.206,1896.55
612.371,1894.85
612.536,1892.4
612.7,1896.8
612.865,1893.2
613.03,1895.6
613.195,1893.6
613.36,1898.9
613.525,1894.7
613.69,1895.0
613.855,1898.35
614.019,1895.35
614.184,1892.35
614.349,1895.15
614.514,1894.8
614.679,1896.3
614.843,1896.9
615.008,1892.55
615.173,1894.6
615.338,1894.3
615.503,1896.5
615.667,1896.25
615.832,1894.35
615.997,1901.1
616.161,1895.35
616.326,1900.25
616.491,1898.3
616.656,1895.2
616.82,1900.5
616.985,1899.45
617.15,1903.4
617.314,1900.35
617.479,1900.25
617.644,1899.25
617.808,1901.9
617.973,1902.5
618.137,1902.6
618.302,1902.0
618.467,1903.5
618.631,1901.85
618.796,1898.25
618.96,1901.7
619.125,1902.25
619.289,1906.95
619.454,1903.65
619.619,1903.8
619.783,1904.5
619.948,1904.55
620.112,1904.6
620.277,1903.35
620.441,1903.3
620.606,1909.55
620.77,1907.4
620.935,1908.1
621.099,1908.4
621.263,1916.65
621.428,1917.0
621.592,1928.6
621.757,1930.15
621.921,1929.9
622.086,1942.9
622.25,1947.9
622.414,1942.75
622.579,1930.35
622.743,1919.0
622.907,1914.55
623.072,1911.45
623.236,1909.0
623.401,1902.05
623.565,1905.2
623.729,1912.35
623.893,1906.2
624.058,1906.45
624.222,1905.65
624.386,1903.25
624.551,1906.15
624.715,1905.1
624.879,1909.75
625.043,1905.65
625.208,1912.75
625.372,1913.65
625.536,1910.95
625.7,1912.65
625.864,1924.05
626.029,1931.45
626.193,1938.65
626.357,1968.2
626.521,2033.6
626.685,2145.9
626.849,2320.65
627.014,2513.75
627.178,2544.05
627.342,2526.55
627.506,2425.8
627.67,2345.55
627.834,2289.6
627.998,2304.25
628.162,2339.05
628.326,2483.9
628.49,2563.2
628.654,2470.1
628.818,2320.75
628.983,2269.8
629.147,2250.4
629.311,2247.0
629.475,2198.2
629.639,2148.05
629.803,2135.85
629.966,2100.55
630.13,2129.25
630.294,2104.75
630.458,2099.5
630.622,2063.85
630.786,2034.25
630.95,1987.95
631.114,1965.35
631.278,1938.7
631.442,1928.65
631.606,1927.0
631.77,1915.1
631.933,1917.95
632.097,1910.6
632.261,1904.8
632.425,1908.2
632.589,1905.8
632.753,1904.0
632.916,1905.65
633.08,1898.8
633.244,1897.95
633.408,1900.35
633.572,1898.85
633.735,1897.25
633.899,1898.45
634.063,1898.7
634.227,1896.05
634.39,1891.45
634.554,1893.95
634.718,1892.65
634.881,1893.8
635.045,1894.85
635.209,1893.75
635.372,1889.3
635.536,1893.8
635.7,1888.0
635.863,1889.75
636.027,1888.7
636.191,1888.2
636.354,1892.1
636.518,1891.0
636.681,1891.2
636.845,1889.35
637.009,1888.05
637.172,1887.55
637.336,1886.1
637.499,1884.65
637.663,1884.45
637.826,1882.9
637.99,1885.55
638.153,1886.0
638.317,1886.5
638.48,1884.2
638.644,1884.1
638.807,1884.75
638.971,1883.55
639.134,1882.25
639.298,1886.25
639.461,1885.8
639.625,1883.2
639.788,1883.9
639.951,1879.7
640.115,1885.2
640.278,1885.25
640.441,1880.1
640.605,1880.4
640.768,1882.5
640.932,1882.75
641.095,1882.55
641.258,1884.3
641.422,1881.4
641.585,1882.15
641.748,1883.05
641.911,1882.0
642.075,1882.0
642.238,1881.5
642.401,1880.9
642.565,1880.1
642.728,1882.5
642.891,1885.05
643.054,1881.25
643.217,1880.25
643.381,1881.0
643.544,1881.7
643.707,1880.55
643.87,1882.25
644.033,1880.9
644.197,1883.95
644.36,1879.15
644.523,1880.9
644.686,1883.15
644.849,1881.25
645.012,1878.6
645.175,1880.75
645.338,1879.7
645.501,1880.15
645.664,1880.2
645.828,1879.85
645.991,1880.65
646.154,1880.9
646.317,1878.45
646.48,1881.4
646.643,1877.6
646.806,1882.2
646.969,1879.45
647.132,1877.95
647.295,1881.85
647.458,1884.05
647.621,1880.7
647.783,1878.4
647.946,1880.55
648.109,1883.15
648.272,1878.15
648.435,1880.35
648.598,1883.25
648.761,1879.2
648.924,1881.0
649.087,1878.55
649.25,1878.15
649.412,1877.0
649.575,1879.75
649.738,1879.45
649.901,1878.75
650.064,1879.05
650.226,1878.3
650.389,1881.95
650.552,1880.9
650.715,1880.6
650.878,1877.55
651.04,1877.45
651.203,1875.7
651.366,1879.6
651.528,1875.6
651.691,1876.75
651.854,1882.05
652.017,1877.75
652.179,1875.65
652.342,1882.1
652.505,1877.2
652.667,1880.45
652.83,1875.75
652.992,1878.65
653.155,1877.65
653.318,1878.1
653.48,1877.55
653.643,1876.35
653.805,1877.5
653.968,1874.5
654.131,1877.2
654.293,1877.25
654.456,1879.2
654.618,1877.5
654.781,1874.95
654.943,1879.35
655.106,1876.0
655.268,1873.6
655.431,1875.35
655.593,1875.2
655.756,1878.0
655.918,1876.55
656.081,1876.1
656.243,1875.6
656.405,1874.45
656.568,1876.35
656.73,1874.55
656.893,1873.5
657.055,1874.35
657.217,1875.1
657.38,1877.05
657.542,1876.35
657.704,1873.25
657.867,1874.1
658.029,1875.4
658.191,1875.1
658.354,1876.7
658.516,1876.25
658.678,1873.2
658.84,1874.55
659.003,1873.9
659.165,1873.55
659.327,1871.65
659.489,1873.4
659.652,1872.9
659.814,1873.85
659.976,1873.65
660.138,1877.25
660.3,1872.65
660.463,1876.6
660.625,1873.45
660.787,1873.05
660.949,1874.55
661.03,1873.85