File: spectra/VLFR_08-PLA_bio_Raman_108fbacb.csv
nm,Intensity
528.65,1847.0
528.819,1848.0
528.987,1848.6
529.155,1848.3
529.324,1847.75
529.492,1847.6
529.66,1848.85
529.829,1848.4
529.997,1847.1
530.165,1848.75
530.334,1848.45
530.502,1847.95
530.67,1848.8
530.839,1849.05
531.007,1848.9
531.175,1849.0
531.344,1850.0
531.512,1851.1
531.68,1863.15
531.848,2039.2
532.017,2535.2
532.185,2430.95
532.353,1902.25
532.521,1850.35
532.69,1848.3
532.858,1848.6
533.026,1849.25
533.194,1847.95
533.363,1849.8
533.531,1852.9
533.699,1875.2
533.867,1923.65
534.036,1953.2
534.204,1962.05
534.372,1959.8
534.54,1953.65
534.708,1957.4
534.877,1952.35
535.045,1958.75
535.213,1959.3
535.381,1965.8
535.549,1964.7
535.717,1966.25
535.886,1962.8
536.054,1957.2
536.222,1956.0
536.39,1964.5
536.558,1969.6
536.726,1964.25
536.894,1961.05
537.062,1960.6
537.231,1961.25
537.399,1972.55
537.567,1973.35
537.735,1967.05
537.903,1971.7
538.071,1965.55
538.239,1968.55
538.407,1973.4
538.575,1973.45
538.743,1973.05
538.911,1968.75
539.079,1969.85
539.247,1976.6
539.415,1973.75
539.583,1972.35
539.751,1972.1
539.919,1974.55
540.087,1975.75
540.255,1976.2
540.423,1980.25
540.591,1988.85
540.759,1986.2
540.927,1990.5
541.095,1979.9
541.263,1985.8
541.431,1981.5
541.599,1991.45
541.767,1985.55
541.935,1985.7
542.103,1989.3
542.271,1986.3
542.439,1992.95
542.607,1998.15
542.775,1995.15
542.943,1998.35
543.111,1996.7
543.279,1998.4
543.446,2002.4
543.614,2002.6
543.782,2007.9
543.95,2002.3
544.118,2011.35
544.286,2004.2
544.454,2006.25
544.622,2007.8
544.789,2000.8
544.957,2005.95
545.125,2012.8
545.293,2012.1
545.461,2006.75
545.629,2004.1
545.796,2006.15
545.964,2008.95
546.132,2009.6
546.3,2010.75
546.468,2008.55
546.635,2010.75
546.803,2012.8
546.971,2014.05
547.139,2022.85
547.306,2022.1
547.474,2021.0
547.642,2018.35
547.81,2020.5
547.977,2021.55
548.145,2019.25
548.313,2020.15
548.481,2030.35
548.648,2028.35
548.816,2011.35
548.984,2023.4
549.151,2029.25
549.319,2024.8
549.487,2026.8
549.655,2022.7
549.822,2029.65
549.99,2021.95
550.158,2032.55
550.325,2028.25
550.493,2031.0
550.66,2025.65
550.828,2031.85
550.996,2028.4
551.163,2038.75
551.331,2035.3
551.499,2036.6
551.666,2046.05
551.834,2037.2
552.001,2042.5
552.169,2041.8
552.337,2033.65
552.504,2041.4
552.672,2044.5
552.839,2053.3
553.007,2041.7
553.174,2034.0
553.342,2039.25
553.509,2045.1
553.677,2043.7
553.844,2044.2
554.012,2050.55
554.179,2052.0
554.347,2045.95
554.514,2053.65
554.682,2048.45
554.849,2045.25
555.017,2055.05
555.184,2055.15
555.352,2048.1
555.519,2046.1
555.687,2053.3
555.854,2048.6
556.022,2051.15
556.189,2051.95
556.357,2049.6
556.524,2047.5
556.691,2046.25
556.859,2051.7
557.026,2052.9
557.194,2056.1
557.361,2060.45
557.528,2066.05
557.696,2067.25
557.863,2081.55
558.031,2091.1
558.198,2093.5
558.365,2063.5
558.533,2065.35
558.7,2061.9
558.867,2063.7
559.035,2067.3
559.202,2067.8
559.369,2067.85
559.537,2057.8
559.704,2058.6
559.871,2063.7
560.038,2068.15
560.206,2069.05
560.373,2060.85
560.54,2069.45
560.708,2063.75
560.875,2066.55
561.042,2061.05
561.209,2069.1
561.377,2066.55
561.544,2071.55
561.711,2066.6
561.878,2069.9
562.045,2072.25
562.213,2075.5
562.38,2075.3
562.547,2075.75
562.714,2074.4
562.881,2083.85
563.049,2076.6
563.216,2081.0
563.383,2084.75
563.55,2085.0
563.717,2079.2
563.884,2078.15
564.052,2089.25
564.219,2081.6
564.386,2080.0
564.553,2076.65
564.72,2082.1
564.887,2091.7
565.054,2091.5
565.221,2083.05
565.388,2085.35
565.556,2085.0
565.723,2101.75
565.89,2091.85
566.057,2093.95
566.224,2099.6
566.391,2100.15
566.558,2096.2
566.725,2080.3
566.892,2089.85
567.059,2090.0
567.226,2094.05
567.393,2085.9
567.56,2085.35
567.727,2094.75
567.894,2095.1
568.061,2093.85
568.228,2101.6
568.395,2087.6
568.562,2096.1
568.729,2090.4
568.896,2097.45
569.063,2105.2
569.23,2091.45
569.396,2094.15
569.563,2096.95
569.73,2098.5
569.897,2096.75
570.064,2101.25
570.231,2102.45
570.398,2093.55
570.565,2096.5
570.732,2098.7
570.898,2101.75
571.065,2102.15
571.232,2099.85
571.399,2105.95
571.566,2107.85
571.733,2105.5
571.9,2101.0
572.066,2115.2
572.233,2104.55
572.4,2095.45
572.567,2109.55
572.734,2110.55
572.9,2107.55
573.067,2108.1
573.234,2113.8
573.401,2110.25
573.567,2105.95
573.734,2111.65
573.901,2114.8
574.068,2103.5
574.234,2114.3
574.401,2113.05
574.568,2101.65
574.734,2105.3
574.901,2106.8
575.068,2108.15
575.235,2111.8
575.401,2103.55
575.568,2100.9
575.735,2107.9
575.901,2119.05
576.068,2110.05
576.235,2130.85
576.401,2112.5
576.568,2123.65
576.734,2128.6
576.901,2124.0
577.068,2130.3
577.234,2113.55
577.401,2108.8
577.567,2121.5
577.734,2109.9
577.901,2117.9
578.067,2115.85
578.234,2102.2
578.4,2093.8
578.567,2112.65
578.733,2108.9
578.9,2114.35
579.066,2109.85
579.233,2104.6
579.399,2107.5
579.566,2115.5
579.732,2110.95
579.899,2102.15
580.065,2114.2
580.232,2111.3
580.398,2109.25
580.565,2106.35
580.731,2118.05
580.898,2107.6
581.064,2121.65
581.231,2115.9
581.397,2106.2
581.563,2114.5
581.73,2115.05
581.896,2105.55
582.063,2111.55
582.229,2103.85
582.395,2118.15
582.562,2105.9
582.728,2111.6
582.895,2108.1
583.061,2119.2
583.227,2113.45
583.394,2122.45
583.56,2115.15
583.726,2117.05
583.893,2116.2
584.059,2115.95
584.225,2110.75
584.391,2108.65
584.558,2106.6
584.724,2114.05
584.89,2114.3
585.057,2113.65
585.223,2105.9
585.389,2111.95
585.555,2108.45
585.722,2112.85
585.888,2099.6
586.054,2115.6
586.22,2095.55
586.386,2121.7
586.553,2125.0
586.719,2116.85
586.885,2118.4
587.051,2124.4
587.217,2127.15
587.384,2128.05
587.55,2125.7
587.716,2129.25
587.882,2117.1
588.048,2115.45
588.214,2114.0
588.38,2111.05
588.546,2111.4
588.713,2115.0
588.879,2114.85
589.045,2105.25
589.211,2102.85
589.377,2098.95
589.543,2101.2
589.709,2097.7
589.875,2104.45
590.041,2103.0
590.207,2101.5
590.373,2107.45
590.539,2102.85
590.705,2109.45
590.871,2111.7
591.037,2108.3
591.203,2107.0
591.369,2112.6
591.535,2105.8
591.701,2108.8
591.867,2107.2
592.033,2112.35
592.199,2115.6
592.365,2110.9
592.531,2106.55
592.697,2100.9
592.863,2104.9
593.029,2104.1
593.195,2117.55
593.361,2106.35
593.526,2113.25
593.692,2102.45
593.858,2103.85
594.024,2102.95
594.19,2107.45
594.356,2111.1
594.522,2094.8
594.687,2096.75
594.853,2104.35
595.019,2108.9
595.185,2106.7
595.351,2103.6
595.516,2109.25
595.682,2115.5
595.848,2111.7
596.014,2103.9
596.18,2107.65
596.345,2107.2
596.511,2109.8
596.677,2112.65
596.843,2116.55
597.008,2105.55
597.174,2102.9
597.34,2110.85
597.505,2107.8
597.671,2107.55
597.837,2108.5
598.002,2107.7
598.168,2093.15
598.334,2113.8
598.499,2098.4
598.665,2098.25
598.831,2097.45
598.996,2111.4
599.162,2115.5
599.328,2105.8
599.493,2108.85
599.659,2095.4
599.824,2105.8
599.99,2104.6
600.156,2092.55
600.321,2103.25
600.487,2104.6
600.652,2104.55
600.818,2102.75
600.983,2095.05
601.149,2100.15
601.314,2106.25
601.48,2103.25
601.645,2104.2
601.811,2111.15
601.976,2104.2
602.142,2113.8
602.307,2100.7
602.473,2099.3
602.638,2111.0
602.804,2111.5
602.969,2112.0
603.135,2093.9
603.3,2106.0
603.466,2106.05
603.631,2096.25
603.796,2100.5
603.962,2109.95
604.127,2087.25
604.293,2108.8
604.458,2100.15
604.623,2110.3
604.789,2093.0
604.954,2102.6
605.119,2092.9
605.285,2092.8
605.45,2094.4
605.615,2097.1
605.781,2108.45
605.946,2093.9
606.111,2104.3
606.277,2098.45
606.442,2099.3
606.607,2105.1
606.772,2096.2
606.938,2099.4
607.103,2091.75
607.268,2107.3
607.433,2099.15
607.599,2104.55
607.764,2100.9
607.929,2096.6
608.094,2097.1
608.259,2087.55
608.425,2106.1
608.59,2099.6
608.755,2088.95
608.92,2093.2
609.085,2091.4
609.25,2090.75
609.415,2083.6
609.581,2100.5
609.746,2104.7
609.911,2094.15
610.076,2088.95
610.241,2098.15
610.406,2083.2
610.571,2094.7
610.736,2090.85
610.901,2098.55
611.066,2091.95
611.231,2102.05
611.396,2089.8
611.561,2090.85
611.727,2098.4
611.892,2097.85
612.057,2094.65
612.222,2089.95
612.386,2088.15
612.551,2080.7
612.716,2097.7
612.881,2081.8
613.046,2092.6
613.211,2087.75
613.376,2100.6
613.541,2080.5
613.706,2082.1
613.871,2090.2
614.036,2084.55
614.201,2086.95
614.366,2083.4
614.531,2091.75
614.695,2081.6
614.86,2075.9
615.025,2089.0
615.19,2088.4
615.355,2086.1
615.52,2084.5
615.684,2077.2
615.849,2084.2
616.014,2090.95
616.179,2086.35
616.344,2090.95
616.508,2076.8
616.673,2082.7
616.838,2070.4
617.003,2076.3
617.168,2089.0
617.332,2087.3
617.497,2078.45
617.662,2072.65
617.826,2077.05
617.991,2078.65
618.156,2090.45
618.32,2087.9
618.485,2074.1
618.65,2080.6
618.814,2083.45
618.979,2074.8
619.144,2075.0
619.308,2083.9
619.473,2067.8
619.638,2084.05
619.802,2078.65
619.967,2081.8
620.131,2073.0
620.296,2075.25
620.461,2075.5
620.625,2071.55
620.79,2076.45
620.954,2079.45
621.119,2075.5
621.283,2071.2
621.448,2063.65
621.612,2070.95
621.777,2070.9
621.941,2073.7
622.106,2071.15
622.27,2073.75
622.435,2071.35
622.599,2072.15
622.764,2075.75
622.928,2076.55
623.093,2073.5
623.257,2071.05
623.422,2067.35
623.586,2074.3
623.75,2062.0
623.915,2069.35
624.079,2060.25
624.244,2070.75
624.408,2066.0
624.572,2071.8
624.737,2072.05
624.901,2056.3
625.065,2075.25
625.23,2067.05
625.394,2058.05
625.558,2061.45
625.723,2064.65
625.887,2062.65
626.051,2059.0
626.215,2057.9
626.38,2066.35
626.544,2056.55
626.708,2051.4
626.872,2066.85
627.037,2058.6
627.201,2061.15
627.365,2054.4
627.529,2063.45
627.693,2065.05
627.858,2053.9
628.022,2078.0
628.186,2072.55
628.35,2076.5
628.514,2077.85
628.678,2071.4
628.843,2067.65
629.007,2070.2
629.171,2063.9
629.335,2070.35
629.499,2067.65
629.663,2062.9
629.827,2059.45
629.991,2064.5
630.155,2072.7
630.319,2070.65
630.483,2066.3
630.647,2088.95
630.812,2118.1
630.976,2147.7
631.14,2143.1
631.304,2137.7
631.468,2120.3
631.632,2091.35
631.796,2077.9
631.959,2075.1
632.123,2073.75
632.287,2073.45
632.451,2071.2
632.615,2068.3
632.779,2076.15
632.943,2075.9
633.107,2094.4
633.271,2093.2
633.435,2079.2
633.599,2080.1
633.763,2083.45
633.926,2070.45
634.09,2056.7
634.254,2047.45
634.418,2058.8
634.582,2042.65
634.746,2041.55
634.909,2046.2
635.073,2040.8
635.237,2035.1
635.401,2038.75
635.564,2038.35
635.728,2033.65
635.892,2040.15
636.056,2037.75
636.219,2035.65
636.383,2034.65
636.547,2034.55
636.711,2033.95
636.874,2031.7
637.038,2031.4
637.202,2028.9
637.365,2030.7
637.529,2029.55
637.693,2035.7
637.856,2028.5
638.02,2031.9
638.184,2034.7
638.347,2028.05
638.511,2021.05
638.674,2023.85
638.838,2031.7
639.002,2031.5
639.165,2022.65
639.329,2020.4
639.492,2018.65
639.656,2019.65
639.819,2023.3
639.983,2018.1
640.146,2026.7
640.31,2028.15
640.473,2014.5
640.637,2016.65
640.8,2012.85
640.964,2022.8
641.127,2022.2
641.291,2009.05
641.454,2016.6
641.618,2016.7
641.781,2012.9
641.944,2011.2
642.108,2023.75
642.271,2016.1
642.435,2012.65
642.598,2016.6
642.761,2009.8
642.925,2015.0
643.088,2016.65
643.251,2009.25
643.415,2007.8
643.578,2014.3
643.741,2009.7
643.905,2009.65
644.068,2019.15
644.231,2007.65
644.394,2008.8
644.558,2004.75
644.721,2003.45
644.884,2001.35
645.047,2004.95
645.211,2003.2
645.374,1997.25
645.537,2012.05
645.7,2000.4
645.863,1997.95
646.027,1997.9
646.19,2004.05
646.353,2001.65
646.516,2003.55
646.679,1997.3
646.842,2008.5
647.005,1993.85
647.169,2000.15
647.332,1996.8
647.495,1982.1
647.658,2004.45
647.821,1998.75
647.984,1995.4
648.147,1989.6
648.31,1991.1
648.473,1988.25
648.636,1993.35
648.799,1991.65
648.962,1990.4
649.125,1985.0
649.288,1986.9
649.451,1981.45
649.614,1992.95
649.777,1984.0
649.94,1988.3
650.103,1981.8
650.266,1978.9
650.429,1990.25
650.592,1990.05
650.755,1988.2
650.918,1986.85
651.08,1983.5
651.243,1984.65
651.406,1978.5
651.569,1992.35
651.732,1974.6
651.895,1979.3
652.058,1976.8
652.22,1982.95
652.383,1980.5
652.546,1987.2
652.709,1982.65
652.872,1977.9
653.034,1974.2
653.197,1979.55
653.36,1972.95
653.523,1970.05
653.685,1982.2
653.848,1969.5
654.011,1976.4
654.173,1974.55
654.336,1970.8
654.499,1969.1
654.662,1964.0
654.824,1967.5
654.987,1969.6
655.149,1973.1
655.312,1970.7
655.475,1967.7
655.637,1965.75
655.8,1974.85
655.963,1972.25
656.125,1972.95
656.288,1970.35
656.45,1965.5
656.613,1969.4
656.775,1972.05
656.938,1966.15
657.1,1965.55
657.263,1971.55
657.425,1967.5
657.588,1962.55
657.75,1958.9
657.913,1962.15
658.075,1962.5
658.238,1959.35
658.4,1953.9
658.563,1955.5
658.725,1954.9
658.888,1966.35
659.05,1953.3
659.212,1955.95
659.375,1960.1
659.537,1959.55
659.7,1956.85
659.862,1954.3
660.024,1957.0
660.187,1956.35
660.349,1950.35
660.511,1950.25
660.674,1955.1
660.836,1948.85
660.998,1948.3
661.079,1946.75