File: spectra/VLFR_08-PLA_bio_Raman_2e1839c6.csv
nm,Intensity
528.626,1864.8
528.795,1864.9
528.963,1864.0
529.132,1864.5
529.3,1864.3
529.469,1864.5
529.637,1865.7
529.806,1863.1
529.974,1864.6
530.143,1863.3
530.311,1864.3
530.48,1865.2
530.648,1863.8
530.816,1865.4
530.985,1866.6
531.153,1867.7
531.322,1869.2
531.49,1875.8
531.658,1911.9
531.827,2441.3
531.995,4413.1
532.164,4559.2
532.332,2282.9
532.5,1869.7
532.669,1868.1
532.837,1869.6
533.006,1867.3
533.174,1867.6
533.342,1874.9
533.511,1925.8
533.679,2259.9
533.847,2962.7
534.016,3417.9
534.184,3392.4
534.352,3275.4
534.521,3148.7
534.689,3073.7
534.857,3014.5
535.025,2907.5
535.194,2852.8
535.362,2804.3
535.53,2747.8
535.699,2668.8
535.867,2592.2
536.035,2559.2
536.203,2590.0
536.372,2625.7
536.54,2647.8
536.708,2585.0
536.876,2547.8
537.044,2491.6
537.213,2493.1
537.381,2502.7
537.549,2516.4
537.717,2505.0
537.885,2463.0
538.054,2437.8
538.222,2404.6
538.39,2353.4
538.558,2334.9
538.726,2339.7
538.894,2338.3
539.063,2343.7
539.231,2329.1
539.399,2316.3
539.567,2286.4
539.735,2229.2
539.903,2228.5
540.071,2232.6
540.239,2300.2
540.408,2359.4
540.576,2405.3
540.744,2424.3
540.912,2427.6
541.08,2416.5
541.248,2411.0
541.416,2382.6
541.584,2342.1
541.752,2311.8
541.92,2279.0
542.088,2269.4
542.256,2244.3
542.424,2239.2
542.592,2260.0
542.76,2300.5
542.928,2329.8
543.096,2397.8
543.264,2474.9
543.432,2570.2
543.6,2631.3
543.768,2651.8
543.936,2601.6
544.104,2565.6
544.272,2428.9
544.44,2326.9
544.608,2305.3
544.776,2241.3
544.944,2240.0
545.112,2213.5
545.28,2204.3
545.448,2192.9
545.616,2177.8
545.784,2177.0
545.951,2173.1
546.119,2166.7
546.287,2175.7
546.455,2184.9
546.623,2184.8
546.791,2200.1
546.959,2209.6
547.127,2207.0
547.294,2211.5
547.462,2202.8
547.63,2191.7
547.798,2193.7
547.966,2206.8
548.134,2192.1
548.301,2206.1
548.469,2204.9
548.637,2208.0
548.805,2213.4
548.972,2226.2
549.14,2220.6
549.308,2221.1
549.476,2218.9
549.644,2217.6
549.811,2214.9
549.979,2193.3
550.147,2223.1
550.315,2225.3
550.482,2231.6
550.65,2241.5
550.818,2243.3
550.985,2270.2
551.153,2265.9
551.321,2280.7
551.488,2289.9
551.656,2286.6
551.824,2307.8
551.991,2280.7
552.159,2302.9
552.327,2316.7
552.494,2306.3
552.662,2318.0
552.83,2304.5
552.997,2289.8
553.165,2284.1
553.333,2267.9
553.5,2265.5
553.668,2313.9
553.835,2350.3
554.003,2397.4
554.171,2344.3
554.338,2318.6
554.506,2288.9
554.673,2269.9
554.841,2262.4
555.008,2245.0
555.176,2226.7
555.343,2191.9
555.511,2196.0
555.679,2173.9
555.846,2182.3
556.014,2181.4
556.181,2185.8
556.349,2188.8
556.516,2199.8
556.684,2202.6
556.851,2214.8
557.018,2252.8
557.186,2321.1
557.353,2402.9
557.521,2540.1
557.688,2917.4
557.856,3440.2
558.023,3902.8
558.191,3828.0
558.358,3074.7
558.525,2646.9
558.693,2488.0
558.86,2406.5
559.028,2404.6
559.195,2369.3
559.362,2352.9
559.53,2330.0
559.697,2325.3
559.864,2303.6
560.032,2274.8
560.199,2272.0
560.366,2267.7
560.534,2241.4
560.701,2245.7
560.868,2249.9
561.036,2228.2
561.203,2225.1
561.37,2215.2
561.538,2202.9
561.705,2221.8
561.872,2224.0
562.039,2219.8
562.207,2226.2
562.374,2249.0
562.541,2279.2
562.708,2315.4
562.876,2388.0
563.043,2484.4
563.21,2615.8
563.377,2708.2
563.545,2727.2
563.712,2594.8
563.879,2484.3
564.046,2383.0
564.213,2342.6
564.38,2356.0
564.548,2372.9
564.715,2462.7
564.882,2529.0
565.049,2603.5
565.216,2607.2
565.383,2569.2
565.551,2551.8
565.718,2621.4
565.885,2785.3
566.052,2873.7
566.219,2844.7
566.386,2718.0
566.553,2518.5
566.72,2374.6
566.887,2306.6
567.054,2266.5
567.221,2263.5
567.388,2279.0
567.555,2309.7
567.722,2357.9
567.889,2390.7
568.057,2384.4
568.224,2352.0
568.391,2320.6
568.558,2317.8
568.725,2357.8
568.892,2341.5
569.058,2335.2
569.225,2330.1
569.392,2299.1
569.559,2300.7
569.726,2293.6
569.893,2275.0
570.06,2279.6
570.227,2288.8
570.394,2297.8
570.561,2302.0
570.728,2308.8
570.895,2331.0
571.062,2343.3
571.229,2419.8
571.395,2542.9
571.562,2616.8
571.729,2644.6
571.896,2570.3
572.063,2533.8
572.23,2463.5
572.397,2463.3
572.563,2465.3
572.73,2450.7
572.897,2454.5
573.064,2486.8
573.231,2491.2
573.397,2497.2
573.564,2504.7
573.731,2488.3
573.898,2473.0
574.064,2435.4
574.231,2460.6
574.398,2543.1
574.565,2545.4
574.731,2493.8
574.898,2373.8
575.065,2311.8
575.232,2296.1
575.398,2299.1
575.565,2300.2
575.732,2307.4
575.898,2316.1
576.065,2406.0
576.232,2534.1
576.398,2781.1
576.565,3070.4
576.732,3196.4
576.898,3198.6
577.065,2928.3
577.232,2664.5
577.398,2489.0
577.565,2364.2
577.731,2324.1
577.898,2314.2
578.065,2296.0
578.231,2296.8
578.398,2286.8
578.564,2268.1
578.731,2272.4
578.897,2270.8
579.064,2276.0
579.23,2265.0
579.397,2262.9
579.563,2266.3
579.73,2265.5
579.896,2265.7
580.063,2267.5
580.229,2275.3
580.396,2257.0
580.562,2251.3
580.729,2264.9
580.895,2261.7
581.062,2273.2
581.228,2277.6
581.395,2269.2
581.561,2268.2
581.728,2266.1
581.894,2255.3
582.06,2273.9
582.227,2287.1
582.393,2271.6
582.56,2270.0
582.726,2259.9
582.892,2283.3
583.059,2279.1
583.225,2279.1
583.391,2273.4
583.558,2269.7
583.724,2283.2
583.89,2268.3
584.057,2284.7
584.223,2276.1
584.389,2295.1
584.556,2273.2
584.722,2290.3
584.888,2286.2
585.054,2270.9
585.221,2277.4
585.387,2274.1
585.553,2280.0
585.719,2277.9
585.886,2290.9
586.052,2309.5
586.218,2345.6
586.384,2399.1
586.55,2527.2
586.717,2681.0
586.883,2796.3
587.049,2858.7
587.215,2930.8
587.381,3070.8
587.548,3058.9
587.714,2938.0
587.88,2744.3
588.046,2533.3
588.212,2414.4
588.378,2341.6
588.544,2309.0
588.71,2302.8
588.876,2285.4
589.043,2283.5
589.209,2289.3
589.375,2275.4
589.541,2258.2
589.707,2259.1
589.873,2266.6
590.039,2253.1
590.205,2259.4
590.371,2263.3
590.537,2251.9
590.703,2265.0
590.869,2262.1
591.035,2257.2
591.201,2267.6
591.367,2260.7
591.533,2257.6
591.699,2260.2
591.865,2274.6
592.031,2268.2
592.197,2268.1
592.363,2275.4
592.529,2269.5
592.694,2259.8
592.86,2266.4
593.026,2259.4
593.192,2252.2
593.358,2247.0
593.524,2238.6
593.69,2249.4
593.856,2257.2
594.021,2249.8
594.187,2256.4
594.353,2253.5
594.519,2253.8
594.685,2243.8
594.851,2259.5
595.016,2257.0
595.182,2243.9
595.348,2261.2
595.514,2258.4
595.68,2260.0
595.845,2260.7
596.011,2267.6
596.177,2276.4
596.342,2235.5
596.508,2261.3
596.674,2269.1
596.84,2259.2
597.005,2257.9
597.171,2246.2
597.337,2254.2
597.502,2262.6
597.668,2274.3
597.834,2261.9
597.999,2261.2
598.165,2280.8
598.331,2261.6
598.496,2257.4
598.662,2273.5
598.828,2273.3
598.993,2262.0
599.159,2263.6
599.324,2278.8
599.49,2267.6
599.656,2258.7
599.821,2264.3
599.987,2277.5
600.152,2283.5
600.318,2268.7
600.483,2263.8
600.649,2254.6
600.814,2277.3
600.98,2254.2
601.145,2257.8
601.311,2253.7
601.476,2258.0
601.642,2272.5
601.807,2275.4
601.973,2267.2
602.138,2264.0
602.304,2260.7
602.469,2277.8
602.635,2268.1
602.8,2263.0
602.965,2275.0
603.131,2276.9
603.296,2266.1
603.462,2272.5
603.627,2277.6
603.792,2261.9
603.958,2276.7
604.123,2276.6
604.288,2266.2
604.454,2265.8
604.619,2268.8
604.784,2263.8
604.95,2268.7
605.115,2255.4
605.28,2267.7
605.446,2259.4
605.611,2270.0
605.776,2255.6
605.941,2263.2
606.107,2265.0
606.272,2252.1
606.437,2258.7
606.602,2262.0
606.767,2273.8
606.933,2288.8
607.098,2267.4
607.263,2267.9
607.428,2249.9
607.593,2270.8
607.759,2280.9
607.924,2266.6
608.089,2262.4
608.254,2275.6
608.419,2267.2
608.584,2264.7
608.749,2277.9
608.915,2260.3
609.08,2262.7
609.245,2266.7
609.41,2263.2
609.575,2275.0
609.74,2272.8
609.905,2273.3
610.07,2271.0
610.235,2268.9
610.4,2277.8
610.565,2291.5
610.73,2273.1
610.895,2289.1
611.06,2259.5
611.225,2273.2
611.39,2272.0
611.555,2264.2
611.72,2265.3
611.885,2265.8
612.05,2280.8
612.215,2254.1
612.38,2261.2
612.545,2259.4
612.71,2280.0
612.875,2264.0
613.04,2253.7
613.204,2276.3
613.369,2275.2
613.534,2288.6
613.699,2250.8
613.864,2284.1
614.029,2274.5
614.194,2264.5
614.358,2275.3
614.523,2270.2
614.688,2264.2
614.853,2271.3
615.018,2256.9
615.182,2268.2
615.347,2270.4
615.512,2272.3
615.677,2282.6
615.841,2283.6
616.006,2273.9
616.171,2284.3
616.336,2286.6
616.5,2302.7
616.665,2273.2
616.83,2278.1
616.994,2285.5
617.159,2284.8
617.324,2283.5
617.489,2270.5
617.653,2285.8
617.818,2279.3
617.982,2262.5
618.147,2259.4
618.312,2263.9
618.476,2262.4
618.641,2260.0
618.805,2274.3
618.97,2257.2
619.135,2252.6
619.299,2270.3
619.464,2263.8
619.628,2265.1
619.793,2269.9
619.957,2270.9
620.122,2280.6
620.286,2259.7
620.451,2276.1
620.615,2272.6
620.78,2281.1
620.944,2253.7
621.109,2269.4
621.273,2269.4
621.438,2267.3
621.602,2275.3
621.767,2272.7
621.931,2291.4
622.095,2294.7
622.26,2315.3
622.424,2357.3
622.589,2382.0
622.753,2388.0
622.917,2405.7
623.082,2432.8
623.246,2400.1
623.41,2389.1
623.575,2370.7
623.739,2338.3
623.903,2351.9
624.068,2327.0
624.232,2319.7
624.396,2301.6
624.561,2292.9
624.725,2279.3
624.889,2272.5
625.053,2270.2
625.218,2306.0
625.382,2276.4
625.546,2273.4
625.71,2270.6
625.875,2271.6
626.039,2275.0
626.203,2271.8
626.367,2288.2
626.531,2267.0
626.695,2285.6
626.86,2280.6
627.024,2287.0
627.188,2285.9
627.352,2298.7
627.516,2322.3
627.68,2350.7
627.844,2444.6
628.008,2560.2
628.172,2810.6
628.337,3026.0
628.501,3135.6
628.665,3103.0
628.829,2971.2
628.993,2931.7
629.157,2883.5
629.321,2900.7
629.485,2968.6
629.649,2986.3
629.813,2983.0
629.977,2973.5
630.141,3133.6
630.305,3291.7
630.469,3674.0
630.633,4424.5
630.797,5699.8
630.96,7017.2
631.124,7377.4
631.288,6614.7
631.452,5394.7
631.616,4648.6
631.78,4099.3
631.944,3764.3
632.108,3587.0
632.272,3531.7
632.435,3406.2
632.599,3484.6
632.763,3667.6
632.927,3996.1
633.091,4258.3
633.254,4403.0
633.418,4259.6
633.582,4085.0
633.746,3791.9
633.91,3508.5
634.073,3181.5
634.237,2949.1
634.401,2714.3
634.564,2576.1
634.728,2504.0
634.892,2410.8
635.056,2375.9
635.219,2343.6
635.383,2306.3
635.547,2301.7
635.71,2289.7
635.874,2280.4
636.038,2262.4
636.201,2267.0
636.365,2234.5
636.528,2248.4
636.692,2237.4
636.856,2239.4
637.019,2240.5
637.183,2223.7
637.346,2220.7
637.51,2227.5
637.673,2208.5
637.837,2197.2
638.0,2206.7
638.164,2221.5
638.327,2196.2
638.491,2201.5
638.654,2205.7
638.818,2199.4
638.981,2197.1
639.145,2198.8
639.308,2205.0
639.472,2191.9
639.635,2196.5
639.799,2192.3
639.962,2211.6
640.125,2198.9
640.289,2194.5
640.452,2197.3
640.616,2193.4
640.779,2192.1
640.942,2191.3
641.106,2195.6
641.269,2199.6
641.432,2200.3
641.596,2207.0
641.759,2184.4
641.922,2194.7
642.085,2187.6
642.249,2206.9
642.412,2187.1
642.575,2203.3
642.738,2182.0
642.902,2179.0
643.065,2173.5
643.228,2171.5
643.391,2170.5
643.555,2173.8
643.718,2179.8
643.881,2164.2
644.044,2168.4
644.207,2160.1
644.37,2160.1
644.534,2151.5
644.697,2143.8
644.86,2152.1
645.023,2154.3
645.186,2149.5
645.349,2142.6
645.512,2146.7
645.675,2143.0
645.838,2138.3
646.001,2141.4
646.164,2140.3
646.327,2131.3
646.49,2138.6
646.653,2128.1
646.816,2124.7
646.979,2116.3
647.142,2127.6
647.305,2126.9
647.468,2105.8
647.631,2131.7
647.794,2127.1
647.957,2126.9
648.12,2119.9
648.283,2124.0
648.446,2108.9
648.609,2114.5
648.772,2121.0
648.935,2124.4
649.098,2112.5
649.26,2101.5
649.423,2107.2
649.586,2109.7
649.749,2109.8
649.912,2118.3
650.075,2096.3
650.237,2111.9
650.4,2106.1
650.563,2107.7
650.726,2116.7
650.888,2101.4
651.051,2107.1
651.214,2101.6
651.377,2099.6
651.539,2097.1
651.702,2103.4
651.865,2099.0
652.027,2104.5
652.19,2095.8
652.353,2091.5
652.515,2100.7
652.678,2096.0
652.841,2092.5
653.003,2092.9
653.166,2080.1
653.329,2093.9
653.491,2087.6
653.654,2082.3
653.816,2097.0
653.979,2080.5
654.142,2075.5
654.304,2071.1
654.467,2077.1
654.629,2084.4
654.792,2079.5
654.954,2075.7
655.117,2084.4
655.279,2082.0
655.442,2079.4
655.604,2085.1
655.767,2075.4
655.929,2081.6
656.091,2071.2
656.254,2072.3
656.416,2073.4
656.579,2083.4
656.741,2077.4
656.904,2082.6
657.066,2076.1
657.228,2070.7
657.391,2071.6
657.553,2064.8
657.715,2074.5
657.878,2074.4
658.04,2070.1
658.202,2069.2
658.365,2060.5
658.527,2060.4
658.689,2058.9
658.851,2062.4
659.014,2052.5
659.176,2050.6
659.338,2044.5
659.5,2054.0
659.663,2050.8
659.825,2042.3
659.987,2049.5
660.149,2048.8
660.311,2043.9
660.474,2059.9
660.636,2042.0
660.798,2052.3
660.96,2038.9
661.041,2047.5