File: spectra/VLFR_02-HDPE_nobio_Raman_72051eae.csv
nm,Intensity
526.486,830.6
526.622,829.6
526.759,831.9
526.896,830.9
527.033,829.9
527.169,830.6
527.306,830.7
527.443,830.3
527.579,830.1
527.716,829.0
527.853,829.9
527.989,830.0
528.126,831.1
528.263,830.1
528.399,830.6
528.536,830.6
528.672,831.7
528.809,830.0
528.946,830.5
529.082,829.7
529.219,831.7
529.355,831.5
529.492,832.0
529.628,830.4
529.765,831.0
529.901,829.5
530.038,830.2
530.174,831.5
530.311,829.8
530.447,830.5
530.584,831.9
530.72,829.7
530.857,830.5
530.993,830.6
531.13,830.7
531.266,830.0
531.403,830.4
531.539,828.3
531.676,830.9
531.812,830.3
531.948,832.3
532.085,856.7
532.221,881.1
532.358,845.6
532.494,830.8
532.63,830.2
532.767,830.6
532.903,830.3
533.039,829.5
533.176,829.7
533.312,830.7
533.448,829.9
533.585,831.9
533.721,835.8
533.857,860.9
533.993,913.5
534.13,941.5
534.266,941.5
534.402,937.5
534.539,930.0
534.675,925.8
534.811,929.2
534.947,921.9
535.083,919.4
535.22,912.5
535.356,907.2
535.492,906.5
535.628,904.3
535.764,904.3
535.901,898.8
536.037,898.1
536.173,897.6
536.309,894.6
536.445,893.9
536.581,890.7
536.717,891.7
536.854,891.4
536.99,889.6
537.126,887.3
537.262,888.9
537.398,887.6
537.534,888.1
537.67,887.7
537.806,888.4
537.942,887.4
538.078,884.5
538.214,883.3
538.35,883.5
538.486,883.5
538.622,881.1
538.758,881.6
538.894,879.5
539.03,875.7
539.166,875.5
539.302,878.0
539.438,876.5
539.574,877.0
539.71,873.7
539.846,874.3
539.982,878.8
540.118,872.8
540.254,874.0
540.39,872.6
540.526,872.1
540.662,875.0
540.798,872.9
540.933,871.2
541.069,871.5
541.205,870.8
541.341,868.2
541.477,869.9
541.613,869.3
541.749,867.2
541.884,869.1
542.02,870.2
542.156,870.2
542.292,868.1
542.428,867.1
542.563,868.2
542.699,868.9
542.835,866.8
542.971,866.2
543.106,866.6
543.242,864.6
543.378,866.9
543.514,868.4
543.649,865.4
543.785,866.6
543.921,865.6
544.057,865.0
544.192,864.2
544.328,865.3
544.464,866.0
544.599,866.0
544.735,864.4
544.871,865.7
545.006,863.8
545.142,862.6
545.278,862.2
545.413,862.4
545.549,862.8
545.684,863.9
545.82,860.7
545.956,862.3
546.091,861.1
546.227,862.2
546.362,860.5
546.498,862.1
546.634,862.7
546.769,863.7
546.905,865.2
547.04,863.4
547.176,863.8
547.311,862.8
547.447,861.5
547.582,863.1
547.718,860.7
547.853,858.9
547.989,861.0
548.124,862.6
548.26,860.7
548.395,861.9
548.531,859.6
548.666,859.7
548.802,862.2
548.937,859.2
549.072,859.9
549.208,859.8
549.343,860.3
549.479,859.5
549.614,859.3
549.75,860.5
549.885,857.4
550.02,859.0
550.156,861.2
550.291,859.8
550.426,859.7
550.562,861.2
550.697,860.4
550.832,857.8
550.968,858.0
551.103,859.1
551.238,859.1
551.374,861.3
551.509,860.4
551.644,860.9
551.78,860.6
551.915,859.5
552.05,861.4
552.185,861.0
552.321,860.5
552.456,862.7
552.591,859.4
552.726,864.7
552.862,862.1
552.997,862.0
553.132,863.7
553.267,860.7
553.403,865.2
553.538,866.4
553.673,865.2
553.808,865.2
553.943,866.6
554.078,866.9
554.214,867.5
554.349,867.9
554.484,868.4
554.619,868.8
554.754,868.8
554.889,871.7
555.024,870.3
555.16,867.7
555.295,871.0
555.43,871.8
555.565,868.1
555.7,871.7
555.835,874.4
555.97,874.1
556.105,874.0
556.24,874.8
556.375,874.0
556.51,875.8
556.645,876.6
556.78,873.7
556.915,876.0
557.05,878.2
557.185,880.0
557.32,882.0
557.455,881.0
557.59,883.3
557.725,883.0
557.86,881.9
557.995,883.0
558.13,882.4
558.265,884.2
558.4,885.6
558.535,890.3
558.67,887.5
558.805,887.3
558.94,886.6
559.075,887.7
559.21,886.7
559.345,885.4
559.479,885.8
559.614,887.8
559.749,883.9
559.884,887.2
560.019,885.2
560.154,887.5
560.289,886.9
560.424,889.4
560.558,886.5
560.693,887.5
560.828,889.4
560.963,897.0
561.098,892.2
561.232,890.3
561.367,894.3
561.502,892.1
561.637,894.0
561.772,893.8
561.906,895.0
562.041,894.6
562.176,895.6
562.311,901.6
562.445,897.3
562.58,902.1
562.715,905.0
562.85,904.3
562.984,905.7
563.119,910.6
563.254,911.4
563.388,919.1
563.523,915.4
563.658,919.9
563.792,932.8
563.927,960.3
564.062,1010.9
564.196,997.0
564.331,956.2
564.466,934.9
564.6,938.4
564.735,938.0
564.87,938.2
565.004,935.9
565.139,933.3
565.273,931.9
565.408,929.4
565.543,929.1
565.677,932.0
565.812,939.6
565.946,957.3
566.081,1001.5
566.215,1026.2
566.35,998.3
566.485,953.6
566.619,944.8
566.754,934.6
566.888,938.3
567.023,931.0
567.157,934.0
567.292,937.0
567.426,936.2
567.561,940.4
567.695,939.0
567.83,938.4
567.964,935.8
568.099,935.3
568.233,940.2
568.368,935.4
568.502,943.0
568.636,942.3
568.771,941.8
568.905,941.5
569.04,946.7
569.174,945.0
569.309,951.6
569.443,951.9
569.577,955.2
569.712,961.4
569.846,956.6
569.98,959.2
570.115,965.1
570.249,963.1
570.384,969.0
570.518,967.9
570.652,971.9
570.787,974.7
570.921,980.5
571.055,982.0
571.19,992.5
571.324,1002.9
571.458,1075.4
571.592,1158.9
571.727,1104.4
571.861,1044.3
571.995,1029.9
572.13,1022.6
572.264,1022.2
572.398,1009.8
572.532,1014.4
572.667,1014.9
572.801,1014.0
572.935,1018.7
573.069,1019.2
573.204,1027.8
573.338,1024.5
573.472,1030.0
573.606,1032.5
573.74,1036.8
573.875,1050.7
574.009,1058.5
574.143,1064.0
574.277,1064.3
574.411,1062.1
574.545,1068.8
574.68,1066.6
574.814,1074.5
574.948,1084.9
575.082,1085.9
575.216,1093.3
575.35,1112.9
575.484,1146.5
575.619,1184.1
575.753,1183.5
575.887,1174.4
576.021,1194.5
576.155,1239.9
576.289,1279.9
576.423,1291.4
576.557,1281.8
576.691,1266.6
576.825,1276.6
576.959,1283.9
577.093,1285.9
577.227,1285.4
577.361,1278.4
577.495,1268.2
577.629,1281.1
577.763,1275.5
577.897,1279.4
578.031,1291.8
578.165,1303.0
578.299,1316.7
578.433,1316.4
578.567,1335.4
578.701,1347.0
578.835,1358.2
578.969,1370.9
579.103,1375.5
579.237,1389.6
579.371,1396.5
579.505,1413.9
579.639,1426.0
579.773,1440.3
579.907,1456.5
580.041,1455.5
580.175,1473.2
580.309,1485.6
580.442,1496.9
580.576,1500.1
580.71,1517.4
580.844,1532.3
580.978,1539.2
581.112,1544.7
581.246,1556.4
581.38,1567.8
581.513,1570.7
581.647,1585.1
581.781,1596.2
581.915,1610.3
582.049,1617.8
582.183,1631.3
582.316,1645.3
582.45,1663.6
582.584,1662.9
582.718,1674.4
582.852,1688.7
582.985,1696.1
583.119,1720.1
583.253,1726.3
583.387,1723.9
583.52,1741.7
583.654,1751.4
583.788,1764.2
583.922,1768.1
584.055,1771.6
584.189,1775.7
584.323,1783.2
584.456,1796.4
584.59,1799.1
584.724,1822.3
584.858,1829.1
584.991,1838.9
585.125,1851.7
585.259,1871.9
585.392,1879.9
585.526,1885.1
585.66,1894.7
585.793,1909.5
585.927,1922.0
586.061,1943.5
586.194,1947.1
586.328,1961.5
586.462,1969.9
586.595,1989.6
586.729,2006.6
586.862,2028.2
586.996,2039.9
587.13,2050.4
587.263,2062.7
587.397,2086.3
587.53,2101.5
587.664,2113.4
587.797,2118.5
587.931,2131.3
588.065,2153.7
588.198,2151.8
588.332,2168.3
588.465,2174.6
588.599,2208.1
588.732,2209.4
588.866,2232.0
588.999,2234.2
589.133,2251.9
589.266,2262.8
589.4,2286.2
589.533,2288.5
589.667,2320.7
589.8,2328.7
589.934,2329.3
590.067,2345.4
590.201,2363.8
590.334,2366.5
590.468,2378.2
590.601,2395.8
590.735,2410.1
590.868,2430.6
591.001,2429.1
591.135,2454.9
591.268,2459.4
591.402,2467.4
591.535,2467.8
591.669,2471.7
591.802,2484.6
591.935,2484.3
592.069,2491.4
592.202,2494.6
592.335,2495.8
592.469,2498.7
592.602,2507.5
592.736,2496.5
592.869,2499.9
593.002,2516.3
593.136,2503.5
593.269,2511.7
593.402,2505.4
593.536,2529.0
593.669,2535.2
593.802,2539.4
593.936,2505.4
594.069,2531.7
594.202,2539.8
594.336,2526.1
594.469,2534.8
594.602,2533.8
594.735,2550.1
594.869,2560.1
595.002,2547.5
595.135,2564.5
595.268,2569.5
595.402,2569.2
595.535,2586.7
595.668,2593.1
595.801,2593.2
595.935,2613.4
596.068,2605.9
596.201,2609.9
596.334,2611.1
596.468,2620.6
596.601,2633.8
596.734,2643.4
596.867,2650.5
597.0,2666.9
597.133,2670.6
597.267,2675.5
597.4,2699.4
597.533,2701.4
597.666,2706.8
597.799,2724.0
597.932,2723.4
598.066,2744.4
598.199,2759.7
598.332,2786.9
598.465,2786.2
598.598,2795.4
598.731,2798.0
598.864,2828.6
598.998,2845.1
599.131,2834.0
599.264,2869.8
599.397,2846.9
599.53,2865.9
599.663,2863.1
599.796,2868.4
599.929,2876.8
600.062,2873.4
600.195,2895.7
600.328,2883.5
600.461,2872.4
600.594,2870.9
600.727,2878.6
600.86,2889.0
600.994,2878.7
601.127,2850.5
601.26,2866.0
601.393,2849.7
601.526,2840.1
601.659,2821.6
601.792,2838.4
601.925,2840.6
602.058,2827.8
602.191,2818.8
602.324,2809.5
602.457,2790.3
602.589,2780.3
602.722,2791.7
602.855,2785.0
602.988,2761.2
603.121,2737.8
603.254,2740.7
603.387,2720.0
603.52,2709.9
603.653,2704.4
603.786,2686.2
603.919,2662.8
604.052,2642.7
604.185,2618.4
604.318,2595.0
604.451,2577.1
604.583,2556.0
604.716,2514.8
604.849,2519.8
604.982,2508.6
605.115,2488.4
605.248,2460.1
605.381,2425.0
605.514,2404.5
605.646,2389.3
605.779,2355.3
605.912,2340.3
606.045,2319.8
606.178,2306.8
606.311,2281.5
606.443,2275.7
606.576,2258.8
606.709,2234.6
606.842,2228.5
606.975,2205.9
607.107,2193.4
607.24,2183.6
607.373,2174.8
607.506,2156.2
607.639,2133.9
607.771,2125.4
607.904,2128.8
608.037,2120.1
608.17,2098.5
608.302,2096.9
608.435,2082.6
608.568,2055.4
608.701,2058.6
608.833,2037.5
608.966,2036.5
609.099,2029.5
609.232,2013.1
609.364,2002.7
609.497,1999.8
609.63,1976.1
609.762,1975.6
609.895,1962.9
610.028,1944.7
610.161,1957.8
610.293,1931.9
610.426,1913.6
610.559,1916.0
610.691,1917.2
610.824,1898.0
610.957,1890.4
611.089,1883.2
611.222,1877.5
611.355,1863.6
611.487,1869.0
611.62,1854.3
611.752,1855.7
611.885,1840.5
612.018,1842.6
612.15,1846.6
612.283,1833.6
612.416,1826.6
612.548,1829.0
612.681,1806.5
612.813,1817.3
612.946,1816.4
613.078,1801.7
613.211,1799.6
613.344,1808.0
613.476,1803.5
613.609,1787.4
613.741,1783.4
613.874,1771.3
614.006,1760.0
614.139,1767.0
614.272,1752.4
614.404,1752.0
614.537,1732.2
614.669,1732.0
614.802,1722.2
614.934,1723.0
615.067,1721.9
615.199,1703.8
615.332,1700.5
615.464,1687.0
615.597,1686.0
615.729,1685.2
615.862,1681.6
615.994,1681.6
616.127,1653.9
616.259,1663.5
616.392,1650.0
616.524,1649.9
616.657,1650.7
616.789,1636.0
616.922,1635.7
617.054,1635.9
617.186,1631.3
617.319,1621.1
617.451,1624.6
617.584,1619.0
617.716,1613.8
617.849,1614.4
617.981,1610.3
618.113,1602.0
618.246,1595.6
618.378,1593.3
618.511,1594.0
618.643,1587.8
618.775,1578.4
618.908,1577.4
619.04,1578.6
619.173,1562.0
619.305,1566.9
619.437,1574.3
619.57,1569.5
619.702,1568.3
619.834,1570.7
619.967,1566.3
620.099,1544.3
620.231,1551.1
620.364,1536.7
620.496,1544.1
620.628,1532.5
620.761,1541.1
620.893,1538.5
621.025,1529.0
621.158,1537.2
621.29,1541.1
621.422,1540.3
621.555,1534.0
621.687,1548.5
621.819,1537.1
621.952,1549.2
622.084,1543.3
622.216,1557.2
622.348,1555.4
622.481,1556.6
622.613,1546.4
622.745,1549.3
622.878,1535.5
623.01,1531.1
623.142,1515.9
623.274,1521.8
623.407,1519.5
623.539,1519.8
623.671,1504.0
623.803,1505.7
623.935,1510.2
624.068,1506.1
624.2,1500.5
624.332,1507.0
624.464,1512.8
624.597,1504.9
624.729,1511.4
624.861,1506.4
624.993,1509.8
625.125,1505.0
625.258,1506.0
625.39,1504.4
625.522,1514.8
625.654,1501.5
625.786,1510.9
625.918,1517.1
626.051,1520.8
626.183,1519.1
626.315,1528.8
626.447,1549.8
626.579,1576.4
626.711,1618.0
626.844,1707.9
626.976,1858.1
627.108,2025.4
627.24,2151.5
627.372,2143.4
627.504,2073.8
627.636,1991.9
627.768,1946.1
627.901,1896.0
628.033,1883.6
628.165,1882.5
628.297,1925.2
628.429,2063.1
628.561,2254.4
628.693,2257.5
628.825,2081.6
628.957,2006.6
629.089,1966.7
629.221,1955.7
629.354,1915.0
629.486,1892.6
629.618,1859.3
629.75,1838.6
629.882,1809.8
630.014,1804.1
630.146,1781.2
630.278,1793.6
630.41,1797.9
630.542,1778.1
630.674,1765.0
630.806,1737.6
630.938,1712.2
631.07,1661.9
631.202,1623.8
631.334,1608.9
631.466,1606.9
631.598,1585.9
631.73,1593.6
631.862,1590.1
631.994,1572.0
632.126,1582.9
632.258,1570.1
632.39,1575.7
632.522,1558.4
632.654,1565.3
632.786,1560.6
632.918,1566.0
633.05,1563.2
633.182,1574.4
633.314,1568.7
633.446,1561.5
633.578,1554.3
633.71,1565.7
633.842,1563.6
633.974,1563.2
634.106,1568.8
634.237,1573.1
634.369,1574.8
634.501,1574.0
634.633,1574.3
634.765,1583.3
634.897,1583.6
635.029,1580.3
635.161,1581.7
635.293,1575.3
635.425,1586.9
635.557,1600.2
635.689,1590.8
635.82,1596.2
635.952,1593.4
636.084,1601.9
636.216,1602.5
636.348,1610.2
636.48,1605.3
636.612,1606.6
636.744,1607.0
636.875,1624.2
637.007,1613.0
637.139,1621.4
637.271,1614.0
637.403,1613.0
637.535,1627.0
637.667,1625.3
637.798,1624.9
637.93,1635.6
638.062,1620.9
638.194,1629.7
638.326,1634.5
638.458,1628.5
638.589,1637.9
638.721,1633.9
638.853,1646.0
638.985,1638.9
639.117,1642.5
639.248,1644.7
639.38,1660.3
639.512,1651.4
639.644,1657.9
639.776,1660.2
639.907,1665.3
640.039,1668.0
640.171,1669.1
640.303,1670.5
640.435,1674.2
640.566,1677.4
640.698,1683.7
640.83,1678.4
640.962,1690.3
641.093,1696.2
641.225,1699.0
641.357,1687.8
641.489,1702.7
641.62,1702.6
641.752,1701.3
641.884,1709.1
642.016,1713.8
642.147,1711.4
642.279,1707.6
642.411,1712.1
642.543,1719.6
642.674,1712.1
642.806,1722.6
642.938,1710.3
643.069,1708.5
643.201,1724.6
643.333,1712.7
643.465,1711.1
643.596,1722.3
643.728,1707.9
643.86,1713.4
643.991,1713.4
644.123,1705.2
644.255,1717.2
644.386,1717.4
644.518,1713.9
644.65,1726.8
644.781,1711.9
644.913,1725.1
645.045,1729.3
645.176,1718.2
645.308,1727.1
645.44,1715.0
645.571,1714.7
645.703,1716.8
645.835,1705.0
645.966,1719.3
646.098,1716.7
646.23,1725.0
646.361,1708.4
646.493,1726.3
646.625,1728.7
646.756,1718.1
646.888,1718.6
647.019,1719.0
647.151,1715.1
647.283,1712.1
647.414,1714.8
647.546,1721.5
647.678,1706.7
647.809,1722.7
647.941,1705.2
648.072,1705.0
648.204,1711.1
648.336,1706.4
648.467,1708.7
648.599,1706.3
648.73,1692.4
648.862,1697.6
648.993,1705.9
649.125,1692.7
649.257,1695.4
649.388,1678.2
649.52,1682.6
649.651,1689.1
649.783,1687.5
649.914,1688.4
650.046,1671.3
650.178,1678.4
650.309,1684.7
650.441,1686.2
650.572,1675.0
650.704,1669.3
650.835,1665.3
650.967,1676.7
651.098,1667.9
651.23,1684.2
651.361,1678.6
651.493,1672.1
651.625,1674.8
651.756,1670.5
651.888,1676.6
652.019,1670.9
652.151,1674.3
652.282,1680.5
652.414,1673.8
652.545,1669.3
652.677,1671.7
652.808,1684.7
652.94,1676.2
653.071,1672.2
653.203,1669.6
653.334,1668.2
653.466,1674.9
653.597,1674.3
653.729,1671.0
653.86,1663.2
653.992,1671.7
654.123,1676.2
654.255,1674.1
654.386,1672.1
654.518,1657.0
654.649,1662.3
654.78,1662.7
654.912,1650.0
655.043,1655.5
655.175,1659.8
655.306,1643.0
655.438,1655.0
655.569,1650.8
655.701,1637.6
655.832,1646.9
655.964,1637.3
656.095,1640.3
656.226,1620.6
656.358,1626.1
656.489,1625.7
656.621,1621.3
656.752,1619.4
656.884,1621.9
657.015,1603.6
657.146,1610.8
657.278,1606.4
657.409,1596.8
657.541,1591.4
657.672,1589.0
657.804,1583.3
657.935,1575.3
658.066,1569.6
658.198,1570.6
658.329,1562.6
658.461,1567.6
658.592,1552.9
658.723,1547.0
658.855,1549.4
658.986,1541.9
659.118,1542.3
659.249,1528.6
659.38,1534.5
659.512,1511.8
659.643,1513.7
659.774,1508.6
659.906,1493.8
660.037,1499.1
660.169,1493.0
660.3,1481.0
660.431,1476.6
660.563,1466.3
660.694,1468.3
660.825,1454.4
660.957,1446.2
661.088,1444.3
661.22,1429.2
661.351,1428.4
661.482,1418.0
661.614,1413.4
661.745,1408.6
661.876,1401.6
662.008,1399.3
662.139,1394.5
662.27,1387.4
662.402,1377.4
662.533,1377.6
662.664,1369.2
662.796,1362.8
662.927,1362.8
663.058,1357.8