File: spectra/VLFR_06-PET_nobio_Raman_f987e772.csv
cm-1,Intensity
-123.878,1854.85
-117.855,1857.5
-111.836,1856.8
-105.821,1856.55
-99.8104,1856.6
-93.8036,1855.9
-87.8007,1856.3
-81.8019,1855.75
-75.807,1856.15
-69.8161,1857.5
-63.8293,1857.5
-57.8464,1857.0
-51.8675,1855.75
-45.8926,1857.85
-39.9216,1857.9
-33.9547,1858.85
-27.9917,1863.75
-22.0326,1867.75
-16.0776,1915.9
-10.1265,2643.65
-4.17932,3971.7
1.76388,3514.25
7.70313,2018.0
13.6384,1860.5
19.5698,1861.2
25.4972,1859.0
31.4207,1859.9
37.3403,1862.85
43.256,1868.8
49.1677,1939.55
55.0755,2356.0
60.9794,3091.0
66.8794,3480.9
72.7754,3443.75
78.6676,3352.4
84.5559,3217.1
90.4402,3116.4
96.3207,2969.7
102.197,2871.5
108.07,2781.45
113.939,2693.35
119.804,2606.2
125.665,2531.25
131.522,2457.7
137.375,2406.6
143.225,2352.95
149.07,2347.05
154.912,2348.95
160.75,2324.3
166.584,2306.4
172.414,2295.3
178.241,2289.35
184.063,2296.9
189.882,2300.5
195.697,2294.7
201.508,2309.25
207.315,2310.15
213.119,2306.4
218.918,2299.4
224.714,2316.4
230.506,2319.35
236.294,2335.6
242.078,2337.4
247.859,2348.3
253.636,2365.1
259.409,2365.4
265.178,2377.65
270.943,2388.2
276.705,2382.15
282.463,2354.35
288.217,2354.15
293.967,2356.5
299.713,2335.45
305.456,2327.05
311.195,2330.35
316.93,2331.5
322.662,2332.65
328.389,2341.65
334.113,2325.8
339.834,2338.7
345.55,2343.6
351.263,2342.55
356.972,2353.15
362.677,2383.05
368.379,2361.45
374.077,2385.0
379.771,2363.5
385.461,2359.25
391.148,2381.7
396.831,2377.2
402.51,2394.95
408.186,2405.2
413.858,2399.0
419.526,2377.4
425.19,2386.95
430.851,2397.9
436.508,2414.95
442.162,2385.4
447.811,2401.6
453.458,2417.8
459.1,2409.7
464.739,2428.35
470.374,2437.45
476.005,2424.7
481.633,2431.25
487.257,2429.2
492.878,2440.15
498.494,2437.85
504.107,2446.85
509.717,2448.2
515.323,2459.55
520.925,2458.55
526.524,2432.55
532.119,2469.8
537.71,2459.9
543.298,2468.75
548.882,2485.25
554.462,2478.9
560.039,2488.65
565.613,2471.2
571.182,2498.55
576.748,2499.9
582.311,2490.65
587.87,2494.65
593.425,2482.65
598.977,2508.8
604.525,2504.9
610.069,2510.35
615.61,2512.95
621.148,2562.15
626.682,2661.35
632.212,2762.25
637.739,2682.9
643.262,2560.05
648.781,2559.8
654.297,2557.05
659.81,2577.5
665.319,2579.9
670.824,2587.2
676.326,2579.8
681.824,2586.6
687.319,2590.55
692.81,2601.85
698.298,2648.0
703.782,2665.55
709.262,2635.75
714.739,2643.6
720.213,2605.3
725.683,2622.25
731.15,2629.85
736.613,2631.3
742.072,2645.45
747.528,2617.6
752.981,2655.35
758.43,2665.65
763.875,2682.7
769.317,2672.8
774.756,2679.75
780.191,2715.3
785.623,2760.1
791.051,2804.6
796.475,2813.75
801.897,2779.7
807.314,2838.0
812.729,2857.55
818.139,2880.5
823.547,2834.8
828.951,2866.3
834.351,2893.2
839.748,2898.15
845.142,3013.05
850.532,3118.4
855.918,3170.3
861.302,3155.6
866.681,3037.4
872.058,2962.5
877.431,2963.4
882.8,2977.6
888.166,2957.15
893.529,2938.95
898.888,2929.35
904.244,2910.75
909.596,2861.55
914.945,2859.1
920.291,2881.65
925.633,2874.8
930.972,2869.95
936.308,2882.6
941.64,2891.75
946.968,2881.05
952.294,2871.95
957.615,2923.25
962.934,2918.15
968.249,2924.65
973.561,2919.85
978.869,2958.25
984.174,2955.9
989.476,2976.0
994.774,2975.85
1000.07,2987.25
1005.36,3006.05
1010.65,3003.75
1015.93,3043.5
1021.22,3003.05
1026.49,3046.7
1031.77,3030.0
1037.04,3046.2
1042.31,3049.85
1047.57,3029.2
1052.83,3042.1
1058.09,3028.9
1063.35,3045.35
1068.6,3060.35
1073.85,3057.5
1079.09,3107.4
1084.33,3100.85
1089.57,3158.35
1094.81,3230.7
1100.04,3277.05
1105.27,3310.55
1110.49,3364.55
1115.71,3371.55
1120.93,3386.0
1126.15,3337.15
1131.36,3233.1
1136.57,3182.35
1141.77,3166.75
1146.98,3168.25
1152.18,3141.65
1157.37,3141.4
1162.56,3173.55
1167.75,3235.05
1172.94,3257.1
1178.12,3308.25
1183.3,3287.0
1188.48,3233.75
1193.65,3178.9
1198.82,3175.65
1203.99,3168.25
1209.15,3209.65
1214.31,3199.05
1219.46,3196.6
1224.62,3216.35
1229.77,3211.85
1234.92,3239.75
1240.06,3315.8
1245.2,3295.35
1250.34,3336.2
1255.47,3359.75
1260.6,3421.05
1265.73,3521.6
1270.85,3578.2
1275.97,3675.2
1281.09,3795.35
1286.21,3864.85
1291.32,3874.45
1296.43,3803.15
1301.53,3650.3
1306.63,3658.95
1311.73,3539.3
1316.83,3436.15
1321.92,3423.7
1327.01,3423.0
1332.1,3417.3
1337.18,3304.05
1342.26,3386.9
1347.34,3385.95
1352.41,3365.15
1357.48,3400.55
1362.55,3345.65
1367.61,3431.15
1372.67,3406.2
1377.73,3432.3
1382.78,3407.9
1387.84,3360.0
1392.88,3407.1
1397.93,3456.05
1402.97,3461.6
1408.01,3486.35
1413.05,3530.65
1418.08,3464.1
1423.11,3432.9
1428.14,3507.55
1433.16,3516.7
1438.18,3545.9
1443.2,3600.85
1448.21,3535.6
1453.22,3541.65
1458.23,3582.7
1463.23,3526.9
1468.23,3567.05
1473.23,3541.95
1478.23,3522.75
1483.22,3466.35
1488.21,3495.15
1493.2,3541.4
1498.18,3487.5
1503.16,3510.0
1508.14,3526.0
1513.11,3510.05
1518.08,3513.8
1523.05,3556.55
1528.01,3566.45
1532.97,3547.9
1537.93,3593.35
1542.89,3579.35
1547.84,3583.25
1552.79,3618.25
1557.73,3618.05
1562.68,3631.25
1567.62,3666.75
1572.56,3673.4
1577.49,3680.2
1582.42,3706.5
1587.35,3696.55
1592.27,3784.0
1597.19,3914.5
1602.11,4205.6
1607.03,4912.1
1611.94,5884.75
1616.85,5802.65
1621.76,4746.25
1626.66,3983.9
1631.56,3829.85
1636.46,3721.75
1641.36,3720.7
1646.25,3764.65
1651.14,3743.2
1656.02,3711.75
1660.9,3792.3
1665.78,3762.35
1670.66,3752.0
1675.54,3801.0
1680.41,3771.45
1685.27,3827.8
1690.14,3871.0
1695.0,3826.65
1699.86,3885.6
1704.71,3935.4
1709.57,4172.4
1714.42,4535.4
1719.26,5004.2
1724.11,5113.8
1728.95,5188.7
1733.79,4963.45
1738.62,4743.25
1743.46,4344.95
1748.28,4143.75
1753.11,3976.5
1757.93,3945.0
1762.75,3943.5
1767.57,3898.25
1772.39,3950.4
1777.2,3923.2
1782.01,3888.1
1786.81,3920.8
1791.62,3942.35
1796.41,3933.4
1801.21,3914.7
1806.01,3890.55
1810.8,3929.65
1815.59,3897.15
1820.37,3950.4
1825.15,3938.95
1829.93,3838.8
1834.71,3978.6
1839.48,3948.8
1844.25,3921.95
1849.02,3944.3
1853.79,3968.35
1858.55,3992.75
1863.31,3945.1
1868.06,3950.1
1872.82,3998.55
1877.57,3960.6
1882.31,3954.0
1887.06,3987.1
1891.8,4009.65
1896.54,3982.25
1901.28,3979.8
1906.01,3986.35
1910.74,4015.9
1915.47,4033.45
1920.19,3997.15
1924.91,4044.15
1929.63,4000.0
1934.35,4001.25
1939.06,4000.75
1943.77,4039.5
1948.48,4055.1
1953.19,4017.0
1957.89,4027.65
1962.59,4063.4
1967.28,4055.0
1971.98,3946.25
1976.67,4078.65
1981.35,4069.25
1986.04,4071.85
1990.72,4082.95
1995.4,4098.15
2000.08,4144.8
2004.75,4127.35
2009.42,4075.4
2014.09,4048.85
2018.75,4084.3
2023.42,4210.45
2028.08,4116.65
2032.73,4119.55
2037.39,4117.4
2042.04,4138.7
2046.69,4119.55
2051.33,4108.0
2055.97,4113.7
2060.61,4086.1
2065.25,4154.75
2069.88,4167.3
2074.52,4188.4
2079.15,4112.1
2083.77,4093.1
2088.39,4154.0
2093.01,4162.8
2097.63,4124.2
2102.25,4143.7
2106.86,4166.85
2111.47,4132.6
2116.08,4188.45
2120.68,4211.95
2125.28,4179.4
2129.88,4217.45
2134.47,4156.25
2139.07,4161.9
2143.66,4191.8
2148.24,4130.45
2152.83,4207.8
2157.41,4180.65
2161.99,4162.95
2166.57,4114.05
2171.14,4166.65
2175.71,4184.05
2180.28,4224.2
2184.84,4172.05
2189.41,4261.3
2193.97,4157.8
2198.52,4160.8
2203.08,4268.5
2207.63,4172.95
2212.18,4144.05
2216.73,4138.5
2221.27,4234.15
2225.81,4193.4
2230.35,4208.15
2234.89,4173.15
2239.42,4162.75
2243.95,4229.85
2248.48,4304.8
2253.0,4201.2
2257.52,4181.75
2262.04,4173.55
2266.56,4232.7
2271.07,4129.4
2275.58,4168.7
2280.09,4121.3
2284.6,4164.55
2289.1,4243.85
2293.6,4236.7
2298.1,4109.1
2302.6,4278.05
2307.09,4207.45
2311.58,4195.0
2316.07,4230.5
2320.55,4270.0
2325.03,4192.65
2329.51,4177.7
2333.99,4239.05
2338.46,4178.0
2342.93,4156.1
2347.4,4191.55
2351.87,4213.35
2356.33,4129.0
2360.79,4161.1
2365.25,4231.75
2369.71,4210.2
2374.16,4191.15
2378.61,4222.05
2383.06,4205.55
2387.5,4240.8
2391.94,4211.0
2396.38,4105.3
2400.82,4242.15
2405.26,4256.2
2409.69,4266.2
2414.12,4200.2
2418.54,4219.5
2422.97,4230.7
2427.39,4161.7
2431.81,4221.45
2436.22,4145.9
2440.64,4266.65
2445.05,4256.95
2449.46,4209.1
2453.86,4160.05
2458.27,4224.1
2462.67,4248.4
2467.06,4157.1
2471.46,4221.85
2475.85,4186.85
2480.24,4231.95
2484.63,4222.0
2489.02,4190.75
2493.4,4213.4
2497.78,4205.6
2502.16,4250.9
2506.53,4129.35
2510.9,4218.2
2515.27,4223.2
2519.64,4247.45
2524.0,4266.35
2528.37,4277.85
2532.73,4221.85
2537.08,4131.65
2541.44,4228.9
2545.79,4317.6
2550.14,4238.85
2554.48,4207.2
2558.83,4180.7
2563.17,4242.65
2567.51,4258.55
2571.85,4319.9
2576.18,4222.75
2580.51,4199.85
2584.84,4203.75
2589.17,4232.8
2593.49,4190.8
2597.81,4309.15
2602.13,4202.65
2606.45,4311.95
2610.76,4254.85
2615.07,4269.45
2619.38,4247.3
2623.69,4234.2
2627.99,4302.85
2632.29,4302.1
2636.59,4242.6
2640.89,4256.35
2645.18,4231.9
2649.47,4341.65
2653.76,4298.8
2658.05,4209.75
2662.33,4272.25
2666.61,4243.65
2670.89,4278.2
2675.17,4285.5
2679.44,4255.0
2683.71,4326.35
2687.98,4222.35
2692.25,4313.4
2696.51,4326.8
2700.77,4264.3
2705.03,4285.15
2709.29,4257.6
2713.54,4289.15
2717.79,4273.85
2722.04,4324.15
2726.29,4278.7
2730.53,4289.4
2734.77,4327.95
2739.01,4330.45
2743.25,4294.55
2747.48,4385.65
2751.71,4281.7
2755.94,4353.2
2760.17,4319.1
2764.39,4391.0
2768.61,4366.95
2772.83,4338.35
2777.05,4322.8
2781.27,4370.8
2785.48,4356.9
2789.69,4396.65
2793.89,4430.85
2798.1,4510.4
2802.3,4342.55
2806.5,4322.25
2810.7,4394.5
2814.89,4389.0
2819.09,4417.7
2823.28,4390.2
2827.46,4450.95
2831.65,4425.5
2835.83,4406.1
2840.01,4395.7
2844.19,4445.95
2848.37,4396.9
2852.54,4488.9
2856.71,4445.45
2860.88,4449.0
2865.05,4479.7
2869.21,4520.1
2873.37,4526.85
2877.53,4510.35
2881.69,4631.7
2885.84,4657.55
2889.99,4562.05
2894.14,4614.8
2898.29,4619.15
2902.43,4602.95
2906.58,4683.1
2910.72,4615.2
2914.85,4600.85
2918.99,4671.1
2923.12,4665.0
2927.25,4577.35
2931.38,4556.45
2935.5,4727.0
2939.63,4662.3
2943.75,4861.85
2947.87,4894.9
2951.98,4983.3
2956.1,5186.1
2960.21,5128.8
2964.32,5224.7
2968.42,5137.65
2972.53,5177.65
2976.63,5051.45
2980.73,5017.25
2984.83,4881.3
2988.92,4988.55
2993.01,5016.25
2997.1,4848.65
3001.19,5010.85
3005.28,5008.2
3009.36,4954.05
3013.44,4905.2
3017.52,4855.65
3021.6,4832.2
3025.67,4994.55
3029.74,4926.2
3033.81,4875.4
3037.88,4886.9
3041.94,4856.55
3046.01,4785.8
3050.07,4901.45
3054.12,4866.9
3058.18,4978.8
3062.23,4977.4
3066.28,5059.9
3070.33,5390.1
3074.38,5308.1
3078.42,5441.0
3082.46,5590.3
3086.5,5499.75
3090.54,5427.95
3094.57,5146.2
3098.6,5150.25
3102.63,5009.9
3106.66,4958.6
3110.69,5038.0
3114.71,4928.7
3118.73,4985.0
3122.75,5062.5
3126.77,4932.2
3130.78,5031.25
3134.79,5031.8
3138.8,4930.25
3142.81,4995.7
3146.81,5014.0
3150.82,4993.0
3154.82,4966.75
3158.81,5029.35
3162.81,4950.65
3166.8,5165.85
3170.79,5006.65
3174.78,5046.3
3178.77,5035.8
3182.75,4917.5
3186.74,5041.7
3190.72,4922.95
3194.69,5055.5
3198.67,5037.35
3202.64,5132.6
3206.61,5048.35
3210.58,4987.0
3214.55,5043.6
3218.51,5168.05
3222.47,5067.05
3226.43,5206.1
3230.39,5125.4
3234.35,5086.9
3238.3,5093.9
3242.25,5012.9
3246.2,5079.9
3250.15,5074.95
3254.09,5189.35
3258.03,5121.55
3261.97,5142.65
3265.91,5084.25
3269.84,5123.75
3273.78,5123.5
3277.71,5220.25
3281.64,5127.85
3285.56,5110.65
3289.49,5102.15
3293.41,5225.75
3297.33,5146.75
3301.25,5179.6
3305.16,5117.9
3309.07,5176.1
3312.99,5049.95
3316.89,5057.85
3320.8,5187.3
3324.7,5169.35
3328.61,5188.55
3332.51,5104.35
3336.4,5180.85
3340.3,5027.1
3344.19,5238.55
3348.08,5198.35
3351.97,5076.2
3355.86,5195.9
3359.74,5202.7
3363.63,5110.15
3367.51,5139.5
3371.39,5024.9
3375.26,5117.95
3379.13,5246.2
3383.01,5179.4
3386.88,5091.15
3390.74,5218.4
3394.61,5161.9
3398.47,5042.45
3402.33,5172.35
3406.19,5180.05
3410.05,5102.25
3413.9,5180.4
3417.75,5121.25
3421.6,5139.8
3425.45,5063.25
3429.3,5014.7
3433.14,5151.5
3436.98,5115.3
3440.82,5072.65
3444.66,5125.65
3448.49,5096.35
3452.32,5092.7
3456.15,5158.75
3459.98,5102.8
3463.81,5208.55
3467.63,5120.65
3471.46,5111.8
3475.28,5023.95
3479.09,5167.35
3482.91,5119.7
3486.72,5023.05
3490.53,5126.15
3494.34,5060.8
3498.15,4997.3
3501.96,4966.95
3505.76,4956.05
3509.56,4973.95
3513.36,4983.25
3517.15,4873.6
3520.95,4973.5
3524.74,5059.55
3528.53,4898.2
3532.32,5023.0
3536.11,4952.1
3539.89,4950.5
3543.67,5106.6
3547.45,4924.45
3551.23,5052.7
3555.0,4931.55
3558.78,4919.4
3562.55,4978.65
3566.32,4971.35
3570.09,4831.85
3573.85,4858.45
3577.61,4947.5
3581.37,4842.55
3585.13,4847.7
3588.89,4845.9
3592.64,4862.45
3596.4,4895.4
3600.15,4788.6
3603.9,4846.5
3607.64,4768.5
3611.39,4813.6
3615.13,4854.65
3618.87,4698.0
3622.61,4708.35
3626.34,4717.65
3630.08,4637.3
3633.81,4706.95
3637.54,4687.65
3641.27,4641.05
3644.99,4675.1
3648.72,4707.45
3652.44,4661.7
3656.16,4694.9
3659.87,4808.5
3663.59,4686.35
3665.45,4794.7