File: spectra/VLFR_01-LDPE_bio_Raman_35dbd681.csv
nm,Intensity
526.508,829.7
526.645,830.5
526.782,830.3
526.919,830.7
527.055,829.8
527.192,830.5
527.329,830.2
527.465,829.3
527.602,830.3
527.739,829.0
527.875,830.8
528.012,830.5
528.149,830.1
528.285,830.2
528.422,830.4
528.558,830.5
528.695,830.7
528.832,829.5
528.968,830.2
529.105,830.0
529.241,829.6
529.378,830.6
529.514,829.9
529.651,829.8
529.787,830.0
529.924,830.1
530.061,831.5
530.197,828.6
530.334,829.6
530.47,831.4
530.606,830.3
530.743,830.3
530.879,829.6
531.016,831.3
531.152,829.6
531.289,829.0
531.425,829.5
531.562,829.9
531.698,831.0
531.834,830.1
531.971,836.1
532.107,882.0
532.244,907.2
532.38,848.3
532.516,832.2
532.653,830.8
532.789,829.6
532.925,829.5
533.062,830.7
533.198,830.1
533.334,830.1
533.471,830.1
533.607,829.8
533.743,835.0
533.879,861.0
534.016,893.7
534.152,906.3
534.288,904.3
534.424,898.8
534.561,896.6
534.697,891.6
534.833,887.4
534.969,887.1
535.106,883.1
535.242,881.9
535.378,877.0
535.514,873.5
535.65,871.8
535.786,869.7
535.923,871.3
536.059,867.1
536.195,867.3
536.331,866.5
536.467,866.5
536.603,862.3
536.739,862.3
536.876,862.5
537.012,864.0
537.148,861.2
537.284,860.2
537.42,859.4
537.556,861.9
537.692,861.3
537.828,861.4
537.964,860.6
538.1,862.0
538.236,860.2
538.372,860.0
538.508,857.8
538.644,858.8
538.78,857.2
538.916,856.7
539.052,859.4
539.188,859.4
539.324,856.4
539.46,855.1
539.596,854.9
539.732,853.8
539.868,853.2
540.004,854.0
540.14,850.9
540.275,852.4
540.411,851.3
540.547,851.1
540.683,852.3
540.819,851.1
540.955,850.0
541.091,851.6
541.227,851.6
541.362,848.6
541.498,850.4
541.634,849.6
541.77,850.9
541.906,849.3
542.041,850.0
542.177,848.6
542.313,849.9
542.449,850.3
542.585,847.1
542.72,849.2
542.856,850.1
542.992,851.7
543.128,851.8
543.263,851.0
543.399,849.6
543.535,849.4
543.67,848.7
543.806,848.9
543.942,849.3
544.078,848.6
544.213,847.1
544.349,848.9
544.485,849.0
544.62,848.9
544.756,850.0
544.892,847.4
545.027,846.7
545.163,847.7
545.298,847.8
545.434,847.6
545.57,847.3
545.705,846.8
545.841,847.5
545.976,847.5
546.112,845.6
546.248,847.5
546.383,847.4
546.519,847.8
546.654,849.5
546.79,847.2
546.925,847.3
547.061,847.3
547.196,847.4
547.332,848.2
547.467,847.7
547.603,846.0
547.738,847.5
547.874,847.0
548.009,847.6
548.145,844.7
548.28,848.6
548.416,845.7
548.551,844.9
548.686,845.8
548.822,845.0
548.957,847.6
549.093,846.3
549.228,846.1
549.363,847.1
549.499,845.7
549.634,843.4
549.77,846.6
549.905,849.0
550.04,845.5
550.176,846.1
550.311,846.0
550.446,844.9
550.582,846.4
550.717,847.3
550.852,845.2
550.988,847.2
551.123,846.1
551.258,846.0
551.394,847.5
551.529,845.4
551.664,846.8
551.799,847.1
551.935,847.0
552.07,843.7
552.205,847.3
552.34,846.1
552.476,848.0
552.611,846.8
552.746,847.8
552.881,849.2
553.016,846.7
553.152,846.5
553.287,848.7
553.422,852.1
553.557,850.3
553.692,850.5
553.827,852.1
553.963,852.1
554.098,850.7
554.233,848.1
554.368,850.9
554.503,851.7
554.638,850.4
554.773,852.8
554.908,851.7
555.043,851.5
555.179,851.8
555.314,851.6
555.449,852.6
555.584,848.9
555.719,854.4
555.854,854.1
555.989,853.7
556.124,854.9
556.259,854.5
556.394,854.8
556.529,856.5
556.664,856.8
556.799,856.4
556.934,859.8
557.069,857.5
557.204,858.6
557.339,857.4
557.474,859.9
557.609,859.1
557.744,863.2
557.879,863.1
558.014,864.1
558.149,863.3
558.284,862.2
558.419,866.4
558.553,864.8
558.688,866.1
558.823,865.8
558.958,861.9
559.093,863.3
559.228,861.0
559.363,862.1
559.498,859.6
559.632,861.9
559.767,859.4
559.902,861.0
560.037,860.2
560.172,859.7
560.307,859.6
560.441,861.6
560.576,861.3
560.711,860.5
560.846,861.4
560.981,860.8
561.115,861.5
561.25,862.8
561.385,863.1
561.52,860.2
561.654,863.8
561.789,864.4
561.924,866.1
562.059,864.3
562.193,866.4
562.328,865.7
562.463,868.9
562.598,870.1
562.732,870.8
562.867,873.0
563.002,872.2
563.136,874.5
563.271,874.9
563.406,879.0
563.54,880.4
563.675,886.4
563.81,893.8
563.944,929.0
564.079,971.6
564.213,951.8
564.348,912.4
564.483,899.2
564.617,902.2
564.752,902.2
564.887,899.0
565.021,896.1
565.156,893.4
565.29,892.5
565.425,893.5
565.559,892.0
565.694,897.7
565.828,900.8
565.963,923.2
566.098,970.1
566.232,991.0
566.367,949.6
566.501,915.7
566.636,898.5
566.77,896.9
566.905,892.1
567.039,893.7
567.174,892.4
567.308,891.4
567.443,896.2
567.577,899.9
567.711,895.6
567.846,894.1
567.98,891.5
568.115,893.9
568.249,893.3
568.384,894.9
568.518,892.2
568.652,898.1
568.787,899.4
568.921,897.2
569.056,898.5
569.19,898.5
569.324,901.9
569.459,903.4
569.593,905.8
569.727,908.1
569.862,909.0
569.996,906.6
570.131,910.1
570.265,913.0
570.399,913.8
570.534,916.0
570.668,917.1
570.802,924.8
570.936,924.9
571.071,931.6
571.205,939.4
571.339,955.0
571.474,1027.3
571.608,1110.5
571.742,1027.9
571.876,988.3
572.011,974.1
572.145,964.9
572.279,958.9
572.413,960.5
572.548,954.7
572.682,956.4
572.816,951.7
572.95,954.7
573.084,952.9
573.219,953.3
573.353,955.3
573.487,964.7
573.621,962.6
573.755,966.8
573.889,973.7
574.024,988.9
574.158,984.1
574.292,980.5
574.426,980.6
574.56,984.7
574.694,989.9
574.828,992.7
574.963,1000.0
575.097,1006.3
575.231,1012.2
575.365,1018.1
575.499,1052.0
575.633,1090.9
575.767,1087.3
575.901,1078.3
576.035,1093.9
576.169,1131.5
576.303,1159.3
576.437,1164.1
576.571,1156.5
576.706,1141.9
576.84,1148.5
576.974,1153.1
577.108,1155.6
577.242,1150.5
577.376,1135.7
577.51,1143.1
577.644,1138.7
577.778,1140.7
577.912,1148.3
578.046,1153.1
578.179,1153.9
578.313,1168.5
578.447,1168.7
578.581,1183.5
578.715,1195.3
578.849,1201.0
578.983,1212.2
579.117,1220.6
579.251,1230.8
579.385,1236.7
579.519,1241.4
579.653,1253.8
579.787,1252.4
579.921,1268.0
580.054,1283.5
580.188,1288.4
580.322,1294.0
580.456,1298.4
580.59,1312.0
580.724,1329.2
580.858,1324.9
580.991,1344.8
581.125,1347.2
581.259,1349.1
581.393,1369.2
581.527,1371.9
581.661,1382.4
581.794,1390.3
581.928,1394.3
582.062,1405.5
582.196,1411.1
582.33,1428.4
582.463,1436.2
582.597,1440.9
582.731,1448.4
582.865,1458.6
582.998,1460.7
583.132,1467.1
583.266,1463.2
583.4,1479.6
583.533,1484.7
583.667,1492.9
583.801,1495.2
583.935,1504.6
584.068,1503.5
584.202,1517.7
584.336,1517.8
584.469,1519.6
584.603,1518.6
584.737,1529.9
584.87,1518.3
585.004,1535.0
585.138,1536.5
585.271,1541.0
585.405,1542.6
585.539,1547.1
585.672,1553.8
585.806,1549.1
585.94,1562.6
586.073,1566.1
586.207,1571.4
586.34,1580.2
586.474,1579.6
586.608,1575.9
586.741,1591.7
586.875,1592.5
587.008,1605.2
587.142,1609.7
587.276,1610.4
587.409,1613.2
587.543,1610.6
587.676,1605.9
587.81,1610.0
587.943,1611.8
588.077,1614.9
588.21,1625.0
588.344,1620.8
588.478,1638.8
588.611,1639.6
588.745,1632.6
588.878,1634.0
589.012,1631.1
589.145,1636.6
589.279,1637.1
589.412,1648.1
589.546,1652.4
589.679,1663.2
589.812,1655.5
589.946,1661.3
590.079,1665.5
590.213,1680.8
590.346,1674.4
590.48,1678.7
590.613,1687.6
590.747,1695.8
590.88,1691.7
591.013,1695.8
591.147,1699.2
591.28,1697.1
591.414,1708.5
591.547,1690.4
591.68,1703.9
591.814,1709.1
591.947,1709.4
592.081,1698.5
592.214,1705.5
592.347,1706.7
592.481,1705.5
592.614,1709.4
592.747,1699.5
592.881,1704.5
593.014,1709.3
593.147,1705.6
593.281,1702.8
593.414,1701.2
593.547,1694.9
593.681,1709.0
593.814,1720.3
593.947,1705.6
594.081,1705.3
594.214,1716.0
594.347,1725.0
594.48,1711.6
594.614,1716.8
594.747,1729.8
594.88,1727.8
595.014,1727.0
595.147,1726.7
595.28,1733.4
595.413,1734.8
595.547,1728.2
595.68,1724.7
595.813,1739.3
595.946,1749.1
596.079,1740.3
596.213,1748.0
596.346,1757.9
596.479,1754.1
596.612,1759.6
596.745,1759.0
596.879,1765.1
597.012,1772.2
597.145,1778.5
597.278,1771.4
597.411,1781.6
597.545,1783.4
597.678,1787.5
597.811,1803.2
597.944,1805.8
598.077,1798.1
598.21,1805.4
598.343,1815.1
598.476,1809.9
598.61,1824.9
598.743,1825.6
598.876,1832.6
599.009,1850.1
599.142,1836.3
599.275,1833.7
599.408,1837.4
599.541,1847.3
599.674,1842.3
599.807,1844.6
599.941,1862.8
600.074,1855.9
600.207,1851.0
600.34,1835.8
600.473,1841.7
600.606,1836.4
600.739,1836.7
600.872,1837.4
601.005,1838.9
601.138,1850.8
601.271,1840.6
601.404,1839.1
601.537,1828.0
601.67,1816.3
601.803,1831.5
601.936,1819.5
602.069,1824.7
602.202,1815.6
602.335,1807.0
602.468,1801.6
602.601,1788.4
602.734,1803.3
602.867,1790.5
603.0,1788.0
603.133,1784.6
603.266,1763.8
603.399,1773.4
603.532,1760.2
603.664,1761.8
603.797,1751.6
603.93,1732.4
604.063,1735.3
604.196,1722.8
604.329,1714.0
604.462,1695.0
604.595,1681.7
604.728,1678.7
604.861,1668.1
604.994,1657.2
605.126,1648.7
605.259,1638.3
605.392,1616.5
605.525,1617.2
605.658,1604.8
605.791,1601.1
605.924,1594.8
606.056,1585.0
606.189,1570.0
606.322,1559.6
606.455,1554.0
606.588,1550.4
606.721,1527.7
606.853,1530.7
606.986,1515.5
607.119,1521.5
607.252,1512.4
607.385,1506.2
607.517,1506.4
607.65,1492.4
607.783,1495.7
607.916,1484.4
608.049,1489.6
608.181,1482.4
608.314,1470.8
608.447,1473.0
608.58,1464.5
608.712,1458.5
608.845,1452.8
608.978,1443.3
609.111,1445.1
609.243,1432.6
609.376,1428.0
609.509,1422.3
609.641,1418.9
609.774,1413.0
609.907,1407.7
610.04,1407.3
610.172,1400.2
610.305,1390.0
610.438,1392.0
610.57,1384.2
610.703,1382.8
610.836,1375.9
610.968,1377.8
611.101,1373.1
611.234,1373.0
611.366,1358.6
611.499,1360.1
611.632,1364.3
611.764,1359.8
611.897,1353.6
612.03,1348.0
612.162,1350.0
612.295,1351.8
612.428,1352.1
612.56,1342.9
612.693,1345.1
612.825,1343.9
612.958,1336.1
613.091,1336.0
613.223,1332.2
613.356,1328.6
613.488,1324.6
613.621,1327.5
613.754,1323.6
613.886,1324.8
614.019,1316.2
614.151,1313.3
614.284,1310.6
614.416,1306.5
614.549,1304.6
614.681,1296.9
614.814,1298.2
614.947,1299.8
615.079,1292.2
615.212,1289.0
615.344,1279.7
615.477,1288.2
615.609,1283.6
615.742,1276.1
615.874,1273.5
616.007,1274.5
616.139,1272.7
616.272,1269.0
616.404,1260.4
616.537,1264.6
616.669,1262.8
616.802,1257.2
616.934,1261.6
617.067,1267.5
617.199,1264.6
617.332,1260.9
617.464,1259.0
617.596,1260.0
617.729,1257.8
617.861,1250.9
617.994,1250.6
618.126,1259.6
618.259,1256.2
618.391,1243.9
618.524,1254.1
618.656,1247.2
618.788,1249.4
618.921,1240.3
619.053,1241.8
619.186,1238.9
619.318,1244.8
619.45,1245.5
619.583,1241.3
619.715,1236.0
619.848,1239.7
619.98,1237.2
620.112,1231.2
620.245,1229.0
620.377,1233.0
620.509,1223.7
620.642,1231.4
620.774,1239.4
620.907,1233.4
621.039,1238.1
621.171,1239.3
621.304,1246.9
621.436,1234.0
621.568,1238.7
621.701,1246.0
621.833,1252.0
621.965,1258.8
622.097,1258.6
622.23,1270.8
622.362,1269.7
622.494,1270.7
622.627,1261.9
622.759,1262.1
622.891,1255.8
623.024,1253.6
623.156,1248.6
623.288,1238.0
623.42,1244.8
623.553,1243.0
623.685,1236.4
623.817,1248.7
623.949,1246.8
624.082,1243.3
624.214,1244.0
624.346,1246.7
624.479,1244.9
624.611,1255.0
624.743,1245.1
624.875,1246.9
625.007,1254.0
625.14,1254.7
625.272,1249.5
625.404,1252.4
625.536,1261.7
625.669,1264.3
625.801,1253.9
625.933,1273.8
626.065,1273.2
626.197,1281.2
626.33,1296.3
626.462,1309.5
626.594,1325.8
626.726,1386.3
626.858,1468.8
626.99,1625.2
627.123,1800.3
627.255,1917.5
627.387,1918.5
627.519,1829.4
627.651,1752.0
627.783,1698.1
627.916,1676.9
628.048,1654.9
628.18,1653.3
628.312,1698.7
628.444,1816.3
628.576,1989.4
628.708,1988.0
628.84,1850.2
628.973,1783.5
629.105,1762.2
629.237,1734.8
629.369,1717.2
629.501,1691.9
629.633,1661.2
629.765,1629.0
629.897,1615.1
630.029,1598.6
630.161,1597.4
630.294,1594.4
630.426,1594.2
630.558,1591.8
630.69,1567.6
630.822,1538.6
630.954,1502.9
631.086,1460.4
631.218,1421.2
631.35,1408.2
631.482,1393.8
631.614,1396.1
631.746,1378.3
631.878,1379.9
632.01,1369.0
632.142,1368.9
632.274,1367.2
632.406,1362.1
632.538,1364.1
632.67,1367.9
632.802,1355.2
632.934,1359.8
633.066,1361.4
633.198,1358.0
633.33,1369.6
633.462,1352.1
633.594,1358.6
633.726,1364.3
633.858,1353.7
633.99,1361.2
634.122,1358.5
634.254,1364.0
634.386,1362.3
634.518,1360.9
634.65,1362.5
634.782,1363.4
634.914,1364.6
635.046,1369.8
635.178,1353.2
635.31,1366.2
635.442,1364.2
635.574,1365.8
635.706,1374.8
635.838,1372.8
635.97,1366.2
636.102,1375.8
636.234,1376.8
636.365,1372.1
636.497,1372.3
636.629,1369.3
636.761,1369.5
636.893,1375.3
637.025,1381.3
637.157,1373.7
637.289,1367.9
637.421,1375.1
637.553,1375.5
637.685,1373.8
637.816,1369.1
637.948,1376.3
638.08,1379.6
638.212,1381.5
638.344,1381.4
638.476,1379.6
638.608,1377.9
638.74,1376.7
638.871,1375.4
639.003,1377.4
639.135,1383.3
639.267,1382.3
639.399,1380.4
639.531,1378.0
639.662,1377.0
639.794,1382.1
639.926,1383.3
640.058,1384.8
640.19,1384.5
640.322,1379.7
640.453,1375.7
640.585,1382.8
640.717,1386.1
640.849,1382.9
640.981,1386.8
641.113,1389.3
641.244,1385.3
641.376,1389.2
641.508,1395.9
641.64,1384.3
641.772,1386.5
641.903,1386.7
642.035,1382.6
642.167,1384.8
642.299,1382.6
642.43,1386.9
642.562,1377.3
642.694,1382.2
642.826,1377.9
642.958,1390.6
643.089,1374.6
643.221,1375.5
643.353,1383.1
643.485,1380.6
643.616,1387.5
643.748,1375.5
643.88,1369.6
644.012,1368.3
644.143,1372.2
644.275,1373.7
644.407,1378.5
644.538,1376.0
644.67,1372.5
644.802,1371.0
644.934,1366.3
645.065,1373.0
645.197,1369.3
645.329,1364.6
645.461,1367.7
645.592,1362.8
645.724,1367.9
645.856,1358.1
645.987,1365.6
646.119,1361.4
646.251,1366.6
646.382,1362.4
646.514,1369.3
646.646,1362.1
646.777,1363.1
646.909,1364.9
647.041,1365.1
647.172,1355.1
647.304,1359.5
647.436,1372.0
647.567,1361.4
647.699,1352.9
647.831,1359.4
647.962,1355.5
648.094,1360.6
648.226,1349.7
648.357,1357.7
648.489,1348.7
648.621,1349.1
648.752,1350.4
648.884,1350.4
649.016,1348.1
649.147,1340.7
649.279,1344.3
649.411,1342.4
649.542,1347.1
649.674,1352.3
649.805,1348.6
649.937,1336.7
650.069,1345.0
650.2,1343.6
650.332,1339.6
650.463,1339.1
650.595,1332.9
650.727,1337.5
650.858,1333.2
650.99,1344.9
651.121,1339.6
651.253,1334.7
651.385,1328.7
651.516,1338.9
651.648,1326.3
651.779,1334.0
651.911,1331.6
652.043,1342.0
652.174,1338.6
652.306,1343.1
652.437,1336.8
652.569,1340.1
652.7,1334.8
652.832,1343.6
652.963,1332.4
653.095,1338.0
653.227,1327.9
653.358,1335.0
653.49,1335.9
653.621,1337.1
653.753,1327.7
653.884,1330.0
654.016,1325.2
654.147,1331.5
654.279,1324.4
654.41,1323.7
654.542,1329.3
654.674,1331.1
654.805,1323.8
654.937,1320.4
655.068,1327.0
655.2,1321.3
655.331,1318.8
655.463,1323.0
655.594,1322.7
655.726,1317.5
655.857,1314.7
655.989,1312.5
656.12,1311.0
656.252,1311.0
656.383,1307.4
656.515,1298.2
656.646,1299.6
656.778,1303.2
656.909,1302.4
657.041,1304.1
657.172,1294.2
657.304,1299.0
657.435,1289.4
657.567,1291.5
657.698,1282.8
657.829,1281.1
657.961,1282.1
658.092,1278.7
658.224,1274.4
658.355,1280.0
658.487,1270.6
658.618,1269.9
658.75,1266.1
658.881,1265.0
659.013,1261.9
659.144,1256.7
659.275,1251.0
659.407,1252.5
659.538,1252.0
659.67,1242.7
659.801,1238.4
659.933,1234.9
660.064,1236.0
660.196,1234.0
660.327,1219.6
660.458,1217.2
660.59,1220.6
660.721,1212.2
660.853,1210.9
660.984,1211.3
661.116,1205.2
661.247,1200.7
661.378,1196.2
661.51,1195.9
661.641,1182.4
661.773,1181.1
661.904,1183.5
662.035,1181.7
662.167,1177.0
662.298,1176.0
662.43,1167.4
662.561,1169.9
662.692,1171.0
662.824,1158.7
662.955,1154.0
663.087,1159.7