File: spectra/VLFR_07-PET_nobio_Raman_9ba1d6f5.csv
nm,Intensity
791.377,12004.4
791.652,11552.3
791.927,11417.9
792.202,11346.0
792.477,10922.4
792.752,10722.3
793.027,10516.4
793.301,10384.4
793.576,10315.6
793.851,10219.3
794.126,10079.1
794.401,10091.7
794.676,10092.0
794.951,9958.66
795.225,9951.74
795.5,9873.12
795.775,9879.24
796.05,9838.06
796.325,9865.24
796.599,9849.78
796.874,9810.74
797.149,9743.22
797.424,9758.9
797.698,9836.92
797.973,9730.56
798.248,9615.78
798.523,9842.3
798.797,9906.9
799.072,9835.52
799.347,9633.4
799.622,9624.54
799.896,9594.42
800.171,9651.84
800.446,9694.9
800.72,9636.28
800.995,9743.58
801.27,9724.24
801.544,9624.74
801.819,9699.2
802.094,9580.14
802.368,9532.66
802.643,9545.8
802.918,9553.16
803.192,9454.88
803.467,9386.1
803.742,9472.84
804.016,9455.72
804.291,9316.98
804.565,9286.36
804.84,9266.82
805.114,9282.58
805.389,9197.7
805.664,9105.72
805.938,9044.9
806.213,9205.58
806.487,9287.44
806.762,9168.78
807.036,9153.74
807.311,9111.96
807.585,9033.48
807.86,9126.04
808.134,9156.5
808.409,9016.5
808.683,9004.8
808.958,9100.52
809.232,9093.88
809.507,8925.78
809.781,8864.8
810.056,8946.88
810.33,8944.08
810.605,9007.9
810.879,8847.12
811.153,8838.44
811.428,8930.22
811.702,8854.78
811.977,8809.42
812.251,8833.34
812.525,8831.04
812.8,8702.36
813.074,8745.42
813.349,8766.56
813.623,8779.5
813.897,8720.82
814.172,8683.02
814.446,8614.16
814.72,8655.12
814.995,8663.06
815.269,8653.16
815.543,8628.88
815.818,8554.82
816.092,8591.64
816.366,8569.74
816.64,8418.6
816.915,8522.08
817.189,8557.1
817.463,8587.5
817.737,8479.04
818.012,8396.96
818.286,8520.8
818.56,8421.44
818.834,8324.64
819.109,8350.4
819.383,8372.84
819.657,8365.64
819.931,8447.46
820.205,8464.44
820.48,8386.36
820.754,8248.38
821.028,8289.68
821.302,8285.7
821.576,8218.46
821.85,8149.88
822.125,8125.02
822.399,8163.7
822.673,8184.66
822.947,8161.6
823.221,8045.62
823.495,8095.98
823.769,8216.44
824.043,8166.58
824.317,8073.3
824.591,8047.44
824.865,8005.24
825.14,8091.84
825.414,8270.2
825.688,8354.82
825.962,8259.1
826.236,8253.26
826.51,7997.68
826.784,7913.0
827.058,7978.66
827.332,8001.28
827.606,7910.46
827.88,7811.74
828.154,7894.1
828.428,7758.22
828.702,7853.02
828.976,7872.88
829.249,7871.32
829.523,7825.28
829.797,7868.04
830.071,7799.24
830.345,7756.28
830.619,7862.98
830.893,7862.34
831.167,7833.28
831.441,7799.56
831.715,7746.68
831.988,7641.28
832.262,7635.3
832.536,7696.74
832.81,7621.36
833.084,7484.14
833.358,7578.58
833.632,7672.42
833.905,7610.2
834.179,7529.26
834.453,7448.06
834.727,7464.84
835.001,7572.5
835.274,7509.04
835.548,7476.06
835.822,7487.06
836.096,7503.64
836.369,7483.86
836.643,7504.22
836.917,7562.46
837.191,7633.12
837.464,7626.04
837.738,7558.0
838.012,7505.42
838.285,7468.06
838.559,7500.16
838.833,7524.66
839.106,7512.74
839.38,7453.52
839.654,7449.46
839.927,7511.94
840.201,7563.66
840.475,7568.32
840.748,7620.66
841.022,7770.76
841.295,7794.52
841.569,7796.82
841.843,7696.8
842.116,7479.14
842.39,7394.06
842.663,7393.62
842.937,7401.38
843.211,7405.54
843.484,7394.68
843.758,7391.96
844.031,7301.9
844.305,7231.1
844.578,7176.7
844.852,7123.86
845.125,7131.02
845.399,7048.38
845.672,7017.36
845.946,7018.36
846.219,7010.92
846.493,6986.72
846.766,6967.2
847.039,7037.0
847.313,7023.82
847.586,6991.36
847.86,6955.6
848.133,6924.9
848.407,6968.54
848.68,6934.06
848.953,6900.8
849.227,6888.6
849.5,6858.88
849.773,6862.7
850.047,6875.48
850.32,6897.04
850.593,6916.0
850.867,6886.08
851.14,6881.36
851.413,6885.02
851.687,6897.06
851.96,6845.54
852.233,6843.64
852.507,6804.88
852.78,6837.92
853.053,6826.48
853.326,6819.58
853.6,6809.24
853.873,6815.94
854.146,6758.18
854.419,6705.9
854.693,6718.22
854.966,6768.58
855.239,6708.66
855.512,6662.78
855.785,6706.54
856.059,6703.94
856.332,6655.0
856.605,6660.88
856.878,6630.76
857.151,6621.2
857.424,6661.8
857.698,6731.78
857.971,6736.86
858.244,6762.54
858.517,6754.14
858.79,6724.56
859.063,6762.56
859.336,6826.08
859.609,6840.84
859.882,6821.72
860.155,6766.68
860.428,6763.82
860.701,6736.86
860.974,6724.96
861.247,6673.28
861.52,6611.78
861.793,6546.12
862.066,6512.6
862.339,6465.84
862.612,6455.54
862.885,6492.8
863.158,6449.68
863.431,6449.52
863.704,6445.62
863.977,6512.82
864.25,6560.38
864.523,6608.66
864.796,6592.6
865.069,6446.44
865.342,6342.92
865.615,6297.74
865.888,6334.34
866.16,6293.78
866.433,6302.74
866.706,6391.94
866.979,6371.26
867.252,6327.02
867.525,6328.46
867.798,6290.74
868.07,6261.18
868.343,6326.22
868.616,6268.48
868.889,6225.56
869.162,6279.8
869.434,6354.8
869.707,6328.96
869.98,6300.42
870.253,6291.52
870.525,6353.82
870.798,6369.36
871.071,6384.02
871.344,6479.06
871.616,6441.76
871.889,6486.5
872.162,6538.44
872.434,6622.0
872.707,6657.2
872.98,6644.6
873.252,6596.3
873.525,6538.12
873.798,6494.84
874.07,6460.32
874.343,6406.34
874.615,6328.96
874.888,6287.08
875.161,6285.82
875.433,6219.36
875.706,6158.92
875.978,6116.66
876.251,6087.2
876.524,6081.86
876.796,6074.96
877.069,6097.44
877.341,6102.6
877.614,6026.16
877.886,5989.4
878.159,5981.94
878.431,6027.32
878.704,6021.18
878.976,6009.52
879.249,6006.28
879.521,5991.58
879.794,6013.12
880.066,5967.4
880.338,5933.3
880.611,5935.02
880.883,5890.6
881.156,5878.06
881.428,5908.56
881.7,5993.5
881.973,5995.66
882.245,5962.4
882.518,5897.8
882.79,5843.08
883.062,5884.22
883.335,5879.84
883.607,5847.82
883.879,5820.98
884.152,5795.78
884.424,5868.52
884.696,5858.58
884.968,5864.64
885.241,5862.5
885.513,5876.7
885.785,5872.36
886.058,5850.92
886.33,5801.04
886.602,5763.7
886.874,5763.94
887.146,5751.78
887.419,5727.58
887.691,5685.72
887.963,5710.84
888.235,5682.06
888.507,5656.3
888.78,5629.2
889.052,5633.48
889.324,5667.88
889.596,5688.8
889.868,5659.88
890.14,5629.24
890.412,5627.7
890.684,5614.22
890.957,5601.56
891.229,5604.78
891.501,5627.94
891.773,5636.94
892.045,5653.16
892.317,5618.96
892.589,5556.88
892.861,5500.98
893.133,5490.08
893.405,5525.52
893.677,5541.12
893.949,5572.96
894.221,5507.0
894.493,5461.92
894.765,5456.94
895.037,5471.96
895.309,5473.16
895.581,5422.7
895.853,5428.62
896.125,5457.36
896.397,5474.72
896.668,5470.92
896.94,5498.76
897.212,5616.0
897.484,5715.14
897.756,5847.44
898.028,5978.28
898.3,6111.16
898.571,6159.94
898.843,6153.66
899.115,6009.98
899.387,5832.1
899.659,5655.0
899.931,5539.38
900.202,5436.22
900.474,5394.2
900.746,5366.4
901.018,5335.7
901.289,5280.2
901.561,5247.54
901.833,5279.0
902.105,5265.08
902.376,5254.6
902.648,5219.2
902.92,5189.9
903.191,5224.72
903.463,5245.16
903.735,5252.6
904.006,5231.8
904.278,5238.66
904.55,5228.2
904.821,5185.6
905.093,5146.18
905.365,5168.42
905.636,5178.7
905.908,5251.82
906.179,5344.6
906.451,5420.42
906.722,5515.54
906.994,5614.58
907.266,5654.86
907.537,5658.2
907.809,5648.46
908.08,5641.3
908.352,5639.12
908.623,5610.24
908.895,5513.0
909.166,5402.88
909.438,5318.0
909.709,5220.94
909.981,5151.5
910.252,5094.46
910.523,5058.88
910.795,5028.36
911.066,5004.5
911.338,4995.98
911.609,5008.7
911.881,5003.5
912.152,4974.34
912.423,4955.62
912.695,4954.58
912.966,4942.08
913.237,4923.02
913.509,4918.2
913.78,4940.68
914.051,4908.04
914.323,4889.64
914.594,4919.62
914.865,4916.4
915.136,4884.42
915.408,4860.02
915.679,4858.52
915.95,4863.16
916.221,4862.3
916.493,4851.7
916.764,4833.32
917.035,4836.1
917.306,4849.14
917.578,4829.9
917.849,4818.02
918.12,4812.74
918.391,4808.42
918.662,4794.78
918.933,4771.8
919.204,4776.98
919.476,4770.54
919.747,4778.86
920.018,4768.32
920.289,4748.88
920.56,4729.42
920.831,4708.08
921.102,4691.06
921.373,4703.82
921.644,4705.92
921.915,4721.28
922.186,4734.12
922.457,4726.64
922.728,4716.32
922.999,4695.86
923.27,4685.84
923.541,4668.04
923.812,4677.74
924.083,4679.46
924.354,4663.46
924.625,4626.38
924.896,4621.9
925.167,4628.14
925.438,4620.74
925.709,4632.9
925.98,4631.4
926.251,4621.0
926.522,4610.2
926.792,4573.1
927.063,4548.72
927.334,4555.12
927.605,4571.34
927.876,4559.0
928.147,4569.24
928.417,4553.98
928.688,4544.38
928.959,4547.5
929.23,4549.78
929.501,4541.56
929.771,4529.84
930.042,4531.4
930.313,4520.12
930.584,4531.26
930.854,4522.48
931.125,4503.82
931.396,4489.28
931.666,4476.62
931.937,4465.12
932.208,4445.76
932.478,4445.0
932.749,4457.84
933.02,4466.78
933.29,4447.18
933.561,4425.48
933.832,4422.36
934.102,4412.36
934.373,4408.24
934.643,4408.8
934.914,4413.72
935.184,4413.76
935.455,4400.76
935.726,4400.5
935.996,4391.08
936.267,4387.36
936.537,4384.78
936.808,4372.7
937.078,4370.94
937.349,4372.66
937.619,4363.62
937.89,4353.2
938.16,4359.16
938.43,4364.68
938.701,4360.62
938.971,4346.2
939.242,4347.8
939.512,4339.9
939.782,4321.4
940.053,4317.5
940.323,4317.68
940.594,4325.04
940.864,4318.8
941.134,4314.84
941.405,4308.36
941.675,4301.22
941.945,4309.82
942.216,4303.36
942.486,4300.76
942.756,4304.04
943.026,4281.2
943.297,4272.82
943.567,4265.28
943.837,4250.1
944.107,4239.14
944.378,4242.74
944.648,4245.8
944.918,4247.5
945.188,4244.98
945.458,4245.9
945.729,4229.64
945.999,4224.7
946.269,4220.98
946.539,4220.66
946.809,4215.1
947.079,4210.46
947.349,4216.8
947.62,4211.46
947.89,4203.28
948.16,4211.8
948.43,4209.24
948.7,4205.42
948.97,4200.7
949.24,4197.76
949.51,4190.64
949.78,4183.14
950.05,4169.16
950.32,4164.8
950.59,4160.84
950.86,4166.42
951.13,4170.08
951.4,4153.04
951.67,4149.86
951.94,4149.22
952.21,4148.02
952.48,4147.08
952.75,4154.18
953.02,4157.86
953.289,4141.02
953.559,4141.06
953.829,4138.08
954.099,4127.9
954.369,4121.68
954.639,4116.04
954.909,4104.7
955.178,4106.88
955.448,4111.94
955.718,4110.16
955.988,4107.58
956.257,4108.42
956.527,4100.18
956.797,4099.54
957.067,4094.08
957.336,4085.62
957.606,4077.14
957.876,4076.22
958.146,4082.88
958.415,4080.16
958.685,4092.0
958.955,4092.32
959.224,4083.6
959.494,4076.72
959.764,4065.32
960.033,4062.86
960.303,4063.42
960.572,4060.64
960.842,4055.38
961.112,4048.14
961.381,4050.46
961.651,4046.72
961.92,4043.82
962.19,4040.42
962.459,4036.42
962.729,4038.92
962.998,4044.24
963.268,4045.08
963.537,4036.78
963.807,4030.92
964.076,4025.92
964.346,4021.52
964.615,4014.58
964.885,4017.9
965.154,4017.94
965.424,4022.48
965.693,4022.72
965.962,4019.34
966.232,4009.54
966.501,4000.16
966.771,4005.4
967.04,4006.16
967.309,4001.62
967.579,4002.16
967.848,3997.34
968.117,3996.28
968.387,3997.64
968.656,3989.78
968.925,3982.72
969.194,3981.24
969.464,3977.94
969.733,3972.32
970.002,3977.06
970.271,3977.4
970.541,3971.62
970.81,3971.66
971.079,3976.18
971.348,3972.16
971.617,3968.4
971.887,3971.64
972.156,3972.22
972.425,3971.94
972.694,3963.7
972.963,3957.54
973.232,3961.46
973.501,3963.64
973.77,3955.48
974.04,3947.62
974.309,3946.74
974.578,3943.5
974.847,3942.54
975.116,3939.38
975.385,3933.96
975.654,3930.74
975.923,3933.5
976.192,3936.7
976.461,3934.04
976.73,3932.78
976.999,3928.9
977.268,3931.7
977.537,3930.2
977.806,3924.84
978.074,3924.14
978.343,3917.12
978.612,3916.78
978.881,3918.68
979.15,3914.22
979.419,3913.62
979.688,3916.28
979.957,3920.38
980.225,3918.98
980.494,3914.66
980.763,3910.9
981.032,3912.96
981.301,3905.76
981.569,3907.74
981.838,3906.32
982.107,3899.76
982.376,3897.1
982.644,3893.32
982.913,3896.36
983.182,3901.9
983.451,3902.86
983.719,3900.14
983.988,3894.5
984.257,3886.62
984.525,3881.68
984.794,3883.96
985.063,3887.12
985.331,3884.78
985.6,3880.22
985.868,3881.3
986.137,3881.48
986.406,3880.44
986.674,3879.14
986.943,3875.1
987.211,3878.6
987.48,3874.16
987.748,3874.9
988.017,3872.74
988.285,3876.84
988.554,3874.6
988.822,3874.58
989.091,3873.8
989.359,3866.36
989.628,3864.34
989.896,3864.48
990.164,3865.06
990.433,3860.0
990.701,3857.26
990.97,3858.36
991.238,3856.14
991.506,3854.78
991.775,3852.88
992.043,3854.7
992.311,3854.96
992.58,3847.68
992.848,3848.08
993.116,3848.68
993.385,3850.2
993.653,3846.48
993.921,3844.02
994.19,3845.56
994.458,3842.92
994.726,3838.9
994.994,3839.3
995.262,3839.54
995.531,3837.4
995.799,3840.18
996.067,3839.44
996.335,3836.24
996.603,3833.94
996.872,3832.66
997.14,3832.48
997.408,3830.34
997.676,3830.24
997.944,3828.04
998.212,3827.14
998.48,3829.52
998.748,3829.72
999.016,3830.7
999.284,3826.24
999.552,3825.02
999.82,3825.92
1000.09,3824.16
1000.36,3819.5
1000.62,3817.62
1000.89,3819.28
1001.16,3820.08
1001.43,3819.52
1001.7,3817.68
1001.96,3816.26
1002.23,3814.76
1002.5,3812.6
1002.77,3812.88
1003.04,3812.14
1003.3,3812.74
1003.57,3815.4
1003.84,3813.56
1004.11,3810.76
1004.38,3808.74
1004.64,3811.9
1004.91,3808.9
1005.18,3807.06
1005.45,3806.7
1005.71,3807.2
1005.98,3804.9
1006.25,3802.92
1006.52,3799.88
1006.79,3802.64
1007.05,3801.28
1007.32,3802.56
1007.59,3798.3
1007.86,3797.18
1008.12,3797.88
1008.39,3797.2
1008.66,3798.12
1008.93,3797.38
1009.19,3796.2
1009.46,3795.04
1009.73,3792.82
1010.0,3793.76
1010.26,3794.0
1010.53,3793.84
1010.8,3792.92
1011.07,3791.9
1011.33,3790.92
1011.6,3789.06
1011.87,3788.44
1012.14,3787.2
1012.4,3785.66
1012.67,3786.08
1012.94,3787.24
1013.21,3785.52
1013.47,3787.98
1013.74,3787.2
1014.01,3787.22
1014.28,3785.14
1014.54,3782.72
1014.81,3782.64
1015.08,3782.04
1015.35,3782.22
1015.61,3782.98
1015.88,3783.48
1016.15,3782.88
1016.42,3783.4
1016.68,3783.1
1016.95,3782.54
1017.22,3782.24
1017.48,3779.96
1017.75,3779.54
1018.02,3779.46
1018.29,3778.62
1018.55,3777.26
1018.82,3779.18
1019.09,3777.3
1019.36,3777.86
1019.62,3777.68
1019.89,3775.04
1020.16,3775.78
1020.42,3776.64
1020.69,3777.36
1020.96,3778.62
1021.23,3779.42
1021.49,3781.46
1021.76,3782.24
1022.03,3784.92
1022.29,3784.66
1022.56,3785.82
1022.83,3784.48
1023.09,3783.56
1023.36,3784.88
1023.63,3782.94
1023.9,3781.64
1024.16,3780.1
1024.43,3777.42
1024.7,3775.7
1024.96,3772.36
1025.23,3773.5
1025.5,3772.28
1025.76,3770.16
1026.03,3769.84
1026.3,3768.36
1026.56,3769.0
1026.83,3768.06
1027.1,3767.1
1027.37,3765.1
1027.63,3764.68
1027.9,3763.76
1028.17,3763.02
1028.43,3761.38
1028.7,3761.02
1028.97,3759.22
1029.23,3758.6
1029.5,3759.56
1029.77,3757.48
1030.03,3756.42
1030.3,3756.58
1030.57,3756.46
1030.83,3758.04
1031.1,3755.66
1031.37,3755.32
1031.63,3756.0
1031.9,3755.98
1032.17,3756.3
1032.43,3756.18
1032.7,3755.36
1032.97,3756.6
1033.23,3756.96
1033.5,3757.88
1033.77,3757.64
1034.03,3758.7
1034.3,3760.02
1034.57,3760.02
1034.83,3759.86
1035.1,3762.44
1035.36,3762.26
1035.63,3761.52
1035.9,3760.74
1036.16,3760.4
1036.43,3757.4
1036.7,3758.36
1036.96,3754.94
1037.23,3754.6
1037.5,3752.98
1037.76,3751.84
1038.03,3751.02
1038.3,3750.28
1038.56,3748.66
1038.83,3748.2
1039.09,3747.06
1039.36,3747.64
1039.63,3748.78
1039.89,3748.1
1040.16,3746.96
1040.43,3746.02
1040.69,3746.96
1040.96,3747.04
1041.22,3745.4
1041.49,3744.74
1041.76,3745.06
1042.02,3744.58
1042.29,3745.08
1042.55,3744.1
1042.82,3744.32
1043.09,3743.6
1043.35,3743.88
1043.62,3742.88
1043.89,3742.16
1044.15,3742.12
1044.42,3743.38
1044.68,3742.54
1044.95,3741.64
1045.22,3741.68
1045.48,3740.68
1045.75,3741.76
1046.01,3740.28
1046.28,3740.72
1046.55,3741.74
1046.81,3741.3
1047.08,3741.8
1047.34,3741.16
1047.61,3740.74
1047.88,3740.26
1048.14,3740.98
1048.41,3740.58
1048.67,3739.76
1048.94,3740.86
1049.2,3740.36
1049.47,3740.44
1049.74,3739.52
1050.0,3740.86
1050.27,3738.94
1050.53,3739.92
1050.8,3738.94
1051.06,3739.64
1051.33,3739.78
1051.6,3740.22
1051.86,3739.98
1052.13,3739.8
1052.39,3739.02
1052.66,3739.12
1052.92,3738.18
1053.19,3739.04
1053.46,3738.38
1053.72,3737.62
1053.99,3738.58
1054.25,3739.08
1054.52,3738.84
1054.78,3738.9
1055.05,3738.66
1055.32,3738.02
1055.58,3739.32
1055.85,3738.34
1056.11,3738.5
1056.38,3738.86
1056.64,3737.12
1056.91,3738.44
1057.17,3738.0
1057.44,3737.12
1057.7,3737.56
1057.97,3737.5
1058.24,3737.9
1058.5,3738.28
1058.77,3736.76
1059.03,3737.34
1059.3,3738.46
1059.56,3737.68
1059.83,3737.86
1060.09,3737.9
1060.36,3737.64
1060.62,3737.08
1060.89,3737.54
1061.15,3738.52
1061.42,3736.7
1061.68,3736.46
1061.95,3737.22
1062.22,3736.28
1062.48,3736.92
1062.75,3736.8
1063.01,3737.2
1063.28,3736.72
1063.54,3737.84
1063.81,3736.16
1064.07,3735.92
1064.34,3736.72
1064.6,3736.16
1064.87,3735.04
1065.13,3736.62
1065.4,3736.68
1065.66,3736.32
1065.93,3734.88
1066.19,3735.46
1066.46,3735.4
1066.72,3735.26
1066.99,3735.36
1067.25,3734.42
1067.52,3734.98
1067.78,3735.44
1068.05,3733.74