File: spectra/VLFR_06-PET_bio_Raman_3f8f5d99.csv
nm,Intensity
526.508,830.0
526.645,830.5
526.782,830.8
526.919,829.1
527.055,830.2
527.192,827.5
527.329,831.3
527.465,830.3
527.602,830.5
527.739,829.9
527.875,830.1
528.012,829.8
528.149,828.7
528.285,828.8
528.422,828.8
528.558,831.4
528.695,830.2
528.832,829.8
528.968,829.6
529.105,830.1
529.241,829.7
529.378,829.8
529.514,829.3
529.651,830.5
529.787,830.1
529.924,831.1
530.061,829.5
530.197,830.5
530.334,830.3
530.47,830.4
530.606,830.4
530.743,830.1
530.879,829.5
531.016,830.1
531.152,830.5
531.289,828.8
531.425,832.0
531.562,828.5
531.698,828.9
531.834,830.5
531.971,834.6
532.107,857.8
532.244,873.5
532.38,838.8
532.516,830.0
532.653,830.6
532.789,830.1
532.925,831.3
533.062,828.9
533.198,829.5
533.334,829.1
533.471,829.0
533.607,830.9
533.743,846.1
533.879,915.5
534.016,1045.3
534.152,1105.7
534.288,1096.4
534.424,1069.8
534.561,1060.7
534.697,1044.2
534.833,1028.6
534.969,1006.1
535.106,992.8
535.242,983.6
535.378,974.0
535.514,962.8
535.65,954.8
535.786,951.3
535.923,947.3
536.059,939.9
536.195,933.2
536.331,932.1
536.467,923.9
536.603,923.7
536.739,920.9
536.876,919.4
537.012,920.0
537.148,918.0
537.284,916.7
537.42,919.2
537.556,917.9
537.692,916.0
537.828,920.6
537.964,919.2
538.1,916.2
538.236,925.7
538.372,919.5
538.508,917.6
538.644,921.5
538.78,918.8
538.916,918.6
539.052,917.1
539.188,916.9
539.324,920.1
539.46,923.8
539.596,922.4
539.732,926.9
539.868,921.0
540.004,926.6
540.14,927.6
540.275,925.8
540.411,922.2
540.547,919.5
540.683,920.7
540.819,916.2
540.955,917.9
541.091,918.1
541.227,918.3
541.362,914.1
541.498,917.8
541.634,917.7
541.77,915.7
541.906,916.1
542.041,913.6
542.177,920.4
542.313,916.0
542.449,916.5
542.585,916.7
542.72,921.1
542.856,919.9
542.992,916.0
543.128,923.5
543.263,920.5
543.399,922.6
543.535,917.4
543.67,922.4
543.806,919.7
543.942,918.6
544.078,920.2
544.213,920.8
544.349,920.6
544.485,922.7
544.62,919.8
544.756,919.7
544.892,924.1
545.027,920.0
545.163,921.5
545.298,924.8
545.434,926.3
545.57,922.5
545.705,923.7
545.841,926.8
545.976,926.7
546.112,924.2
546.248,927.4
546.383,926.7
546.519,927.6
546.654,924.3
546.79,925.7
546.925,928.5
547.061,926.3
547.196,928.7
547.332,928.4
547.467,928.9
547.603,928.1
547.738,929.3
547.874,927.9
548.009,929.9
548.145,924.7
548.28,926.8
548.416,928.4
548.551,932.1
548.686,928.6
548.822,929.8
548.957,931.9
549.093,928.8
549.228,928.9
549.363,935.0
549.499,929.7
549.634,931.1
549.77,929.6
549.905,932.9
550.04,928.1
550.176,935.1
550.311,932.8
550.446,935.8
550.582,946.6
550.717,957.6
550.852,952.5
550.988,941.1
551.123,934.8
551.258,931.7
551.394,935.9
551.529,936.8
551.664,935.8
551.799,938.2
551.935,937.5
552.07,939.3
552.205,938.2
552.34,936.3
552.476,938.4
552.611,944.6
552.746,945.3
552.881,948.6
553.016,945.9
553.152,943.5
553.287,942.0
553.422,940.8
553.557,941.3
553.692,940.1
553.827,941.6
553.963,938.5
554.098,943.2
554.233,935.9
554.368,943.3
554.503,942.1
554.638,942.5
554.773,943.8
554.908,947.1
555.043,940.7
555.179,944.0
555.314,942.8
555.449,950.0
555.584,949.4
555.719,952.1
555.854,953.5
555.989,951.1
556.124,952.9
556.259,953.5
556.394,954.8
556.529,958.1
556.664,957.7
556.799,956.9
556.934,958.5
557.069,963.4
557.204,964.9
557.339,977.6
557.474,980.3
557.609,987.7
557.744,980.3
557.879,973.8
558.014,963.6
558.149,960.7
558.284,962.2
558.419,961.1
558.553,959.7
558.688,962.3
558.823,961.6
558.958,956.2
559.093,951.9
559.228,954.7
559.363,955.8
559.498,956.0
559.632,960.3
559.767,953.3
559.902,955.9
560.037,956.2
560.172,956.2
560.307,954.9
560.441,954.9
560.576,954.7
560.711,954.8
560.846,955.9
560.981,956.9
561.115,953.0
561.25,961.4
561.385,957.4
561.52,962.0
561.654,953.4
561.789,956.3
561.924,958.7
562.059,964.8
562.193,961.5
562.328,966.1
562.463,959.7
562.598,960.2
562.732,965.1
562.867,968.5
563.002,968.0
563.136,968.5
563.271,968.0
563.406,969.5
563.54,969.8
563.675,968.9
563.81,968.5
563.944,967.4
564.079,966.8
564.213,967.8
564.348,964.8
564.483,971.0
564.617,971.8
564.752,971.9
564.887,975.9
565.021,980.5
565.156,989.3
565.29,982.6
565.425,987.3
565.559,995.3
565.694,994.1
565.828,996.3
565.963,991.7
566.098,993.2
566.232,984.4
566.367,979.5
566.501,983.0
566.636,977.4
566.77,978.7
566.905,972.0
567.039,971.4
567.174,976.5
567.308,974.7
567.443,980.0
567.577,986.9
567.711,989.9
567.846,989.4
567.98,988.4
568.115,982.0
568.249,983.3
568.384,983.7
568.518,975.2
568.652,981.7
568.787,978.4
568.921,981.1
569.056,982.3
569.19,986.2
569.324,984.6
569.459,981.8
569.593,988.2
569.727,987.4
569.862,988.8
569.996,990.9
570.131,991.3
570.265,991.1
570.399,1000.8
570.534,1007.7
570.668,1013.9
570.802,1017.2
570.936,1021.8
571.071,1026.5
571.205,1035.8
571.339,1039.1
571.474,1037.4
571.608,1031.1
571.742,1018.4
571.876,1016.4
572.011,1010.1
572.145,1008.6
572.279,999.6
572.413,1002.0
572.548,994.6
572.682,1001.5
572.816,993.9
572.95,993.5
573.084,1000.7
573.219,996.2
573.353,995.1
573.487,995.6
573.621,1001.2
573.755,999.7
573.889,999.6
574.024,1000.9
574.158,1000.6
574.292,1006.3
574.426,1001.0
574.56,997.0
574.694,1001.6
574.828,1002.7
574.963,998.5
575.097,1005.7
575.231,1008.9
575.365,1007.9
575.499,1015.7
575.633,1002.3
575.767,998.0
575.901,1009.1
576.035,1003.2
576.169,1005.9
576.303,1015.4
576.437,1013.9
576.571,1007.8
576.706,1009.3
576.84,1013.7
576.974,1008.9
577.108,1009.3
577.242,1007.2
577.376,1008.4
577.51,1007.5
577.644,1010.1
577.778,1007.5
577.912,1009.3
578.046,1005.8
578.179,1008.6
578.313,1005.7
578.447,1006.7
578.581,1008.7
578.715,1012.2
578.849,1012.2
578.983,1003.5
579.117,1010.6
579.251,1010.2
579.385,1010.0
579.519,1007.8
579.653,1009.9
579.787,1009.5
579.921,1014.7
580.054,1016.9
580.188,1013.2
580.322,1017.2
580.456,1020.5
580.59,1017.6
580.724,1016.9
580.858,1022.5
580.991,1025.4
581.125,1023.9
581.259,1022.8
581.393,1028.5
581.527,1026.4
581.661,1043.2
581.794,1060.5
581.928,1097.7
582.062,1167.7
582.196,1228.4
582.33,1188.3
582.463,1083.4
582.597,1043.9
582.731,1030.2
582.865,1029.1
582.998,1026.4
583.132,1022.4
583.266,1022.3
583.4,1019.7
583.533,1026.2
583.667,1022.1
583.801,1022.7
583.935,1021.3
584.068,1021.0
584.202,1023.8
584.336,1026.0
584.469,1022.6
584.603,1020.2
584.737,1030.8
584.87,1029.8
585.004,1029.3
585.138,1027.4
585.271,1034.3
585.405,1043.2
585.539,1057.0
585.672,1090.4
585.806,1115.3
585.94,1134.8
586.073,1135.4
586.207,1131.1
586.34,1110.2
586.474,1092.0
586.608,1069.9
586.741,1064.0
586.875,1048.3
587.008,1043.7
587.142,1035.4
587.276,1032.0
587.409,1034.0
587.543,1035.1
587.676,1032.4
587.81,1031.7
587.943,1034.1
588.077,1028.9
588.21,1029.0
588.344,1028.1
588.478,1034.7
588.611,1031.0
588.745,1029.3
588.878,1028.5
589.012,1026.6
589.145,1030.6
589.279,1029.8
589.412,1030.2
589.546,1032.0
589.679,1036.3
589.812,1026.5
589.946,1034.1
590.079,1033.1
590.213,1029.2
590.346,1031.8
590.48,1036.1
590.613,1029.5
590.747,1038.4
590.88,1033.0
591.013,1031.3
591.147,1036.1
591.28,1035.0
591.414,1031.7
591.547,1035.1
591.68,1035.9
591.814,1036.6
591.947,1032.8
592.081,1031.8
592.214,1033.6
592.347,1031.7
592.481,1034.7
592.614,1029.0
592.747,1034.0
592.881,1033.4
593.014,1028.5
593.147,1034.6
593.281,1032.7
593.414,1042.0
593.547,1032.0
593.681,1039.0
593.814,1032.6
593.947,1031.9
594.081,1034.2
594.214,1032.1
594.347,1042.4
594.48,1037.6
594.614,1040.1
594.747,1033.6
594.88,1038.6
595.014,1040.5
595.147,1038.0
595.28,1040.6
595.413,1040.2
595.547,1040.7
595.68,1039.7
595.813,1041.2
595.946,1039.2
596.079,1041.5
596.213,1038.9
596.346,1036.1
596.479,1037.5
596.612,1042.8
596.745,1041.8
596.879,1037.3
597.012,1043.3
597.145,1042.7
597.278,1046.0
597.411,1038.6
597.545,1039.4
597.678,1042.9
597.811,1040.2
597.944,1047.0
598.077,1045.1
598.21,1042.9
598.343,1047.3
598.476,1051.7
598.61,1042.3
598.743,1046.2
598.876,1045.7
599.009,1047.8
599.142,1040.8
599.275,1044.3
599.408,1044.6
599.541,1044.1
599.674,1046.1
599.807,1044.5
599.941,1046.7
600.074,1048.9
600.207,1045.8
600.34,1044.9
600.473,1050.0
600.606,1045.1
600.739,1045.5
600.872,1044.9
601.005,1039.9
601.138,1040.3
601.271,1045.3
601.404,1042.7
601.537,1049.9
601.67,1040.3
601.803,1044.6
601.936,1043.1
602.069,1043.0
602.202,1042.1
602.335,1042.9
602.468,1052.9
602.601,1042.4
602.734,1046.8
602.867,1045.2
603.0,1044.5
603.133,1045.6
603.266,1046.4
603.399,1045.1
603.532,1045.4
603.664,1050.3
603.797,1050.8
603.93,1047.7
604.063,1045.8
604.196,1043.0
604.329,1044.8
604.462,1049.3
604.595,1045.0
604.728,1043.4
604.861,1038.5
604.994,1044.2
605.126,1049.0
605.259,1040.7
605.392,1043.3
605.525,1041.6
605.658,1032.8
605.791,1042.1
605.924,1043.8
606.056,1036.7
606.189,1044.5
606.322,1038.0
606.455,1045.3
606.588,1044.0
606.721,1043.0
606.853,1041.6
606.986,1047.1
607.119,1044.4
607.252,1047.1
607.385,1045.9
607.517,1042.5
607.65,1042.9
607.783,1040.3
607.916,1047.5
608.049,1048.7
608.181,1047.6
608.314,1051.0
608.447,1046.0
608.58,1043.3
608.712,1046.4
608.845,1040.6
608.978,1045.1
609.111,1041.5
609.243,1043.3
609.376,1049.4
609.509,1045.5
609.641,1045.4
609.774,1045.1
609.907,1042.4
610.04,1046.8
610.172,1049.9
610.305,1046.0
610.438,1043.3
610.57,1046.0
610.703,1043.0
610.836,1042.9
610.968,1043.4
611.101,1047.3
611.234,1045.0
611.366,1043.0
611.499,1042.7
611.632,1052.4
611.764,1048.8
611.897,1048.2
612.03,1048.4
612.162,1052.8
612.295,1049.8
612.428,1052.7
612.56,1052.1
612.693,1053.5
612.825,1054.6
612.958,1056.0
613.091,1055.1
613.223,1059.0
613.356,1057.2
613.488,1049.3
613.621,1057.1
613.754,1055.5
613.886,1058.4
614.019,1057.9
614.151,1054.5
614.284,1060.0
614.416,1055.9
614.549,1058.2
614.681,1052.5
614.814,1055.7
614.947,1049.7
615.079,1056.3
615.212,1047.7
615.344,1053.7
615.477,1055.9
615.609,1059.3
615.742,1053.4
615.874,1063.7
616.007,1059.8
616.139,1055.6
616.272,1053.3
616.404,1053.1
616.537,1054.8
616.669,1056.2
616.802,1061.1
616.934,1058.7
617.067,1057.4
617.199,1055.8
617.332,1058.1
617.464,1063.2
617.596,1056.4
617.729,1058.7
617.861,1058.4
617.994,1062.2
618.126,1063.6
618.259,1064.8
618.391,1061.3
618.524,1066.4
618.656,1067.4
618.788,1066.9
618.921,1057.1
619.053,1063.3
619.186,1059.3
619.318,1059.9
619.45,1062.8
619.583,1062.0
619.715,1058.1
619.848,1063.6
619.98,1063.5
620.112,1058.0
620.245,1055.7
620.377,1062.3
620.509,1060.8
620.642,1056.8
620.774,1057.4
620.907,1062.3
621.039,1063.1
621.171,1066.3
621.304,1058.8
621.436,1055.9
621.568,1056.9
621.701,1065.8
621.833,1059.2
621.965,1060.2
622.097,1054.8
622.23,1066.2
622.362,1058.9
622.494,1065.1
622.627,1067.9
622.759,1062.9
622.891,1067.3
623.024,1069.5
623.156,1068.3
623.288,1072.2
623.42,1063.8
623.553,1066.3
623.685,1066.8
623.817,1064.0
623.949,1066.4
624.082,1066.8
624.214,1069.3
624.346,1069.2
624.479,1066.5
624.611,1071.6
624.743,1071.0
624.875,1072.5
625.007,1072.5
625.14,1071.8
625.272,1067.5
625.404,1066.1
625.536,1074.0
625.669,1068.1
625.801,1074.6
625.933,1070.2
626.065,1073.4
626.197,1067.0
626.33,1069.0
626.462,1073.1
626.594,1064.8
626.726,1076.3
626.858,1075.4
626.99,1070.7
627.123,1074.4
627.255,1070.5
627.387,1073.7
627.519,1067.5
627.651,1070.6
627.783,1073.6
627.916,1081.1
628.048,1075.9
628.18,1070.1
628.312,1072.7
628.444,1079.6
628.576,1082.9
628.708,1078.5
628.84,1081.4
628.973,1085.1
629.105,1082.8
629.237,1080.9
629.369,1083.5
629.501,1083.3
629.633,1085.2
629.765,1086.6
629.897,1079.7
630.029,1088.4
630.161,1082.4
630.294,1091.6
630.426,1083.6
630.558,1085.3
630.69,1087.6
630.822,1088.0
630.954,1089.1
631.086,1102.1
631.218,1107.0
631.35,1110.6
631.482,1115.9
631.614,1123.2
631.746,1123.8
631.878,1118.8
632.01,1123.3
632.142,1118.8
632.274,1116.0
632.406,1110.2
632.538,1106.0
632.67,1102.9
632.802,1107.2
632.934,1103.4
633.066,1101.4
633.198,1101.2
633.33,1100.6
633.462,1104.1
633.594,1098.3
633.726,1095.9
633.858,1096.4
633.99,1098.9
634.122,1096.5
634.254,1095.3
634.386,1088.8
634.518,1095.4
634.65,1089.5
634.782,1091.3
634.914,1093.8
635.046,1097.0
635.178,1091.7
635.31,1090.2
635.442,1097.1
635.574,1102.9
635.706,1098.0
635.838,1106.6
635.97,1111.7
636.102,1120.3
636.234,1127.0
636.365,1128.6
636.497,1145.7
636.629,1144.7
636.761,1141.5
636.893,1132.9
637.025,1120.9
637.157,1114.8
637.289,1105.9
637.421,1104.7
637.553,1105.0
637.685,1103.5
637.816,1104.3
637.948,1100.0
638.08,1106.8
638.212,1102.8
638.344,1101.6
638.476,1095.4
638.608,1098.6
638.74,1108.0
638.871,1101.6
639.003,1102.1
639.135,1104.0
639.267,1106.8
639.399,1099.4
639.531,1104.8
639.662,1103.0
639.794,1109.8
639.926,1109.6
640.058,1108.3
640.19,1105.9
640.322,1103.5
640.453,1114.1
640.585,1107.7
640.717,1107.9
640.849,1103.1
640.981,1104.1
641.113,1106.1
641.244,1104.2
641.376,1110.3
641.508,1103.2
641.64,1106.3
641.772,1110.0
641.903,1109.6
642.035,1108.3
642.167,1109.8
642.299,1115.1
642.43,1105.1
642.562,1110.1
642.694,1111.3
642.826,1106.9
642.958,1109.1
643.089,1103.5
643.221,1109.2
643.353,1113.1
643.485,1106.8
643.616,1108.3
643.748,1102.6
643.88,1104.9
644.012,1107.3
644.143,1102.1
644.275,1100.8
644.407,1104.8
644.538,1107.4
644.67,1096.4
644.802,1106.3
644.934,1102.0
645.065,1103.7
645.197,1107.1
645.329,1106.3
645.461,1105.7
645.592,1102.0
645.724,1110.1
645.856,1111.3
645.987,1111.9
646.119,1109.0
646.251,1113.7
646.382,1108.7
646.514,1107.1
646.646,1105.7
646.777,1115.2
646.909,1114.0
647.041,1109.1
647.172,1111.0
647.304,1115.5
647.436,1110.3
647.567,1112.3
647.699,1109.3
647.831,1114.0
647.962,1107.7
648.094,1108.7
648.226,1114.0
648.357,1112.4
648.489,1110.0
648.621,1113.0
648.752,1110.1
648.884,1111.7
649.016,1106.2
649.147,1107.6
649.279,1112.5
649.411,1105.2
649.542,1112.7
649.674,1108.3
649.805,1106.2
649.937,1107.9
650.069,1110.4
650.2,1111.4
650.332,1106.9
650.463,1102.5
650.595,1102.7
650.727,1107.9
650.858,1105.2
650.99,1113.1
651.121,1102.7
651.253,1109.9
651.385,1104.0
651.516,1107.5
651.648,1110.3
651.779,1117.7
651.911,1113.7
652.043,1111.2
652.174,1108.3
652.306,1109.7
652.437,1114.1
652.569,1107.4
652.7,1116.8
652.832,1118.5
652.963,1109.3
653.095,1109.5
653.227,1110.8
653.358,1112.9
653.49,1109.8
653.621,1113.2
653.753,1116.1
653.884,1111.8
654.016,1114.0
654.147,1111.3
654.279,1110.2
654.41,1113.5
654.542,1108.8
654.674,1116.4
654.805,1112.4
654.937,1108.7
655.068,1110.2
655.2,1111.3
655.331,1112.3
655.463,1119.8
655.594,1114.5
655.726,1112.5
655.857,1119.7
655.989,1110.7
656.12,1114.3
656.252,1113.4
656.383,1110.6
656.515,1113.8
656.646,1112.1
656.778,1114.1
656.909,1120.5
657.041,1112.7
657.172,1115.8
657.304,1110.3
657.435,1116.1
657.567,1117.1
657.698,1115.1
657.829,1114.4
657.961,1118.7
658.092,1120.2
658.224,1110.8
658.355,1118.1
658.487,1118.5
658.618,1123.6
658.75,1108.3
658.881,1120.3
659.013,1113.6
659.144,1120.2
659.275,1117.0
659.407,1116.5
659.538,1113.4
659.67,1116.3
659.801,1112.9
659.933,1112.1
660.064,1118.1
660.196,1112.4
660.327,1112.4
660.458,1122.8
660.59,1113.9
660.721,1115.6
660.853,1118.1
660.984,1118.0
661.116,1108.0
661.247,1116.2
661.378,1115.5
661.51,1118.4
661.641,1117.7
661.773,1112.2
661.904,1119.9
662.035,1108.3
662.167,1110.4
662.298,1115.1
662.43,1108.0
662.561,1111.0
662.692,1109.2
662.824,1109.5
662.955,1107.5
663.087,1102.4