File: spectra/VLFR_08-PLA_bio_Raman_0876c9ac.csv
nm,Intensity
528.626,1864.6
528.795,1863.0
528.963,1864.4
529.132,1861.5
529.3,1862.2
529.469,1863.4
529.637,1862.6
529.806,1861.1
529.974,1862.7
530.143,1862.3
530.311,1862.7
530.48,1864.8
530.648,1862.5
530.816,1863.7
530.985,1864.1
531.153,1864.2
531.322,1866.6
531.49,1872.0
531.658,1905.6
531.827,2376.0
531.995,4604.8
532.164,4558.2
532.332,2188.4
532.5,1868.2
532.669,1866.4
532.837,1864.9
533.006,1864.1
533.174,1865.1
533.342,1863.3
533.511,1871.7
533.679,1923.8
533.847,2025.1
534.016,2089.5
534.184,2130.1
534.352,2125.4
534.521,2147.3
534.689,2144.5
534.857,2150.6
535.025,2147.5
535.194,2153.1
535.362,2170.5
535.53,2181.2
535.699,2177.9
535.867,2169.6
536.035,2161.3
536.203,2154.8
536.372,2166.2
536.54,2168.9
536.708,2159.2
536.876,2157.5
537.044,2152.5
537.213,2180.3
537.381,2177.6
537.549,2198.9
537.717,2187.3
537.885,2204.6
538.054,2194.0
538.222,2189.0
538.39,2187.1
538.558,2188.3
538.726,2198.1
538.894,2184.0
539.063,2193.8
539.231,2194.0
539.399,2195.5
539.567,2191.4
539.735,2210.7
539.903,2211.8
540.071,2217.5
540.239,2215.4
540.408,2208.7
540.576,2211.4
540.744,2207.1
540.912,2217.1
541.08,2228.1
541.248,2226.6
541.416,2234.5
541.584,2225.6
541.752,2228.8
541.92,2221.9
542.088,2225.3
542.256,2231.7
542.424,2241.0
542.592,2247.2
542.76,2241.8
542.928,2240.1
543.096,2249.4
543.264,2251.5
543.432,2243.6
543.6,2252.4
543.768,2261.1
543.936,2269.7
544.104,2270.3
544.272,2264.4
544.44,2266.1
544.608,2267.9
544.776,2267.3
544.944,2279.5
545.112,2288.3
545.28,2282.2
545.448,2274.0
545.616,2276.5
545.784,2280.4
545.951,2275.8
546.119,2279.3
546.287,2271.0
546.455,2267.9
546.623,2286.1
546.791,2300.0
546.959,2282.0
547.127,2294.2
547.294,2273.2
547.462,2278.4
547.63,2292.7
547.798,2303.4
547.966,2303.3
548.134,2290.1
548.301,2311.0
548.469,2303.1
548.637,2300.0
548.805,2294.1
548.972,2321.6
549.14,2319.9
549.308,2305.6
549.476,2311.2
549.644,2323.9
549.811,2306.4
549.979,2329.9
550.147,2327.9
550.315,2318.7
550.482,2316.9
550.65,2330.0
550.818,2363.2
550.985,2344.1
551.153,2334.3
551.321,2341.6
551.488,2356.6
551.656,2344.2
551.824,2364.3
551.991,2351.4
552.159,2357.3
552.327,2353.1
552.494,2361.4
552.662,2351.8
552.83,2330.1
552.997,2357.7
553.165,2371.6
553.333,2372.3
553.5,2349.6
553.668,2356.8
553.835,2363.5
554.003,2366.6
554.171,2385.6
554.338,2385.0
554.506,2383.3
554.673,2375.3
554.841,2383.0
555.008,2373.3
555.176,2384.9
555.343,2381.8
555.511,2381.4
555.679,2399.8
555.846,2378.8
556.014,2416.8
556.181,2389.1
556.349,2382.2
556.516,2385.0
556.684,2374.3
556.851,2375.9
557.018,2399.6
557.186,2392.4
557.353,2397.5
557.521,2405.6
557.688,2420.1
557.856,2418.6
558.023,2433.9
558.191,2443.6
558.358,2407.5
558.525,2415.7
558.693,2400.2
558.86,2416.6
559.028,2426.6
559.195,2405.1
559.362,2412.6
559.53,2404.9
559.697,2419.7
559.864,2437.1
560.032,2432.5
560.199,2397.6
560.366,2415.7
560.534,2427.5
560.701,2451.4
560.868,2436.6
561.036,2435.2
561.203,2437.1
561.37,2422.6
561.538,2447.3
561.705,2440.4
561.872,2472.6
562.039,2526.7
562.207,2560.4
562.374,2514.9
562.541,2459.2
562.708,2471.6
562.876,2449.1
563.043,2472.3
563.21,2463.7
563.377,2471.5
563.545,2449.8
563.712,2461.4
563.879,2437.4
564.046,2438.0
564.213,2467.2
564.38,2471.3
564.548,2469.6
564.715,2450.6
564.882,2483.4
565.049,2481.1
565.216,2493.7
565.383,2492.1
565.551,2476.4
565.718,2499.6
565.885,2475.7
566.052,2505.4
566.219,2479.1
566.386,2491.8
566.553,2482.0
566.72,2477.4
566.887,2487.8
567.054,2501.2
567.221,2493.8
567.388,2501.6
567.555,2467.9
567.722,2485.0
567.889,2504.6
568.057,2499.6
568.224,2494.8
568.391,2473.0
568.558,2511.8
568.725,2503.4
568.892,2507.9
569.058,2531.8
569.225,2520.8
569.392,2509.6
569.559,2523.2
569.726,2518.1
569.893,2504.3
570.06,2525.0
570.227,2521.4
570.394,2510.6
570.561,2507.9
570.728,2493.6
570.895,2515.0
571.062,2538.2
571.229,2531.8
571.395,2524.8
571.562,2530.3
571.729,2530.9
571.896,2557.5
572.063,2551.7
572.23,2561.0
572.397,2557.1
572.563,2544.8
572.73,2542.5
572.897,2559.3
573.064,2551.1
573.231,2548.9
573.397,2547.2
573.564,2562.5
573.731,2526.8
573.898,2546.3
574.064,2570.1
574.231,2548.4
574.398,2533.9
574.565,2537.6
574.731,2543.4
574.898,2574.2
575.065,2569.0
575.232,2541.7
575.398,2562.7
575.565,2535.8
575.732,2562.6
575.898,2575.7
576.065,2563.9
576.232,2578.5
576.398,2567.1
576.565,2582.5
576.732,2607.8
576.898,2572.4
577.065,2589.4
577.232,2579.9
577.398,2570.8
577.565,2574.2
577.731,2583.0
577.898,2581.6
578.065,2563.6
578.231,2549.3
578.398,2568.7
578.564,2561.0
578.731,2592.3
578.897,2581.6
579.064,2584.1
579.23,2576.2
579.397,2566.1
579.563,2562.1
579.73,2604.4
579.896,2594.0
580.063,2586.2
580.229,2594.3
580.396,2602.0
580.562,2589.6
580.729,2580.3
580.895,2589.1
581.062,2608.8
581.228,2575.4
581.395,2588.3
581.561,2604.9
581.728,2586.9
581.894,2600.2
582.06,2585.4
582.227,2598.5
582.393,2591.3
582.56,2589.7
582.726,2581.2
582.892,2610.3
583.059,2601.8
583.225,2596.7
583.391,2605.1
583.558,2610.8
583.724,2594.5
583.89,2603.6
584.057,2641.3
584.223,2604.4
584.389,2607.7
584.556,2633.0
584.722,2626.3
584.888,2581.7
585.054,2590.0
585.221,2592.1
585.387,2590.7
585.553,2586.8
585.719,2581.9
585.886,2584.4
586.052,2608.1
586.218,2598.6
586.384,2603.9
586.55,2616.4
586.717,2618.2
586.883,2603.5
587.049,2602.7
587.215,2631.1
587.381,2616.8
587.548,2632.0
587.714,2631.5
587.88,2631.8
588.046,2607.4
588.212,2607.9
588.378,2589.0
588.544,2600.9
588.71,2607.1
588.876,2573.5
589.043,2586.5
589.209,2585.4
589.375,2573.9
589.541,2578.1
589.707,2589.8
589.873,2596.2
590.039,2595.8
590.205,2573.6
590.371,2597.9
590.537,2612.7
590.703,2595.8
590.869,2595.6
591.035,2617.8
591.201,2616.1
591.367,2601.9
591.533,2599.2
591.699,2601.8
591.865,2589.8
592.031,2617.4
592.197,2631.5
592.363,2607.3
592.529,2608.9
592.694,2619.3
592.86,2627.3
593.026,2607.2
593.192,2605.8
593.358,2605.9
593.524,2630.1
593.69,2612.2
593.856,2605.9
594.021,2599.2
594.187,2596.1
594.353,2618.1
594.519,2613.6
594.685,2624.6
594.851,2611.1
595.016,2602.7
595.182,2606.7
595.348,2611.2
595.514,2640.9
595.68,2625.5
595.845,2626.7
596.011,2630.0
596.177,2605.6
596.342,2623.8
596.508,2623.0
596.674,2607.2
596.84,2641.7
597.005,2633.8
597.171,2617.5
597.337,2611.8
597.502,2626.5
597.668,2644.4
597.834,2595.8
597.999,2635.5
598.165,2604.0
598.331,2616.9
598.496,2608.4
598.662,2627.2
598.828,2621.9
598.993,2629.3
599.159,2636.3
599.324,2621.1
599.49,2626.9
599.656,2603.5
599.821,2632.4
599.987,2638.9
600.152,2640.0
600.318,2614.2
600.483,2625.6
600.649,2635.7
600.814,2664.1
600.98,2635.8
601.145,2624.4
601.311,2627.0
601.476,2622.1
601.642,2625.4
601.807,2624.5
601.973,2622.5
602.138,2629.8
602.304,2622.7
602.469,2637.2
602.635,2630.8
602.8,2636.6
602.965,2639.6
603.131,2620.2
603.296,2661.6
603.462,2644.0
603.627,2644.1
603.792,2638.0
603.958,2629.4
604.123,2626.0
604.288,2624.1
604.454,2644.9
604.619,2646.8
604.784,2640.5
604.95,2630.9
605.115,2648.5
605.28,2630.3
605.446,2633.9
605.611,2652.0
605.776,2628.4
605.941,2633.5
606.107,2631.9
606.272,2635.9
606.437,2634.5
606.602,2652.6
606.767,2622.5
606.933,2650.8
607.098,2658.3
607.263,2664.7
607.428,2654.2
607.593,2629.4
607.759,2626.7
607.924,2654.7
608.089,2615.1
608.254,2639.2
608.419,2656.4
608.584,2641.4
608.749,2664.9
608.915,2654.7
609.08,2616.6
609.245,2628.3
609.41,2636.8
609.575,2640.1
609.74,2653.1
609.905,2658.3
610.07,2644.8
610.235,2629.8
610.4,2651.8
610.565,2664.7
610.73,2636.6
610.895,2644.4
611.06,2629.3
611.225,2655.0
611.39,2649.4
611.555,2650.3
611.72,2633.3
611.885,2652.0
612.05,2650.0
612.215,2627.8
612.38,2661.6
612.545,2646.7
612.71,2633.7
612.875,2644.3
613.04,2661.3
613.204,2655.2
613.369,2644.1
613.534,2638.6
613.699,2647.3
613.864,2616.5
614.029,2647.2
614.194,2633.6
614.358,2647.4
614.523,2625.3
614.688,2653.3
614.853,2630.4
615.018,2628.8
615.182,2632.4
615.347,2642.7
615.512,2627.9
615.677,2625.8
615.841,2648.9
616.006,2644.3
616.171,2622.4
616.336,2646.2
616.5,2656.8
616.665,2630.0
616.83,2650.6
616.994,2607.2
617.159,2640.4
617.324,2628.5
617.489,2658.1
617.653,2643.2
617.818,2626.3
617.982,2641.8
618.147,2636.2
618.312,2637.1
618.476,2635.6
618.641,2638.6
618.805,2635.9
618.97,2641.6
619.135,2628.8
619.299,2623.9
619.464,2653.7
619.628,2622.1
619.793,2643.0
619.957,2644.8
620.122,2636.8
620.286,2642.1
620.451,2644.6
620.615,2648.1
620.78,2654.5
620.944,2621.4
621.109,2632.8
621.273,2623.2
621.438,2629.2
621.602,2607.9
621.767,2628.1
621.931,2620.0
622.095,2630.3
622.26,2616.3
622.424,2635.7
622.589,2645.7
622.753,2639.1
622.917,2619.8
623.082,2620.2
623.246,2619.4
623.41,2613.2
623.575,2647.6
623.739,2630.9
623.903,2611.1
624.068,2628.4
624.232,2607.2
624.396,2627.8
624.561,2621.4
624.725,2621.8
624.889,2622.9
625.053,2599.8
625.218,2629.2
625.382,2632.2
625.546,2584.9
625.71,2614.0
625.875,2607.4
626.039,2606.3
626.203,2620.2
626.367,2606.3
626.531,2599.0
626.695,2620.4
626.86,2603.6
627.024,2591.9
627.188,2624.5
627.352,2602.3
627.516,2583.2
627.68,2576.2
627.844,2594.2
628.008,2588.3
628.172,2600.6
628.337,2626.3
628.501,2612.0
628.665,2611.2
628.829,2603.2
628.993,2612.9
629.157,2606.3
629.321,2604.2
629.485,2620.9
629.649,2602.9
629.813,2598.9
629.977,2600.3
630.141,2587.3
630.305,2591.5
630.469,2600.0
630.633,2629.5
630.797,2660.6
630.96,2655.8
631.124,2688.1
631.288,2612.3
631.452,2633.1
631.616,2624.7
631.78,2587.5
631.944,2596.0
632.108,2578.9
632.272,2595.0
632.435,2602.2
632.599,2610.6
632.763,2602.0
632.927,2588.7
633.091,2636.9
633.254,2609.4
633.418,2572.8
633.582,2616.3
633.746,2598.4
633.91,2595.8
634.073,2584.9
634.237,2567.9
634.401,2574.1
634.564,2566.2
634.728,2539.6
634.892,2594.2
635.056,2578.4
635.219,2535.8
635.383,2560.7
635.547,2546.4
635.71,2557.2
635.874,2529.2
636.038,2547.9
636.201,2543.8
636.365,2528.0
636.528,2548.9
636.692,2563.6
636.856,2545.0
637.019,2548.2
637.183,2542.8
637.346,2515.1
637.51,2572.9
637.673,2537.7
637.837,2531.5
638.0,2536.7
638.164,2531.2
638.327,2572.5
638.491,2529.9
638.654,2528.8
638.818,2528.5
638.981,2517.9
639.145,2528.2
639.308,2522.5
639.472,2519.1
639.635,2512.2
639.799,2513.4
639.962,2496.9
640.125,2484.1
640.289,2518.8
640.452,2520.8
640.616,2510.0
640.779,2506.3
640.942,2525.1
641.106,2502.7
641.269,2504.2
641.432,2517.0
641.596,2517.7
641.759,2474.0
641.922,2510.1
642.085,2467.7
642.249,2478.2
642.412,2517.5
642.575,2515.4
642.738,2507.4
642.902,2509.7
643.065,2510.2
643.228,2489.6
643.391,2489.3
643.555,2480.3
643.718,2510.6
643.881,2503.4
644.044,2505.5
644.207,2526.4
644.37,2480.1
644.534,2488.3
644.697,2478.0
644.86,2482.1
645.023,2480.0
645.186,2505.3
645.349,2472.0
645.512,2467.5
645.675,2469.6
645.838,2502.0
646.001,2448.4
646.164,2475.1
646.327,2486.1
646.49,2468.6
646.653,2486.5
646.816,2495.2
646.979,2468.6
647.142,2475.1
647.305,2487.2
647.468,2478.3
647.631,2474.5
647.794,2476.5
647.957,2464.2
648.12,2477.9
648.283,2450.0
648.446,2456.7
648.609,2472.4
648.772,2458.1
648.935,2448.3
649.098,2456.6
649.26,2443.4
649.423,2427.2
649.586,2429.6
649.749,2447.9
649.912,2442.8
650.075,2456.8
650.237,2456.7
650.4,2439.0
650.563,2429.8
650.726,2461.3
650.888,2443.7
651.051,2434.3
651.214,2443.8
651.377,2428.8
651.539,2411.9
651.702,2397.4
651.865,2422.5
652.027,2416.9
652.19,2426.0
652.353,2399.6
652.515,2400.5
652.678,2405.5
652.841,2396.7
653.003,2407.0
653.166,2396.4
653.329,2367.1
653.491,2370.5
653.654,2370.9
653.816,2383.1
653.979,2360.7
654.142,2383.7
654.304,2361.2
654.467,2356.8
654.629,2354.9
654.792,2378.8
654.954,2354.0
655.117,2352.3
655.279,2351.7
655.442,2340.6
655.604,2338.5
655.767,2355.3
655.929,2323.6
656.091,2309.6
656.254,2319.9
656.416,2298.7
656.579,2328.0
656.741,2329.1
656.904,2331.6
657.066,2321.4
657.228,2324.5
657.391,2301.5
657.553,2304.0
657.715,2317.6
657.878,2320.0
658.04,2316.5
658.202,2295.9
658.365,2317.8
658.527,2309.7
658.689,2323.6
658.851,2286.4
659.014,2294.0
659.176,2279.8
659.338,2275.0
659.5,2274.8
659.663,2286.5
659.825,2274.8
659.987,2280.6
660.149,2267.1
660.311,2269.4
660.474,2296.1
660.636,2279.1
660.798,2262.9
660.96,2259.9
661.041,2260.6