File: spectra/VLFR_07-PET_nobio_Raman_4f191768.csv
nm,Intensity
791.377,12273.6
791.652,11768.2
791.927,11438.7
792.202,11209.7
792.477,11023.3
792.752,10716.6
793.027,10413.0
793.301,10324.3
793.576,10232.6
793.851,9990.78
794.126,10002.6
794.401,9946.6
794.676,9835.18
794.951,9694.32
795.225,9711.96
795.5,9752.94
795.775,9723.82
796.05,9679.44
796.325,9561.56
796.599,9636.38
796.874,9649.42
797.149,9513.08
797.424,9527.26
797.698,9505.06
797.973,9543.26
798.248,9445.02
798.523,9575.24
798.797,9547.18
799.072,9563.98
799.347,9445.6
799.622,9426.9
799.896,9451.06
800.171,9451.96
800.446,9511.3
800.72,9354.8
800.995,9352.44
801.27,9327.86
801.544,9358.58
801.819,9467.92
802.094,9504.64
802.368,9392.76
802.643,9221.64
802.918,9161.28
803.192,9126.34
803.467,9215.76
803.742,9179.5
804.016,9138.78
804.291,9065.52
804.565,8997.26
804.84,8942.26
805.114,8859.12
805.389,8863.02
805.664,8871.38
805.938,8932.64
806.213,8941.44
806.487,8943.72
806.762,8872.64
807.036,8750.88
807.311,8850.78
807.585,8812.04
807.86,8689.14
808.134,8728.42
808.409,8779.48
808.683,8729.98
808.958,8614.88
809.232,8586.9
809.507,8609.86
809.781,8657.28
810.056,8646.64
810.33,8621.36
810.605,8528.32
810.879,8499.92
811.153,8552.5
811.428,8579.22
811.702,8577.16
811.977,8465.24
812.251,8456.04
812.525,8484.76
812.8,8484.96
813.074,8370.8
813.349,8402.78
813.623,8400.76
813.897,8415.88
814.172,8406.06
814.446,8345.3
814.72,8248.42
814.995,8228.1
815.269,8289.82
815.543,8283.66
815.818,8260.6
816.092,8205.5
816.366,8223.84
816.64,8138.82
816.915,8205.26
817.189,8292.18
817.463,8138.02
817.737,8037.7
818.012,8073.46
818.286,8060.1
818.56,8126.42
818.834,8156.02
819.109,8056.96
819.383,8071.42
819.657,7995.82
819.931,8038.8
820.205,8039.2
820.48,8050.28
820.754,7985.66
821.028,8017.9
821.302,7975.06
821.576,7911.34
821.85,7884.52
822.125,7877.56
822.399,7870.76
822.673,7862.38
822.947,7860.38
823.221,7806.3
823.495,7750.6
823.769,7759.14
824.043,7723.78
824.317,7756.74
824.591,7790.06
824.865,7778.9
825.14,7730.46
825.414,7763.02
825.688,7977.14
825.962,8057.36
826.236,8000.82
826.51,7819.24
826.784,7588.16
827.058,7615.02
827.332,7578.28
827.606,7613.64
827.88,7575.58
828.154,7596.02
828.428,7538.2
828.702,7523.56
828.976,7476.16
829.249,7548.68
829.523,7509.6
829.797,7446.72
830.071,7443.02
830.345,7505.18
830.619,7574.08
830.893,7511.54
831.167,7486.96
831.441,7459.98
831.715,7373.96
831.988,7302.36
832.262,7303.84
832.536,7379.12
832.81,7331.32
833.084,7271.76
833.358,7197.78
833.632,7227.02
833.905,7208.5
834.179,7241.28
834.453,7224.42
834.727,7148.32
835.001,7085.3
835.274,7106.88
835.548,7153.4
835.822,7154.84
836.096,7201.5
836.369,7194.24
836.643,7201.1
836.917,7226.4
837.191,7191.48
837.464,7224.9
837.738,7266.44
838.012,7221.46
838.285,7149.24
838.559,7213.92
838.833,7215.46
839.106,7082.14
839.38,7189.36
839.654,7206.94
839.927,7078.64
840.201,7122.32
840.475,7132.98
840.748,7219.48
841.022,7384.08
841.295,7390.14
841.569,7411.62
841.843,7348.28
842.116,7248.22
842.39,7138.36
842.663,7091.94
842.937,7052.38
843.211,7060.72
843.484,7029.24
843.758,7006.8
844.031,6923.0
844.305,6907.46
844.578,6865.32
844.852,6859.54
845.125,6809.54
845.399,6748.94
845.672,6757.04
845.946,6700.8
846.219,6672.5
846.493,6673.8
846.766,6681.2
847.039,6688.98
847.313,6669.48
847.586,6632.14
847.86,6682.02
848.133,6631.8
848.407,6586.98
848.68,6574.4
848.953,6598.68
849.227,6632.6
849.5,6619.92
849.773,6581.24
850.047,6592.98
850.32,6568.36
850.593,6572.54
850.867,6557.12
851.14,6536.38
851.413,6513.62
851.687,6551.6
851.96,6549.02
852.233,6498.04
852.507,6535.98
852.78,6618.18
853.053,6582.82
853.326,6556.18
853.6,6552.3
853.873,6474.26
854.146,6401.4
854.419,6403.3
854.693,6406.18
854.966,6427.38
855.239,6434.66
855.512,6486.54
855.785,6461.02
856.059,6405.92
856.332,6385.66
856.605,6308.62
856.878,6320.64
857.151,6335.96
857.424,6374.82
857.698,6422.38
857.971,6446.82
858.244,6436.72
858.517,6469.24
858.79,6441.88
859.063,6452.16
859.336,6524.54
859.609,6487.16
859.882,6558.28
860.155,6612.26
860.428,6560.66
860.701,6519.36
860.974,6492.82
861.247,6418.5
861.52,6351.58
861.793,6303.22
862.066,6262.06
862.339,6253.78
862.612,6297.84
862.885,6299.2
863.158,6238.98
863.431,6154.68
863.704,6154.64
863.977,6229.08
864.25,6293.02
864.523,6329.34
864.796,6236.7
865.069,6206.38
865.342,6204.86
865.615,6212.18
865.888,6171.58
866.16,6117.18
866.433,6116.96
866.706,6100.74
866.979,6031.76
867.252,6057.62
867.525,6086.08
867.798,6043.82
868.07,6007.92
868.343,6070.08
868.616,6065.16
868.889,6049.54
869.162,6036.78
869.434,6076.52
869.707,6108.98
869.98,6092.24
870.253,6086.42
870.525,6131.46
870.798,6149.0
871.071,6172.88
871.344,6231.56
871.616,6242.82
871.889,6259.74
872.162,6300.04
872.434,6386.84
872.707,6428.9
872.98,6476.26
873.252,6422.74
873.525,6399.3
873.798,6389.98
874.07,6326.36
874.343,6214.28
874.615,6139.22
874.888,6072.8
875.161,6032.96
875.433,5987.78
875.706,6012.22
875.978,6031.34
876.251,5981.9
876.524,5917.76
876.796,5904.18
877.069,5906.0
877.341,5879.26
877.614,5864.1
877.886,5848.62
878.159,5763.94
878.431,5766.48
878.704,5816.98
878.976,5773.84
879.249,5780.34
879.521,5807.98
879.794,5800.26
880.066,5768.84
880.338,5717.12
880.611,5701.62
880.883,5745.36
881.156,5747.26
881.428,5774.98
881.7,5770.36
881.973,5711.76
882.245,5680.3
882.518,5716.3
882.79,5749.88
883.062,5769.48
883.335,5708.0
883.607,5653.92
883.879,5664.76
884.152,5620.18
884.424,5621.48
884.696,5656.08
884.968,5665.38
885.241,5696.24
885.513,5649.78
885.785,5686.88
886.058,5670.32
886.33,5637.1
886.602,5592.56
886.874,5587.68
887.146,5560.4
887.419,5554.38
887.691,5516.7
887.963,5497.0
888.235,5486.62
888.507,5487.22
888.78,5513.3
889.052,5469.26
889.324,5452.88
889.596,5481.06
889.868,5467.78
890.14,5424.86
890.412,5432.5
890.684,5438.0
890.957,5474.76
891.229,5421.98
891.501,5359.78
891.773,5386.38
892.045,5401.8
892.317,5433.5
892.589,5452.0
892.861,5400.74
893.133,5376.4
893.405,5342.72
893.677,5360.98
893.949,5363.74
894.221,5355.38
894.493,5319.0
894.765,5303.26
895.037,5299.42
895.309,5272.02
895.581,5264.26
895.853,5270.66
896.125,5274.58
896.397,5294.26
896.668,5308.4
896.94,5346.78
897.212,5376.42
897.484,5420.92
897.756,5584.36
898.028,5759.62
898.3,5893.62
898.571,5971.86
898.843,6019.08
899.115,5927.8
899.387,5749.04
899.659,5591.72
899.931,5457.14
900.202,5358.54
900.474,5250.88
900.746,5167.88
901.018,5119.44
901.289,5130.76
901.561,5092.36
901.833,5062.18
902.105,5083.04
902.376,5109.54
902.648,5076.98
902.92,5075.0
903.191,5044.9
903.463,5066.82
903.735,5050.1
904.006,5074.26
904.278,5078.5
904.55,5056.62
904.821,5024.86
905.093,5005.68
905.365,4981.48
905.636,5019.92
905.908,5058.26
906.179,5104.9
906.451,5139.66
906.722,5254.98
906.994,5369.2
907.266,5433.72
907.537,5504.28
907.809,5521.08
908.08,5521.58
908.352,5464.02
908.623,5399.7
908.895,5351.6
909.166,5240.26
909.438,5178.76
909.709,5120.42
909.981,5061.18
910.252,5006.9
910.523,4947.78
910.795,4912.22
911.066,4897.44
911.338,4888.36
911.609,4855.1
911.881,4832.68
912.152,4828.48
912.423,4809.32
912.695,4795.0
912.966,4804.2
913.237,4813.88
913.509,4795.18
913.78,4771.74
914.051,4760.68
914.323,4750.92
914.594,4746.06
914.865,4725.76
915.136,4721.32
915.408,4731.14
915.679,4726.26
915.95,4736.52
916.221,4738.72
916.493,4728.4
916.764,4699.78
917.035,4704.26
917.306,4683.16
917.578,4654.72
917.849,4667.1
918.12,4682.8
918.391,4698.08
918.662,4698.22
918.933,4680.32
919.204,4654.78
919.476,4658.32
919.747,4650.54
920.018,4633.98
920.289,4628.66
920.56,4633.16
920.831,4618.16
921.102,4599.22
921.373,4598.84
921.644,4608.54
921.915,4602.9
922.186,4600.38
922.457,4579.74
922.728,4569.52
922.999,4566.74
923.27,4561.74
923.541,4549.94
923.812,4563.68
924.083,4563.56
924.354,4555.6
924.625,4544.0
924.896,4524.76
925.167,4526.0
925.438,4516.44
925.709,4494.44
925.98,4499.82
926.251,4519.96
926.522,4503.08
926.792,4503.48
927.063,4502.64
927.334,4493.76
927.605,4470.32
927.876,4471.86
928.147,4474.78
928.417,4469.02
928.688,4447.82
928.959,4433.02
929.23,4443.72
929.501,4440.38
929.771,4441.92
930.042,4406.14
930.313,4380.1
930.584,4391.3
930.854,4396.92
931.125,4409.2
931.396,4402.44
931.666,4395.0
931.937,4376.98
932.208,4367.84
932.478,4362.6
932.749,4364.08
933.02,4374.92
933.29,4362.64
933.561,4336.7
933.832,4333.6
934.102,4325.42
934.373,4316.5
934.643,4308.32
934.914,4328.6
935.184,4323.1
935.455,4334.64
935.726,4330.1
935.996,4300.54
936.267,4294.84
936.537,4305.88
936.808,4299.84
937.078,4288.22
937.349,4294.12
937.619,4281.88
937.89,4272.82
938.16,4273.8
938.43,4260.36
938.701,4261.44
938.971,4269.52
939.242,4267.78
939.512,4256.82
939.782,4242.62
940.053,4248.78
940.323,4250.68
940.594,4247.34
940.864,4242.52
941.134,4225.08
941.405,4225.4
941.675,4222.68
941.945,4218.96
942.216,4214.72
942.486,4217.26
942.756,4210.42
943.026,4205.26
943.297,4199.06
943.567,4193.84
943.837,4183.78
944.107,4192.02
944.378,4190.64
944.648,4194.86
944.918,4184.8
945.188,4179.54
945.458,4169.48
945.729,4171.5
945.999,4163.72
946.269,4159.92
946.539,4165.08
946.809,4165.38
947.079,4149.94
947.349,4142.64
947.62,4141.5
947.89,4140.64
948.16,4133.74
948.43,4140.56
948.7,4143.98
948.97,4151.4
949.24,4142.92
949.51,4131.42
949.78,4118.9
950.05,4118.52
950.32,4122.28
950.59,4122.22
950.86,4117.92
951.13,4109.06
951.4,4094.2
951.67,4090.2
951.94,4093.84
952.21,4093.02
952.48,4098.84
952.75,4090.96
953.02,4086.78
953.289,4074.12
953.559,4073.82
953.829,4071.4
954.099,4069.92
954.369,4069.44
954.639,4062.94
954.909,4058.46
955.178,4063.56
955.448,4060.2
955.718,4051.74
955.988,4048.86
956.257,4054.5
956.527,4061.86
956.797,4055.24
957.067,4052.24
957.336,4051.38
957.606,4047.28
957.876,4038.2
958.146,4036.54
958.415,4034.1
958.685,4029.02
958.955,4029.18
959.224,4030.0
959.494,4020.46
959.764,4014.24
960.033,4024.0
960.303,4023.28
960.572,4015.72
960.842,4011.12
961.112,4010.06
961.381,3998.6
961.651,3997.94
961.92,3998.78
962.19,4006.34
962.459,4005.64
962.729,4001.68
962.998,3993.72
963.268,3991.54
963.537,3993.14
963.807,3990.1
964.076,3984.92
964.346,3985.26
964.615,3983.36
964.885,3977.16
965.154,3978.7
965.424,3980.56
965.693,3971.86
965.962,3970.54
966.232,3974.08
966.501,3973.3
966.771,3967.08
967.04,3965.14
967.309,3965.28
967.579,3963.06
967.848,3960.04
968.117,3960.3
968.387,3962.88
968.656,3963.26
968.925,3956.94
969.194,3950.54
969.464,3946.42
969.733,3942.4
970.002,3936.42
970.271,3939.36
970.541,3941.26
970.81,3941.5
971.079,3939.5
971.348,3929.92
971.617,3929.56
971.887,3933.1
972.156,3939.8
972.425,3938.04
972.694,3935.28
972.963,3926.4
973.232,3923.46
973.501,3919.28
973.77,3917.42
974.04,3917.08
974.309,3924.4
974.578,3921.52
974.847,3917.62
975.116,3907.76
975.385,3906.1
975.654,3909.7
975.923,3905.82
976.192,3903.54
976.461,3902.48
976.73,3907.96
976.999,3901.7
977.268,3897.44
977.537,3893.8
977.806,3894.24
978.074,3897.24
978.343,3891.9
978.612,3892.64
978.881,3895.0
979.15,3895.62
979.419,3890.56
979.688,3889.12
979.957,3890.62
980.225,3889.52
980.494,3883.88
980.763,3882.4
981.032,3882.14
981.301,3883.08
981.569,3879.4
981.838,3875.36
982.107,3874.7
982.376,3877.54
982.644,3870.76
982.913,3869.16
983.182,3868.44
983.451,3868.92
983.719,3865.86
983.988,3867.86
984.257,3872.16
984.525,3872.04
984.794,3866.48
985.063,3863.84
985.331,3858.28
985.6,3856.66
985.868,3859.02
986.137,3863.6
986.406,3858.46
986.674,3857.12
986.943,3858.06
987.211,3857.14
987.48,3852.88
987.748,3851.98
988.017,3849.78
988.285,3851.14
988.554,3848.28
988.822,3849.38
989.091,3846.88
989.359,3845.76
989.628,3847.04
989.896,3847.08
990.164,3843.74
990.433,3839.7
990.701,3836.26
990.97,3837.8
991.238,3836.44
991.506,3836.32
991.775,3834.88
992.043,3830.58
992.311,3831.46
992.58,3832.06
992.848,3828.64
993.116,3826.68
993.385,3830.14
993.653,3829.0
993.921,3830.2
994.19,3828.64
994.458,3825.6
994.726,3821.36
994.994,3820.08
995.262,3817.98
995.531,3817.66
995.799,3816.86
996.067,3816.44
996.335,3819.2
996.603,3816.16
996.872,3815.1
997.14,3817.42
997.408,3815.18
997.676,3810.94
997.944,3808.8
998.212,3808.92
998.48,3808.68
998.748,3810.72
999.016,3812.8
999.284,3810.54
999.552,3809.06
999.82,3807.5
1000.09,3804.88
1000.36,3804.6
1000.62,3804.88
1000.89,3802.82
1001.16,3800.7
1001.43,3797.38
1001.7,3800.08
1001.96,3798.4
1002.23,3796.28
1002.5,3798.84
1002.77,3799.92
1003.04,3800.16
1003.3,3796.56
1003.57,3794.06
1003.84,3794.66
1004.11,3792.24
1004.38,3790.48
1004.64,3790.14
1004.91,3791.12
1005.18,3792.14
1005.45,3789.78
1005.71,3787.6
1005.98,3788.28
1006.25,3789.12
1006.52,3785.18
1006.79,3786.58
1007.05,3786.38
1007.32,3784.58
1007.59,3784.22
1007.86,3784.86
1008.12,3785.4
1008.39,3782.92
1008.66,3782.7
1008.93,3779.4
1009.19,3779.42
1009.46,3776.8
1009.73,3775.3
1010.0,3776.24
1010.26,3777.12
1010.53,3777.4
1010.8,3776.72
1011.07,3776.78
1011.33,3776.98
1011.6,3775.48
1011.87,3773.66
1012.14,3773.46
1012.4,3771.64
1012.67,3770.84
1012.94,3773.28
1013.21,3772.32
1013.47,3770.22
1013.74,3772.34
1014.01,3770.7
1014.28,3772.0
1014.54,3770.14
1014.81,3769.04
1015.08,3769.24
1015.35,3771.26
1015.61,3771.98
1015.88,3770.5
1016.15,3769.04
1016.42,3768.14
1016.68,3767.56
1016.95,3767.48
1017.22,3767.44
1017.48,3766.12
1017.75,3766.52
1018.02,3764.62
1018.29,3764.1
1018.55,3763.92
1018.82,3763.84
1019.09,3759.88
1019.36,3761.46
1019.62,3761.06
1019.89,3761.92
1020.16,3762.78
1020.42,3763.22
1020.69,3763.2
1020.96,3764.84
1021.23,3766.4
1021.49,3767.46
1021.76,3769.8
1022.03,3769.54
1022.29,3768.88
1022.56,3769.2
1022.83,3768.88
1023.09,3768.92
1023.36,3768.32
1023.63,3767.3
1023.9,3766.1
1024.16,3765.18
1024.43,3763.6
1024.7,3762.86
1024.96,3763.54
1025.23,3761.92
1025.5,3760.26
1025.76,3758.88
1026.03,3757.92
1026.3,3755.86
1026.56,3754.42
1026.83,3752.62
1027.1,3752.84
1027.37,3752.32
1027.63,3750.28
1027.9,3751.74
1028.17,3751.78
1028.43,3751.18
1028.7,3749.08
1028.97,3747.56
1029.23,3747.56
1029.5,3747.1
1029.77,3747.12
1030.03,3746.1
1030.3,3745.58
1030.57,3745.2
1030.83,3744.8
1031.1,3743.06
1031.37,3742.74
1031.63,3743.56
1031.9,3744.1
1032.17,3744.28
1032.43,3742.64
1032.7,3743.58
1032.97,3744.78
1033.23,3744.0
1033.5,3746.58
1033.77,3745.24
1034.03,3745.54
1034.3,3748.78
1034.57,3748.16
1034.83,3748.54
1035.1,3748.12
1035.36,3749.68
1035.63,3748.42
1035.9,3748.66
1036.16,3747.02
1036.43,3747.2
1036.7,3747.22
1036.96,3743.86
1037.23,3743.1
1037.5,3741.5
1037.76,3742.06
1038.03,3740.84
1038.3,3739.72
1038.56,3739.22
1038.83,3736.58
1039.09,3737.66
1039.36,3736.68
1039.63,3736.38
1039.89,3735.62
1040.16,3736.14
1040.43,3734.2
1040.69,3735.34
1040.96,3734.88
1041.22,3733.24
1041.49,3734.1
1041.76,3734.66
1042.02,3733.84
1042.29,3733.74
1042.55,3732.78
1042.82,3733.52
1043.09,3731.84
1043.35,3732.3
1043.62,3732.96
1043.89,3732.32
1044.15,3732.74
1044.42,3732.54
1044.68,3732.7
1044.95,3730.94
1045.22,3731.22
1045.48,3729.82
1045.75,3732.14
1046.01,3730.08
1046.28,3731.48
1046.55,3730.96
1046.81,3730.76
1047.08,3730.56
1047.34,3730.8
1047.61,3730.18
1047.88,3730.18
1048.14,3730.28
1048.41,3729.38
1048.67,3729.74
1048.94,3728.88
1049.2,3729.6
1049.47,3729.04
1049.74,3729.62
1050.0,3729.44
1050.27,3729.48
1050.53,3729.02
1050.8,3730.44
1051.06,3728.84
1051.33,3729.1
1051.6,3728.58
1051.86,3729.58
1052.13,3729.36
1052.39,3727.82
1052.66,3727.68
1052.92,3728.32
1053.19,3728.22
1053.46,3727.28
1053.72,3726.92
1053.99,3728.2
1054.25,3728.48
1054.52,3727.08
1054.78,3729.14
1055.05,3728.26
1055.32,3728.84
1055.58,3727.74
1055.85,3727.54
1056.11,3728.2
1056.38,3727.88
1056.64,3727.16
1056.91,3727.1
1057.17,3727.66
1057.44,3727.24
1057.7,3726.76
1057.97,3727.86
1058.24,3726.38
1058.5,3725.84
1058.77,3726.74
1059.03,3727.18
1059.3,3726.62
1059.56,3727.0
1059.83,3727.06
1060.09,3726.28
1060.36,3726.44
1060.62,3726.66
1060.89,3726.8
1061.15,3727.3
1061.42,3726.0
1061.68,3726.26
1061.95,3726.78
1062.22,3724.62
1062.48,3726.22
1062.75,3726.5
1063.01,3726.44
1063.28,3725.98
1063.54,3725.88
1063.81,3725.7
1064.07,3726.36
1064.34,3726.68
1064.6,3725.44
1064.87,3725.0
1065.13,3725.62
1065.4,3725.42
1065.66,3725.52
1065.93,3724.12
1066.19,3724.94
1066.46,3724.88
1066.72,3725.42
1066.99,3724.8
1067.25,3724.88
1067.52,3723.44
1067.78,3725.74
1068.05,3724.22