File: spectra/VLFR_08-PLA_nobio_Raman_dd1ac37e.csv
nm,Intensity
526.5,829.3
526.637,829.8
526.774,828.9
526.91,829.5
527.047,829.5
527.184,829.3
527.32,828.6
527.457,827.6
527.594,829.0
527.73,828.6
527.867,829.3
528.004,829.1
528.14,828.8
528.277,828.7
528.414,829.5
528.55,830.1
528.687,828.9
528.823,828.9
528.96,828.4
529.096,829.6
529.233,829.1
529.37,829.7
529.506,829.8
529.643,828.3
529.779,829.2
529.916,830.4
530.052,828.7
530.189,828.8
530.325,829.1
530.462,829.2
530.598,829.2
530.735,828.2
530.871,829.3
531.008,828.8
531.144,829.3
531.28,828.8
531.417,829.9
531.553,829.6
531.69,828.3
531.826,828.5
531.962,836.5
532.099,900.8
532.235,920.4
532.372,849.5
532.508,831.3
532.644,829.9
532.781,830.0
532.917,828.6
533.053,829.2
533.19,829.2
533.326,829.1
533.462,829.1
533.599,829.7
533.735,833.4
533.871,850.6
534.007,879.4
534.144,891.9
534.28,892.2
534.416,890.1
534.552,885.7
534.689,885.0
534.825,883.8
534.961,881.6
535.097,876.0
535.234,875.2
535.37,875.2
535.506,873.3
535.642,873.1
535.778,874.5
535.914,871.3
536.051,868.5
536.187,869.8
536.323,871.6
536.459,870.3
536.595,870.8
536.731,873.9
536.867,872.4
537.003,872.1
537.14,868.7
537.276,868.3
537.412,870.2
537.548,871.5
537.684,868.1
537.82,869.1
537.956,869.3
538.092,868.8
538.228,868.4
538.364,871.1
538.5,868.9
538.636,865.7
538.772,869.8
538.908,868.5
539.044,867.7
539.18,868.9
539.316,866.9
539.452,869.1
539.588,865.9
539.724,868.0
539.86,864.5
539.996,868.4
540.132,869.5
540.268,866.0
540.403,869.1
540.539,870.3
540.675,872.1
540.811,871.9
540.947,869.5
541.083,872.1
541.219,872.2
541.355,870.0
541.49,868.2
541.626,872.3
541.762,871.6
541.898,872.6
542.034,866.7
542.17,869.1
542.305,874.6
542.441,869.2
542.577,870.1
542.713,869.6
542.848,872.8
542.984,872.4
543.12,871.5
543.256,871.9
543.391,876.1
543.527,874.5
543.663,882.0
543.799,879.3
543.934,881.3
544.07,880.9
544.206,878.1
544.341,876.7
544.477,874.5
544.613,871.9
544.748,873.9
544.884,872.2
545.02,873.9
545.155,871.8
545.291,872.3
545.427,870.9
545.562,871.1
545.698,873.3
545.833,873.2
545.969,872.8
546.105,872.5
546.24,868.7
546.376,871.5
546.511,874.2
546.647,872.5
546.782,872.3
546.918,870.1
547.053,875.0
547.189,873.5
547.325,873.0
547.46,874.5
547.596,874.0
547.731,874.7
547.867,873.9
548.002,873.2
548.137,874.3
548.273,875.2
548.408,872.6
548.544,874.8
548.679,874.6
548.815,872.8
548.95,875.4
549.086,871.5
549.221,873.9
549.356,875.3
549.492,873.6
549.627,874.6
549.763,876.2
549.898,876.6
550.033,874.6
550.169,877.2
550.304,876.5
550.439,875.5
550.575,878.2
550.71,876.7
550.845,876.3
550.981,881.0
551.116,878.0
551.251,876.2
551.387,875.3
551.522,880.3
551.657,879.3
551.793,877.9
551.928,877.5
552.063,881.6
552.198,878.3
552.334,879.6
552.469,880.7
552.604,880.4
552.739,880.7
552.874,883.3
553.01,879.8
553.145,880.5
553.28,879.9
553.415,880.6
553.55,878.4
553.686,878.6
553.821,882.9
553.956,882.6
554.091,883.2
554.226,880.7
554.361,881.0
554.497,879.9
554.632,878.6
554.767,879.1
554.902,881.8
555.037,878.7
555.172,878.3
555.307,880.3
555.442,878.9
555.577,881.8
555.712,878.7
555.848,880.4
555.983,878.8
556.118,878.9
556.253,882.3
556.388,879.5
556.523,877.2
556.658,880.2
556.793,881.7
556.928,880.6
557.063,882.6
557.198,879.8
557.333,882.4
557.468,885.5
557.603,886.3
557.738,889.6
557.873,902.2
558.008,908.6
558.142,915.6
558.277,910.6
558.412,893.8
558.547,885.4
558.682,884.8
558.817,883.2
558.952,883.5
559.087,887.6
559.222,882.5
559.357,883.6
559.492,885.3
559.626,886.9
559.761,885.4
559.896,885.6
560.031,886.8
560.166,883.6
560.301,884.3
560.435,881.6
560.57,881.9
560.705,884.9
560.84,880.5
560.975,880.4
561.109,882.6
561.244,885.4
561.379,883.5
561.514,884.4
561.649,882.7
561.783,882.7
561.918,882.6
562.053,882.7
562.188,884.8
562.322,884.8
562.457,882.6
562.592,883.6
562.726,884.1
562.861,883.6
562.996,885.1
563.131,890.8
563.265,889.6
563.4,893.7
563.535,893.0
563.669,893.3
563.804,889.4
563.939,887.7
564.073,889.5
564.208,891.3
564.342,885.3
564.477,888.4
564.612,890.3
564.746,892.9
564.881,893.3
565.015,893.8
565.15,897.1
565.285,893.9
565.419,891.7
565.554,890.6
565.688,890.1
565.823,895.7
565.957,896.0
566.092,902.9
566.227,898.6
566.361,899.7
566.496,893.4
566.63,893.4
566.765,889.6
566.899,887.4
567.034,889.0
567.168,889.4
567.303,892.4
567.437,888.8
567.572,887.5
567.706,888.5
567.84,890.3
567.975,889.7
568.109,890.1
568.244,888.6
568.378,889.6
568.513,887.6
568.647,891.7
568.781,887.4
568.916,893.7
569.05,891.8
569.185,892.7
569.319,892.8
569.453,892.6
569.588,893.6
569.722,892.9
569.857,890.9
569.991,889.5
570.125,890.0
570.26,891.5
570.394,889.1
570.528,895.8
570.663,891.8
570.797,890.1
570.931,891.4
571.065,889.8
571.2,893.9
571.334,894.6
571.468,895.2
571.603,898.9
571.737,898.5
571.871,900.2
572.005,897.2
572.14,895.9
572.274,894.4
572.408,894.2
572.542,894.2
572.677,894.3
572.811,895.2
572.945,895.2
573.079,898.5
573.213,893.6
573.348,900.5
573.482,898.8
573.616,898.8
573.75,897.3
573.884,898.8
574.018,900.9
574.153,896.9
574.287,899.2
574.421,898.0
574.555,902.8
574.689,900.7
574.823,897.1
574.957,895.9
575.092,897.6
575.226,897.1
575.36,895.0
575.494,895.5
575.628,894.3
575.762,897.9
575.896,897.2
576.03,893.2
576.164,895.4
576.298,894.9
576.432,908.0
576.566,908.7
576.7,908.4
576.834,910.7
576.968,912.1
577.103,910.0
577.237,907.8
577.371,901.0
577.505,900.1
577.639,895.9
577.773,898.0
577.907,894.2
578.04,896.0
578.174,897.3
578.308,896.9
578.442,894.2
578.576,897.4
578.71,895.9
578.844,897.5
578.978,898.9
579.112,896.3
579.246,895.6
579.38,896.7
579.514,896.8
579.648,894.4
579.782,900.2
579.916,899.1
580.049,897.0
580.183,898.0
580.317,897.1
580.451,898.5
580.585,897.1
580.719,896.2
580.853,895.9
580.986,893.7
581.12,897.0
581.254,897.8
581.388,892.8
581.522,894.9
581.656,895.4
581.789,899.0
581.923,896.0
582.057,897.0
582.191,898.1
582.325,900.3
582.458,898.7
582.592,898.9
582.726,898.8
582.86,896.9
582.993,898.6
583.127,894.1
583.261,896.4
583.395,895.3
583.528,898.6
583.662,894.5
583.796,900.8
583.93,899.4
584.063,897.8
584.197,899.0
584.331,898.6
584.464,900.2
584.598,900.3
584.732,896.8
584.865,898.6
584.999,898.8
585.133,903.6
585.266,901.4
585.4,900.0
585.534,902.0
585.667,898.8
585.801,899.8
585.935,903.6
586.068,899.1
586.202,902.3
586.336,901.4
586.469,903.4
586.603,906.0
586.736,909.9
586.87,911.4
587.004,908.7
587.137,912.8
587.271,915.6
587.404,916.7
587.538,922.2
587.671,919.2
587.805,911.6
587.938,913.1
588.072,905.8
588.206,900.1
588.339,901.7
588.473,903.8
588.606,899.6
588.74,902.4
588.873,901.9
589.007,902.9
589.14,898.5
589.274,900.8
589.407,897.9
589.541,901.7
589.674,898.6
589.808,897.9
589.941,900.3
590.074,900.2
590.208,900.1
590.341,898.5
590.475,898.3
590.608,901.1
590.742,902.3
590.875,897.7
591.009,898.2
591.142,896.7
591.275,902.7
591.409,899.3
591.542,899.8
591.676,899.5
591.809,898.5
591.942,896.4
592.076,903.8
592.209,902.7
592.342,898.2
592.476,899.2
592.609,900.3
592.743,901.8
592.876,898.8
593.009,898.1
593.143,899.3
593.276,902.1
593.409,897.3
593.543,896.8
593.676,898.5
593.809,898.2
593.942,898.0
594.076,902.2
594.209,898.5
594.342,898.2
594.476,902.6
594.609,897.4
594.742,896.2
594.875,897.1
595.009,901.1
595.142,898.2
595.275,898.4
595.408,899.2
595.542,900.0
595.675,900.7
595.808,894.0
595.941,899.5
596.075,899.3
596.208,899.9
596.341,899.0
596.474,902.0
596.607,898.5
596.741,897.4
596.874,900.6
597.007,901.0
597.14,902.2
597.273,898.6
597.406,900.6
597.54,900.1
597.673,896.7
597.806,902.6
597.939,902.3
598.072,902.7
598.205,898.4
598.338,898.8
598.472,900.5
598.605,899.7
598.738,901.9
598.871,903.1
599.004,900.3
599.137,901.1
599.27,900.8
599.403,899.6
599.536,898.9
599.67,902.7
599.803,900.2
599.936,900.6
600.069,899.3
600.202,899.6
600.335,899.4
600.468,901.8
600.601,897.3
600.734,901.9
600.867,901.5
601.0,899.1
601.133,898.4
601.266,897.9
601.399,898.3
601.532,899.2
601.665,901.4
601.798,897.6
601.931,901.0
602.064,899.2
602.197,898.2
602.33,899.2
602.463,901.1
602.596,898.2
602.729,900.0
602.862,900.5
602.995,900.2
603.128,900.7
603.261,899.8
603.394,901.7
603.527,896.2
603.66,897.9
603.793,898.2
603.925,900.5
604.058,900.7
604.191,900.7
604.324,899.8
604.457,896.0
604.59,899.8
604.723,897.7
604.856,894.8
604.989,895.7
605.122,896.0
605.254,894.1
605.387,894.5
605.52,896.5
605.653,897.0
605.786,897.0
605.919,891.4
606.052,897.1
606.184,894.3
606.317,895.3
606.45,893.3
606.583,896.0
606.716,895.3
606.849,895.0
606.981,894.1
607.114,896.3
607.247,894.6
607.38,896.9
607.513,897.7
607.645,897.5
607.778,894.4
607.911,896.0
608.044,896.1
608.177,895.7
608.309,895.9
608.442,897.0
608.575,898.6
608.708,894.7
608.84,895.4
608.973,895.9
609.106,895.1
609.239,898.2
609.371,894.7
609.504,896.7
609.637,897.2
609.769,894.4
609.902,897.1
610.035,897.0
610.168,899.0
610.3,895.1
610.433,895.5
610.566,895.7
610.698,892.6
610.831,895.5
610.964,893.4
611.096,894.3
611.229,897.0
611.362,892.9
611.494,892.2
611.627,896.5
611.76,896.3
611.892,897.2
612.025,893.1
612.158,900.6
612.29,897.9
612.423,898.8
612.556,897.2
612.688,895.4
612.821,899.2
612.953,898.9
613.086,898.5
613.219,898.6
613.351,898.4
613.484,899.0
613.616,899.6
613.749,893.7
613.882,896.9
614.014,895.0
614.147,893.3
614.279,899.0
614.412,897.3
614.544,898.3
614.677,897.1
614.809,896.8
614.942,900.5
615.075,900.0
615.207,896.8
615.34,898.5
615.472,900.4
615.605,895.5
615.737,899.0
615.87,895.1
616.002,898.1
616.135,897.2
616.267,895.5
616.4,895.2
616.532,894.2
616.665,898.0
616.797,894.3
616.93,899.5
617.062,895.9
617.195,897.5
617.327,895.8
617.46,895.0
617.592,893.8
617.725,898.8
617.857,895.8
617.989,893.4
618.122,893.7
618.254,895.6
618.387,894.6
618.519,894.4
618.652,893.5
618.784,896.4
618.917,894.7
619.049,894.5
619.181,895.6
619.314,896.5
619.446,896.3
619.579,894.3
619.711,895.8
619.843,894.6
619.976,894.7
620.108,896.6
620.241,893.7
620.373,896.3
620.505,896.4
620.638,893.4
620.77,893.2
620.902,895.1
621.035,896.5
621.167,894.0
621.299,896.6
621.432,897.3
621.564,895.6
621.696,893.4
621.829,893.3
621.961,893.1
622.093,896.4
622.226,893.4
622.358,895.4
622.49,897.6
622.623,896.6
622.755,895.4
622.887,897.0
623.02,894.8
623.152,901.1
623.284,898.2
623.416,899.3
623.549,899.1
623.681,894.9
623.813,900.2
623.946,892.2
624.078,894.1
624.21,895.1
624.342,895.9
624.475,891.2
624.607,895.4
624.739,897.1
624.871,894.1
625.004,895.0
625.136,895.9
625.268,893.6
625.4,896.9
625.533,894.5
625.665,890.7
625.797,894.0
625.929,894.8
626.061,889.9
626.194,892.9
626.326,890.9
626.458,891.2
626.59,895.4
626.722,893.5
626.855,892.2
626.987,895.0
627.119,895.0
627.251,896.1
627.383,892.8
627.516,893.2
627.648,895.3
627.78,895.7
627.912,897.0
628.044,899.9
628.176,902.5
628.308,910.4
628.441,911.1
628.573,918.2
628.705,913.1
628.837,913.2
628.969,906.9
629.101,907.9
629.233,908.8
629.366,908.1
629.498,905.7
629.63,909.0
629.762,910.1
629.894,907.8
630.026,909.8
630.158,913.6
630.29,914.8
630.422,919.1
630.554,929.0
630.687,937.1
630.819,961.5
630.951,996.7
631.083,1030.9
631.215,1033.2
631.347,1015.2
631.479,985.7
631.611,964.8
631.743,944.4
631.875,937.9
632.007,927.6
632.139,928.1
632.271,923.8
632.403,921.2
632.535,920.6
632.667,919.9
632.799,922.3
632.931,931.5
633.063,936.0
633.195,938.9
633.328,947.3
633.46,941.6
633.592,937.3
633.724,937.8
633.856,928.2
633.988,919.2
634.12,917.3
634.252,908.7
634.384,903.6
634.516,898.7
634.647,898.5
634.779,900.3
634.911,895.4
635.043,889.0
635.175,894.6
635.307,890.3
635.439,889.5
635.571,892.7
635.703,890.9
635.835,892.8
635.967,890.7
636.099,891.0
636.231,890.3
636.363,889.7
636.495,888.7
636.627,889.9
636.759,887.5
636.891,890.8
637.023,890.1
637.155,888.1
637.286,888.7
637.418,889.7
637.55,885.3
637.682,887.3
637.814,891.0
637.946,889.8
638.078,888.6
638.21,884.7
638.342,888.6
638.474,885.3
638.605,886.6
638.737,883.8
638.869,887.6
639.001,885.6
639.133,888.2
639.265,885.3
639.397,885.0
639.529,886.8
639.66,887.4
639.792,886.5
639.924,889.7
640.056,887.8
640.188,886.6
640.32,887.3
640.452,887.1
640.583,884.1
640.715,883.5
640.847,887.1
640.979,886.8
641.111,883.6
641.243,885.9
641.374,887.2
641.506,887.8
641.638,885.6
641.77,885.9
641.902,885.4
642.033,888.6
642.165,886.0
642.297,886.3
642.429,882.9
642.561,886.3
642.692,885.0
642.824,883.0
642.956,888.0
643.088,884.7
643.22,885.4
643.351,884.1
643.483,885.7
643.615,878.7
643.747,882.3
643.878,881.9
644.01,883.5
644.142,879.5
644.274,881.7
644.405,883.6
644.537,886.1
644.669,883.9
644.801,881.4
644.932,882.0
645.064,882.6
645.196,884.7
645.328,879.2
645.459,879.1
645.591,883.1
645.723,882.6
645.854,884.6
645.986,881.4
646.118,877.9
646.25,877.8
646.381,878.8
646.513,882.2
646.645,878.5
646.776,878.6
646.908,882.2
647.04,879.8
647.172,881.2
647.303,882.6
647.435,881.1
647.567,881.2
647.698,879.2
647.83,882.4
647.962,878.3
648.093,879.3
648.225,880.5
648.357,879.0
648.488,883.2
648.62,878.9
648.752,880.6
648.883,880.4
649.015,880.2
649.147,877.7
649.278,881.8
649.41,880.6
649.542,879.3
649.673,880.9
649.805,879.2
649.937,878.4
650.068,877.6
650.2,879.5
650.331,878.9
650.463,879.7
650.595,879.9
650.726,880.3
650.858,876.0
650.99,879.8
651.121,878.2
651.253,877.7
651.384,878.4
651.516,879.2
651.648,879.1
651.779,878.6
651.911,876.1
652.042,878.0
652.174,879.9
652.306,877.5
652.437,876.8
652.569,875.0
652.7,877.7
652.832,878.2
652.963,880.1
653.095,874.8
653.227,876.6
653.358,878.2
653.49,876.3
653.621,875.5
653.753,877.5
653.884,874.4
654.016,877.3
654.148,879.7
654.279,876.1
654.411,875.9
654.542,874.8
654.674,878.9
654.805,877.8
654.937,875.6
655.068,876.4
655.2,877.6
655.331,878.7
655.463,877.3
655.595,875.2
655.726,876.4
655.858,876.0
655.989,876.4
656.121,877.2
656.252,876.4
656.384,876.9
656.515,878.6
656.647,878.0
656.778,877.5
656.91,876.0
657.041,876.1
657.173,874.9
657.304,874.3
657.436,876.4
657.567,876.5
657.699,874.5
657.83,875.7
657.962,873.4
658.093,873.4
658.225,873.3
658.356,876.9
658.488,874.8
658.619,878.0
658.751,878.3
658.882,873.2
659.013,876.7
659.145,874.7
659.276,878.8
659.408,874.6
659.539,874.1
659.671,873.1
659.802,874.6
659.934,876.4
660.065,877.1
660.197,873.4
660.328,875.3
660.459,872.2
660.591,875.8
660.722,876.2
660.854,873.7
660.985,874.1
661.117,871.8
661.248,871.8
661.38,877.1
661.511,872.4
661.642,872.1
661.774,869.2
661.905,873.8
662.037,871.3
662.168,871.9
662.299,872.8
662.431,871.4
662.562,871.4
662.694,872.9
662.825,870.2
662.957,871.4
663.088,872.8