File: spectra/VLFR_01-LDPE_bio_Raman_3f62140c.csv
nm,Intensity
526.508,830.0
526.645,830.2
526.782,829.8
526.919,829.6
527.055,830.7
527.192,829.9
527.329,830.3
527.465,829.8
527.602,829.9
527.739,828.5
527.875,829.1
528.012,831.1
528.149,829.3
528.285,829.5
528.422,830.0
528.558,829.4
528.695,829.2
528.832,829.7
528.968,829.3
529.105,829.0
529.241,830.5
529.378,829.3
529.514,828.6
529.651,830.6
529.787,829.3
529.924,828.9
530.061,829.6
530.197,829.1
530.334,830.6
530.47,830.0
530.606,829.2
530.743,829.0
530.879,831.1
531.016,828.6
531.152,828.3
531.289,828.5
531.425,830.5
531.562,828.8
531.698,830.3
531.834,830.2
531.971,836.4
532.107,881.9
532.244,899.8
532.38,845.3
532.516,832.5
532.653,830.7
532.789,828.8
532.925,827.9
533.062,829.1
533.198,828.7
533.334,830.1
533.471,829.3
533.607,830.9
533.743,837.4
533.879,859.9
534.016,903.5
534.152,917.8
534.288,913.4
534.424,913.2
534.561,907.5
534.697,906.6
534.833,904.2
534.969,897.0
535.106,893.1
535.242,891.9
535.378,888.6
535.514,879.8
535.65,877.1
535.786,872.5
535.923,874.3
536.059,873.7
536.195,870.1
536.331,866.7
536.467,866.2
536.603,866.8
536.739,866.4
536.876,866.9
537.012,864.2
537.148,862.8
537.284,864.3
537.42,862.6
537.556,863.3
537.692,862.2
537.828,864.8
537.964,863.2
538.1,860.3
538.236,861.8
538.372,858.9
538.508,856.9
538.644,858.1
538.78,857.1
538.916,855.7
539.052,856.4
539.188,855.9
539.324,853.5
539.46,854.0
539.596,851.5
539.732,854.0
539.868,851.9
540.004,853.6
540.14,854.4
540.275,853.4
540.411,853.0
540.547,852.6
540.683,850.6
540.819,851.2
540.955,850.4
541.091,851.0
541.227,848.8
541.362,851.4
541.498,848.3
541.634,848.3
541.77,849.6
541.906,849.5
542.041,849.4
542.177,848.2
542.313,849.1
542.449,849.4
542.585,849.2
542.72,847.8
542.856,849.6
542.992,848.9
543.128,848.6
543.263,848.4
543.399,845.5
543.535,848.2
543.67,847.8
543.806,849.5
543.942,850.2
544.078,849.2
544.213,847.3
544.349,847.5
544.485,848.2
544.62,847.4
544.756,847.0
544.892,846.1
545.027,846.4
545.163,847.2
545.298,847.8
545.434,848.2
545.57,846.8
545.705,844.6
545.841,845.9
545.976,845.8
546.112,847.3
546.248,846.4
546.383,847.3
546.519,847.0
546.654,845.9
546.79,844.8
546.925,847.7
547.061,846.7
547.196,845.7
547.332,845.4
547.467,847.4
547.603,845.1
547.738,845.5
547.874,846.0
548.009,847.4
548.145,844.0
548.28,845.2
548.416,846.0
548.551,848.2
548.686,845.0
548.822,844.7
548.957,843.7
549.093,846.6
549.228,845.4
549.363,846.7
549.499,843.8
549.634,845.7
549.77,845.5
549.905,845.4
550.04,844.2
550.176,844.0
550.311,844.6
550.446,845.3
550.582,843.2
550.717,843.7
550.852,845.5
550.988,844.6
551.123,845.1
551.258,844.0
551.394,844.2
551.529,843.3
551.664,846.2
551.799,844.5
551.935,846.3
552.07,845.0
552.205,844.6
552.34,846.1
552.476,844.5
552.611,846.0
552.746,844.6
552.881,844.9
553.016,845.8
553.152,848.8
553.287,849.3
553.422,850.4
553.557,848.9
553.692,849.5
553.827,851.2
553.963,850.1
554.098,847.9
554.233,850.4
554.368,852.1
554.503,848.8
554.638,852.1
554.773,850.7
554.908,852.1
555.043,851.3
555.179,851.2
555.314,852.4
555.449,850.2
555.584,852.8
555.719,851.8
555.854,853.9
555.989,852.1
556.124,854.3
556.259,853.9
556.394,854.4
556.529,853.9
556.664,855.8
556.799,856.7
556.934,854.8
557.069,857.6
557.204,857.8
557.339,856.4
557.474,856.8
557.609,857.8
557.744,860.2
557.879,862.0
558.014,861.6
558.149,863.6
558.284,861.7
558.419,863.4
558.553,861.9
558.688,860.4
558.823,865.6
558.958,862.5
559.093,858.6
559.228,859.3
559.363,858.5
559.498,857.6
559.632,858.3
559.767,858.7
559.902,859.2
560.037,857.3
560.172,856.8
560.307,860.1
560.441,858.8
560.576,857.8
560.711,858.0
560.846,860.1
560.981,859.7
561.115,860.1
561.25,857.5
561.385,860.0
561.52,860.3
561.654,861.1
561.789,861.9
561.924,861.5
562.059,862.2
562.193,862.8
562.328,865.7
562.463,863.0
562.598,865.4
562.732,867.1
562.867,868.8
563.002,870.7
563.136,869.1
563.271,872.6
563.406,872.9
563.54,875.6
563.675,880.6
563.81,890.9
563.944,930.4
564.079,970.2
564.213,940.3
564.348,904.5
564.483,894.0
564.617,891.5
564.752,892.5
564.887,894.6
565.021,889.3
565.156,886.9
565.29,884.1
565.425,879.8
565.559,882.6
565.694,882.4
565.828,891.1
565.963,901.3
566.098,939.4
566.232,952.7
566.367,924.7
566.501,897.7
566.636,885.2
566.77,885.1
566.905,883.5
567.039,881.8
567.174,884.1
567.308,882.7
567.443,891.3
567.577,897.9
567.711,888.0
567.846,884.9
567.98,880.8
568.115,883.6
568.249,881.5
568.384,879.0
568.518,881.4
568.652,882.5
568.787,881.1
568.921,883.6
569.056,883.8
569.19,887.9
569.324,885.8
569.459,890.2
569.593,889.7
569.727,889.3
569.862,889.3
569.996,887.9
570.131,894.1
570.265,890.5
570.399,898.6
570.534,895.4
570.668,902.0
570.802,902.7
570.936,909.7
571.071,910.3
571.205,917.4
571.339,934.4
571.474,1004.0
571.608,1078.2
571.742,1008.1
571.876,955.5
572.011,945.5
572.145,935.8
572.279,929.4
572.413,926.0
572.548,917.9
572.682,916.8
572.816,917.3
572.95,913.6
573.084,920.3
573.219,922.0
573.353,927.5
573.487,922.2
573.621,927.4
573.755,928.6
573.889,933.2
574.024,943.7
574.158,937.4
574.292,935.9
574.426,934.4
574.56,936.5
574.694,935.0
574.828,938.6
574.963,940.1
575.097,941.8
575.231,949.0
575.365,951.9
575.499,979.1
575.633,999.5
575.767,997.8
575.901,1005.2
576.035,1029.8
576.169,1073.7
576.303,1116.9
576.437,1122.0
576.571,1084.3
576.706,1076.5
576.84,1068.8
576.974,1079.7
577.108,1076.2
577.242,1075.0
577.376,1059.0
577.51,1039.7
577.644,1027.5
577.778,1027.2
577.912,1026.8
578.046,1030.8
578.179,1035.9
578.313,1043.2
578.447,1044.1
578.581,1048.4
578.715,1051.9
578.849,1056.6
578.983,1055.4
579.117,1061.5
579.251,1072.1
579.385,1080.6
579.519,1081.2
579.653,1086.6
579.787,1099.9
579.921,1100.3
580.054,1104.9
580.188,1109.4
580.322,1122.6
580.456,1123.2
580.59,1131.2
580.724,1136.5
580.858,1147.2
580.991,1150.9
581.125,1159.9
581.259,1157.6
581.393,1171.4
581.527,1176.0
581.661,1182.1
581.794,1187.3
581.928,1191.3
582.062,1199.4
582.196,1201.9
582.33,1212.7
582.463,1216.9
582.597,1223.7
582.731,1236.8
582.865,1239.3
582.998,1239.7
583.132,1242.2
583.266,1257.2
583.4,1255.2
583.533,1264.9
583.667,1273.1
583.801,1271.5
583.935,1279.5
584.068,1286.5
584.202,1295.3
584.336,1296.7
584.469,1303.1
584.603,1296.7
584.737,1310.2
584.87,1315.5
585.004,1316.8
585.138,1318.2
585.271,1324.6
585.405,1333.5
585.539,1337.1
585.672,1343.6
585.806,1352.4
585.94,1353.0
586.073,1363.3
586.207,1374.0
586.34,1376.0
586.474,1384.1
586.608,1388.1
586.741,1390.2
586.875,1393.5
587.008,1395.5
587.142,1413.8
587.276,1414.3
587.409,1421.0
587.543,1429.2
587.676,1423.4
587.81,1436.8
587.943,1447.5
588.077,1446.6
588.21,1452.4
588.344,1452.8
588.478,1466.1
588.611,1467.4
588.745,1473.5
588.878,1471.6
589.012,1478.8
589.145,1501.1
589.279,1497.5
589.412,1503.3
589.546,1508.6
589.679,1523.9
589.812,1520.1
589.946,1538.2
590.079,1529.6
590.213,1545.8
590.346,1551.6
590.48,1565.8
590.613,1565.7
590.747,1577.8
590.88,1578.2
591.013,1592.9
591.147,1596.4
591.28,1601.1
591.414,1584.9
591.547,1610.2
591.68,1611.3
591.814,1626.0
591.947,1629.6
592.081,1626.6
592.214,1630.3
592.347,1637.5
592.481,1649.9
592.614,1648.2
592.747,1657.5
592.881,1657.0
593.014,1665.2
593.147,1651.5
593.281,1658.9
593.414,1668.5
593.547,1674.5
593.681,1689.0
593.814,1676.8
593.947,1694.2
594.081,1689.1
594.214,1691.3
594.347,1708.2
594.48,1709.0
594.614,1720.9
594.747,1730.0
594.88,1717.1
595.014,1740.9
595.147,1741.9
595.28,1745.9
595.413,1758.3
595.547,1759.7
595.68,1777.2
595.813,1771.2
595.946,1795.5
596.079,1791.7
596.213,1794.6
596.346,1800.8
596.479,1803.6
596.612,1831.6
596.745,1825.9
596.879,1828.7
597.012,1831.6
597.145,1850.7
597.278,1856.4
597.411,1873.7
597.545,1863.4
597.678,1894.7
597.811,1891.0
597.944,1904.0
598.077,1910.4
598.21,1921.3
598.343,1934.7
598.476,1931.4
598.61,1947.0
598.743,1958.8
598.876,1961.3
599.009,1967.8
599.142,1980.1
599.275,1977.5
599.408,1992.1
599.541,2001.0
599.674,1999.8
599.807,1992.5
599.941,2006.4
600.074,2012.3
600.207,2007.3
600.34,2006.1
600.473,2017.8
600.606,2016.7
600.739,2019.5
600.872,1991.4
601.005,2011.7
601.138,2022.0
601.271,2002.9
601.404,2005.4
601.537,1992.6
601.67,2000.6
601.803,1995.8
601.936,1999.6
602.069,1992.9
602.202,1988.1
602.335,1991.5
602.468,1986.4
602.601,1973.0
602.734,1970.9
602.867,1967.3
603.0,1957.1
603.133,1967.8
603.266,1946.6
603.399,1947.6
603.532,1938.0
603.664,1917.8
603.797,1918.1
603.93,1912.7
604.063,1902.4
604.196,1891.7
604.329,1869.5
604.462,1865.6
604.595,1858.6
604.728,1841.9
604.861,1813.0
604.994,1823.2
605.126,1803.3
605.259,1786.0
605.392,1768.6
605.525,1760.9
605.658,1746.9
605.791,1741.9
605.924,1725.4
606.056,1706.5
606.189,1712.9
606.322,1684.7
606.455,1690.2
606.588,1674.4
606.721,1665.4
606.853,1652.8
606.986,1651.8
607.119,1630.9
607.252,1629.7
607.385,1627.6
607.517,1613.3
607.65,1617.5
607.783,1606.1
607.916,1595.2
608.049,1584.1
608.181,1584.7
608.314,1575.7
608.447,1570.1
608.58,1554.5
608.712,1561.9
608.845,1542.0
608.978,1539.2
609.111,1539.2
609.243,1523.9
609.376,1512.3
609.509,1504.0
609.641,1517.9
609.774,1497.0
609.907,1504.4
610.04,1489.2
610.172,1484.1
610.305,1482.0
610.438,1481.4
610.57,1462.3
610.703,1465.1
610.836,1457.8
610.968,1456.0
611.101,1448.9
611.234,1443.7
611.366,1445.4
611.499,1442.9
611.632,1437.0
611.764,1423.3
611.897,1436.8
612.03,1422.8
612.162,1425.6
612.295,1419.4
612.428,1416.7
612.56,1419.0
612.693,1419.1
612.825,1414.9
612.958,1416.9
613.091,1405.9
613.223,1400.0
613.356,1394.4
613.488,1399.1
613.621,1399.2
613.754,1391.7
613.886,1373.2
614.019,1391.2
614.151,1377.9
614.284,1374.1
614.416,1370.8
614.549,1359.8
614.681,1367.8
614.814,1364.6
614.947,1353.6
615.079,1352.9
615.212,1354.1
615.344,1345.7
615.477,1344.4
615.609,1342.7
615.742,1335.6
615.874,1328.5
616.007,1328.3
616.139,1325.2
616.272,1327.5
616.404,1322.4
616.537,1318.8
616.669,1322.8
616.802,1308.8
616.934,1312.6
617.067,1305.8
617.199,1311.6
617.332,1313.6
617.464,1295.9
617.596,1302.0
617.729,1307.6
617.861,1296.5
617.994,1296.7
618.126,1296.1
618.259,1301.1
618.391,1290.8
618.524,1284.1
618.656,1286.0
618.788,1288.6
618.921,1279.5
619.053,1283.6
619.186,1279.1
619.318,1285.4
619.45,1272.5
619.583,1273.2
619.715,1273.8
619.848,1278.4
619.98,1267.8
620.112,1264.4
620.245,1270.6
620.377,1253.2
620.509,1262.1
620.642,1262.8
620.774,1260.5
620.907,1264.0
621.039,1256.6
621.171,1261.2
621.304,1265.1
621.436,1259.1
621.568,1269.8
621.701,1274.0
621.833,1283.2
621.965,1298.8
622.097,1299.1
622.23,1297.1
622.362,1312.8
622.494,1299.4
622.627,1301.9
622.759,1279.3
622.891,1268.1
623.024,1264.4
623.156,1255.3
623.288,1243.0
623.42,1247.6
623.553,1239.9
623.685,1242.1
623.817,1245.4
623.949,1242.4
624.082,1234.0
624.214,1242.6
624.346,1229.7
624.479,1236.5
624.611,1234.5
624.743,1238.1
624.875,1236.3
625.007,1235.6
625.14,1233.6
625.272,1232.7
625.404,1234.2
625.536,1235.7
625.669,1240.4
625.801,1241.5
625.933,1245.4
626.065,1256.3
626.197,1265.0
626.33,1279.3
626.462,1301.8
626.594,1342.6
626.726,1424.5
626.858,1565.6
626.99,1804.3
627.123,2071.2
627.255,2192.5
627.387,2145.7
627.519,2028.3
627.651,1918.6
627.783,1832.6
627.916,1789.2
628.048,1762.0
628.18,1780.7
628.312,1854.8
628.444,2033.5
628.576,2282.6
628.708,2154.2
628.84,1923.9
628.973,1832.5
629.105,1788.1
629.237,1774.7
629.369,1749.6
629.501,1699.0
629.633,1659.0
629.765,1618.5
629.897,1585.7
630.029,1574.6
630.161,1565.0
630.294,1568.2
630.426,1554.3
630.558,1543.8
630.69,1514.7
630.822,1486.1
630.954,1442.9
631.086,1391.3
631.218,1345.3
631.35,1310.8
631.482,1313.1
631.614,1298.0
631.746,1286.4
631.878,1281.5
632.01,1274.3
632.142,1267.6
632.274,1258.8
632.406,1254.8
632.538,1260.5
632.67,1249.4
632.802,1260.9
632.934,1254.1
633.066,1257.8
633.198,1249.7
633.33,1258.5
633.462,1256.6
633.594,1250.3
633.726,1257.7
633.858,1243.8
633.99,1251.9
634.122,1254.2
634.254,1245.2
634.386,1249.0
634.518,1256.1
634.65,1258.8
634.782,1250.2
634.914,1253.4
635.046,1259.0
635.178,1250.3
635.31,1252.0
635.442,1251.1
635.574,1262.9
635.706,1258.7
635.838,1261.1
635.97,1260.1
636.102,1264.5
636.234,1267.3
636.365,1264.1
636.497,1263.1
636.629,1273.6
636.761,1273.2
636.893,1273.6
637.025,1269.8
637.157,1268.9
637.289,1277.0
637.421,1272.5
637.553,1267.9
637.685,1269.2
637.816,1277.1
637.948,1275.2
638.08,1273.2
638.212,1277.0
638.344,1277.7
638.476,1276.4
638.608,1278.5
638.74,1275.3
638.871,1279.5
639.003,1280.8
639.135,1287.2
639.267,1281.5
639.399,1287.1
639.531,1281.6
639.662,1293.4
639.794,1291.3
639.926,1284.7
640.058,1292.7
640.19,1294.1
640.322,1291.6
640.453,1298.3
640.585,1294.4
640.717,1301.2
640.849,1300.0
640.981,1308.7
641.113,1304.1
641.244,1302.1
641.376,1306.4
641.508,1307.2
641.64,1310.9
641.772,1307.3
641.903,1314.8
642.035,1315.3
642.167,1316.1
642.299,1310.4
642.43,1314.1
642.562,1314.1
642.694,1318.0
642.826,1316.8
642.958,1314.2
643.089,1326.5
643.221,1322.4
643.353,1319.6
643.485,1314.0
643.616,1317.4
643.748,1333.3
643.88,1322.9
644.012,1321.1
644.143,1327.0
644.275,1324.6
644.407,1317.8
644.538,1327.1
644.67,1322.5
644.802,1332.2
644.934,1326.8
645.065,1336.3
645.197,1332.2
645.329,1325.8
645.461,1335.7
645.592,1332.2
645.724,1341.6
645.856,1342.4
645.987,1334.8
646.119,1331.6
646.251,1333.4
646.382,1344.3
646.514,1334.5
646.646,1334.6
646.777,1345.2
646.909,1332.0
647.041,1344.9
647.172,1338.3
647.304,1335.8
647.436,1342.2
647.567,1341.6
647.699,1342.4
647.831,1338.8
647.962,1344.3
648.094,1352.4
648.226,1352.4
648.357,1348.6
648.489,1345.0
648.621,1347.5
648.752,1348.1
648.884,1337.8
649.016,1339.7
649.147,1342.8
649.279,1339.9
649.411,1342.6
649.542,1347.9
649.674,1346.1
649.805,1352.3
649.937,1339.2
650.069,1353.7
650.2,1348.7
650.332,1345.0
650.463,1347.0
650.595,1352.6
650.727,1353.6
650.858,1348.0
650.99,1351.0
651.121,1350.5
651.253,1355.2
651.385,1356.0
651.516,1347.9
651.648,1364.0
651.779,1355.2
651.911,1356.3
652.043,1356.2
652.174,1358.5
652.306,1362.4
652.437,1363.2
652.569,1356.6
652.7,1364.4
652.832,1362.3
652.963,1361.2
653.095,1365.2
653.227,1368.1
653.358,1372.5
653.49,1374.3
653.621,1368.8
653.753,1367.2
653.884,1371.0
654.016,1368.2
654.147,1365.0
654.279,1361.7
654.41,1365.2
654.542,1361.3
654.674,1364.5
654.805,1361.5
654.937,1363.1
655.068,1369.4
655.2,1360.7
655.331,1360.1
655.463,1360.9
655.594,1360.7
655.726,1358.2
655.857,1359.8
655.989,1352.3
656.12,1351.7
656.252,1350.6
656.383,1350.8
656.515,1344.4
656.646,1338.3
656.778,1354.4
656.909,1341.6
657.041,1340.1
657.172,1345.7
657.304,1338.7
657.435,1340.3
657.567,1336.3
657.698,1328.9
657.829,1327.2
657.961,1321.5
658.092,1324.1
658.224,1314.9
658.355,1319.1
658.487,1311.2
658.618,1309.7
658.75,1301.9
658.881,1307.9
659.013,1295.7
659.144,1294.2
659.275,1295.9
659.407,1289.8
659.538,1285.5
659.67,1286.1
659.801,1277.0
659.933,1274.2
660.064,1272.2
660.196,1267.3
660.327,1267.0
660.458,1255.5
660.59,1253.2
660.721,1242.5
660.853,1244.1
660.984,1239.1
661.116,1235.4
661.247,1232.3
661.378,1225.9
661.51,1224.7
661.641,1219.5
661.773,1216.3
661.904,1209.5
662.035,1208.7
662.167,1206.3
662.298,1194.6
662.43,1189.9
662.561,1194.2
662.692,1191.7
662.824,1180.1
662.955,1182.3
663.087,1178.3