File: spectra/VLFR_02-HDPE_nobio_Raman_132716c1.csv
nm,Intensity
526.486,828.1
526.622,828.2
526.759,829.4
526.896,830.2
527.033,830.1
527.169,829.4
527.306,829.0
527.443,827.9
527.579,828.4
527.716,828.5
527.853,828.7
527.989,829.3
528.126,829.0
528.263,829.4
528.399,828.8
528.536,830.2
528.672,828.8
528.809,829.1
528.946,829.1
529.082,830.5
529.219,829.4
529.355,828.9
529.492,831.5
529.628,831.0
529.765,829.9
529.901,830.4
530.038,830.4
530.174,828.5
530.311,828.8
530.447,829.6
530.584,829.3
530.72,829.5
530.857,830.1
530.993,829.3
531.13,829.3
531.266,828.5
531.403,829.0
531.539,830.4
531.676,829.0
531.812,829.4
531.948,835.5
532.085,889.9
532.221,938.2
532.358,864.0
532.494,831.8
532.63,829.8
532.767,828.7
532.903,828.5
533.039,830.5
533.176,829.4
533.312,829.9
533.448,829.6
533.585,829.0
533.721,830.8
533.857,835.0
533.993,846.4
534.13,852.8
534.266,853.9
534.402,854.2
534.539,853.1
534.675,850.0
534.811,850.2
534.947,850.7
535.083,848.7
535.22,847.2
535.356,847.6
535.492,844.4
535.628,841.7
535.764,841.2
535.901,842.1
536.037,839.1
536.173,841.3
536.309,839.3
536.445,838.2
536.581,838.5
536.717,839.6
536.854,840.3
536.99,837.5
537.126,837.9
537.262,837.6
537.398,839.0
537.534,836.2
537.67,837.4
537.806,837.6
537.942,836.6
538.078,836.8
538.214,838.1
538.35,836.1
538.486,837.6
538.622,835.8
538.758,836.8
538.894,838.2
539.03,838.1
539.166,837.5
539.302,835.7
539.438,837.8
539.574,835.9
539.71,836.2
539.846,836.1
539.982,836.1
540.118,836.6
540.254,835.9
540.39,833.9
540.526,834.2
540.662,835.2
540.798,835.9
540.933,834.0
541.069,834.6
541.205,834.3
541.341,835.2
541.477,835.7
541.613,836.7
541.749,834.9
541.884,834.8
542.02,836.7
542.156,835.2
542.292,835.4
542.428,835.1
542.563,834.1
542.699,835.3
542.835,833.1
542.971,834.3
543.106,835.0
543.242,834.3
543.378,835.5
543.514,833.7
543.649,835.7
543.785,836.8
543.921,835.3
544.057,836.0
544.192,835.3
544.328,834.4
544.464,834.2
544.599,835.3
544.735,833.4
544.871,834.5
545.006,835.0
545.142,834.5
545.278,834.4
545.413,836.3
545.549,835.3
545.684,834.4
545.82,834.7
545.956,834.3
546.091,833.1
546.227,834.6
546.362,835.7
546.498,834.9
546.634,834.5
546.769,833.7
546.905,834.7
547.04,834.1
547.176,833.6
547.311,837.1
547.447,834.2
547.582,834.3
547.718,835.4
547.853,833.9
547.989,834.1
548.124,833.7
548.26,836.2
548.395,835.1
548.531,835.0
548.666,835.8
548.802,834.6
548.937,835.5
549.072,833.8
549.208,834.0
549.343,836.4
549.479,835.9
549.614,835.4
549.75,835.6
549.885,835.6
550.02,834.7
550.156,835.9
550.291,834.6
550.426,832.4
550.562,836.0
550.697,836.0
550.832,835.1
550.968,835.9
551.103,836.7
551.238,836.2
551.374,836.2
551.509,836.6
551.644,835.7
551.78,834.8
551.915,834.3
552.05,834.9
552.185,834.5
552.321,835.3
552.456,833.6
552.591,834.2
552.726,834.7
552.862,836.0
552.997,833.6
553.132,835.5
553.267,836.8
553.403,837.2
553.538,836.3
553.673,836.8
553.808,834.8
553.943,834.7
554.078,835.5
554.214,836.6
554.349,840.1
554.484,836.6
554.619,836.0
554.754,835.9
554.889,836.2
555.024,838.3
555.16,835.2
555.295,835.8
555.43,836.7
555.565,837.4
555.7,837.7
555.835,837.5
555.97,837.4
556.105,837.4
556.24,833.9
556.375,836.9
556.51,838.1
556.645,837.3
556.78,836.7
556.915,836.2
557.05,838.0
557.185,837.4
557.32,838.0
557.455,838.0
557.59,837.1
557.725,839.2
557.86,837.7
557.995,838.5
558.13,838.9
558.265,837.8
558.4,837.4
558.535,838.6
558.67,839.8
558.805,838.6
558.94,840.0
559.075,838.5
559.21,837.5
559.345,839.9
559.479,839.3
559.614,835.5
559.749,837.9
559.884,839.3
560.019,837.9
560.154,838.2
560.289,837.9
560.424,838.6
560.558,837.2
560.693,837.2
560.828,837.4
560.963,837.1
561.098,838.2
561.232,837.6
561.367,838.0
561.502,835.2
561.637,837.4
561.772,837.1
561.906,836.9
562.041,839.3
562.176,837.4
562.311,837.7
562.445,838.0
562.58,839.4
562.715,837.8
562.85,839.4
562.984,838.3
563.119,840.0
563.254,837.8
563.388,839.0
563.523,839.9
563.658,839.8
563.792,845.2
563.927,860.1
564.062,876.8
564.196,866.7
564.331,849.1
564.466,848.7
564.6,844.2
564.735,844.3
564.87,847.0
565.004,842.3
565.139,842.6
565.273,842.3
565.408,842.1
565.543,843.4
565.677,841.9
565.812,843.9
565.946,847.1
566.081,862.4
566.215,876.8
566.35,865.7
566.485,849.8
566.619,841.8
566.754,840.8
566.888,839.3
567.023,839.5
567.157,841.3
567.292,842.2
567.426,844.1
567.561,846.2
567.695,843.4
567.83,842.8
567.964,840.6
568.099,839.5
568.233,838.9
568.368,838.4
568.502,839.3
568.636,840.3
568.771,841.0
568.905,839.0
569.04,840.2
569.174,839.4
569.309,841.3
569.443,841.2
569.577,839.7
569.712,840.1
569.846,841.5
569.98,840.7
570.115,839.9
570.249,841.4
570.384,840.6
570.518,842.8
570.652,842.9
570.787,845.1
570.921,843.9
571.055,845.0
571.19,846.1
571.324,850.7
571.458,872.9
571.592,908.2
571.727,882.3
571.861,857.6
571.995,851.5
572.13,848.1
572.264,845.2
572.398,846.6
572.532,843.8
572.667,845.2
572.801,841.8
572.935,841.3
573.069,844.3
573.204,841.4
573.338,842.3
573.472,844.0
573.606,844.3
573.74,843.1
573.875,845.2
574.009,847.7
574.143,848.7
574.277,844.8
574.411,843.8
574.545,842.6
574.68,842.7
574.814,843.9
574.948,843.6
575.082,844.1
575.216,844.0
575.35,847.8
575.484,857.9
575.619,865.9
575.753,860.2
575.887,858.0
576.021,862.9
576.155,876.0
576.289,893.9
576.423,895.1
576.557,882.7
576.691,874.0
576.825,869.5
576.959,873.5
577.093,872.3
577.227,871.8
577.361,866.7
577.495,856.2
577.629,853.9
577.763,850.6
577.897,849.6
578.031,849.7
578.165,848.4
578.299,849.2
578.433,848.8
578.567,851.0
578.701,849.5
578.835,848.6
578.969,851.5
579.103,850.3
579.237,849.2
579.371,850.2
579.505,849.3
579.639,850.8
579.773,852.2
579.907,850.3
580.041,851.5
580.175,852.2
580.309,851.3
580.442,851.7
580.576,850.8
580.71,854.2
580.844,852.6
580.978,853.2
581.112,854.7
581.246,854.3
581.38,853.2
581.513,855.1
581.647,854.5
581.781,856.6
581.915,855.7
582.049,860.1
582.183,857.4
582.316,857.2
582.45,858.7
582.584,858.1
582.718,859.6
582.852,861.2
582.985,859.3
583.119,862.5
583.253,860.7
583.387,860.9
583.52,860.9
583.654,863.5
583.788,861.9
583.922,863.6
584.055,862.1
584.189,865.2
584.323,865.3
584.456,867.0
584.59,867.6
584.724,865.1
584.858,869.1
584.991,868.2
585.125,871.1
585.259,868.7
585.392,869.5
585.526,872.1
585.66,873.1
585.793,874.3
585.927,877.0
586.061,872.6
586.194,875.8
586.328,876.4
586.462,877.6
586.595,878.7
586.729,881.6
586.862,881.0
586.996,881.3
587.13,886.4
587.263,884.3
587.397,885.5
587.53,888.0
587.664,885.6
587.797,887.2
587.931,889.5
588.065,894.3
588.198,892.4
588.332,891.0
588.465,892.8
588.599,894.8
588.732,895.2
588.866,891.5
588.999,897.1
589.133,898.0
589.266,898.8
589.4,899.3
589.533,901.6
589.667,903.1
589.8,901.7
589.934,903.2
590.067,903.6
590.201,906.6
590.334,905.6
590.468,904.9
590.601,906.0
590.735,908.8
590.868,908.6
591.001,911.1
591.135,911.0
591.268,910.9
591.402,910.4
591.535,912.3
591.669,912.2
591.802,910.0
591.935,913.5
592.069,912.5
592.202,912.5
592.335,911.9
592.469,915.8
592.602,915.6
592.736,914.1
592.869,911.7
593.002,913.6
593.136,914.0
593.269,916.7
593.402,917.2
593.536,916.3
593.669,915.6
593.802,913.8
593.936,917.7
594.069,914.4
594.202,916.6
594.336,909.7
594.469,911.5
594.602,916.3
594.735,914.6
594.869,913.1
595.002,912.1
595.135,915.2
595.268,910.3
595.402,911.6
595.535,915.2
595.668,913.2
595.801,920.1
595.935,910.4
596.068,913.8
596.201,916.0
596.334,913.7
596.468,916.8
596.601,913.8
596.734,915.1
596.867,911.1
597.0,914.0
597.133,912.3
597.267,914.2
597.4,912.2
597.533,912.1
597.666,917.8
597.799,914.1
597.932,914.7
598.066,913.1
598.199,916.3
598.332,916.1
598.465,914.5
598.598,916.5
598.731,916.1
598.864,919.2
598.998,916.1
599.131,916.7
599.264,914.6
599.397,921.2
599.53,913.8
599.663,917.1
599.796,922.0
599.929,919.8
600.062,919.3
600.195,914.2
600.328,917.8
600.461,915.6
600.594,915.1
600.727,912.5
600.86,916.5
600.994,917.9
601.127,917.0
601.26,915.6
601.393,913.6
601.526,913.2
601.659,912.7
601.792,916.4
601.925,918.3
602.058,916.8
602.191,915.9
602.324,915.7
602.457,912.1
602.589,914.8
602.722,911.7
602.855,913.7
602.988,913.9
603.121,909.5
603.254,910.5
603.387,911.3
603.52,908.6
603.653,910.5
603.786,910.8
603.919,912.5
604.052,908.9
604.185,907.6
604.318,909.1
604.451,907.3
604.583,908.1
604.716,905.8
604.849,904.1
604.982,907.4
605.115,902.0
605.248,904.2
605.381,903.6
605.514,902.1
605.646,901.5
605.779,900.0
605.912,897.8
606.045,898.6
606.178,899.8
606.311,893.9
606.443,898.6
606.576,895.6
606.709,894.4
606.842,892.8
606.975,892.7
607.107,894.1
607.24,894.4
607.373,893.4
607.506,893.5
607.639,892.5
607.771,891.3
607.904,888.9
608.037,890.9
608.17,889.1
608.302,887.2
608.435,889.5
608.568,888.0
608.701,889.9
608.833,889.9
608.966,889.3
609.099,885.6
609.232,884.3
609.364,886.1
609.497,888.2
609.63,885.9
609.762,885.1
609.895,886.3
610.028,882.8
610.161,882.7
610.293,885.4
610.426,885.5
610.559,883.4
610.691,882.5
610.824,882.6
610.957,884.6
611.089,883.0
611.222,884.4
611.355,882.5
611.487,884.1
611.62,878.5
611.752,882.3
611.885,883.2
612.018,879.9
612.15,882.1
612.283,879.3
612.416,877.7
612.548,881.7
612.681,881.2
612.813,879.8
612.946,882.0
613.078,879.6
613.211,877.6
613.344,875.4
613.476,875.7
613.609,876.9
613.741,877.6
613.874,877.6
614.006,876.4
614.139,879.6
614.272,877.6
614.404,875.0
614.537,877.0
614.669,875.6
614.802,874.6
614.934,877.5
615.067,875.0
615.199,876.7
615.332,875.1
615.464,876.1
615.597,873.4
615.729,877.9
615.862,871.8
615.994,874.6
616.127,872.0
616.259,873.4
616.392,875.0
616.524,872.2
616.657,875.8
616.789,872.8
616.922,874.4
617.054,875.2
617.186,874.1
617.319,875.0
617.451,872.6
617.584,877.0
617.716,872.2
617.849,874.5
617.981,875.4
618.113,874.8
618.246,876.6
618.378,874.6
618.511,873.2
618.643,870.7
618.775,873.9
618.908,874.3
619.04,872.8
619.173,874.0
619.305,873.3
619.437,873.8
619.57,872.1
619.702,872.5
619.834,876.1
619.967,871.3
620.099,870.0
620.231,869.6
620.364,875.0
620.496,873.6
620.628,871.1
620.761,874.1
620.893,872.0
621.025,875.6
621.158,873.6
621.29,873.9
621.422,874.2
621.555,877.6
621.687,880.1
621.819,883.8
621.952,883.0
622.084,885.5
622.216,890.6
622.348,892.0
622.481,889.7
622.613,888.3
622.745,881.2
622.878,876.8
623.01,875.9
623.142,871.3
623.274,870.1
623.407,869.8
623.539,870.3
623.671,871.2
623.803,870.6
623.935,871.4
624.068,869.4
624.2,869.6
624.332,870.8
624.464,870.2
624.597,870.6
624.729,870.1
624.861,869.5
624.993,868.5
625.125,868.8
625.258,870.7
625.39,870.0
625.522,871.8
625.654,872.8
625.786,873.0
625.918,875.9
626.051,876.2
626.183,882.3
626.315,883.3
626.447,890.5
626.579,905.5
626.711,937.9
626.844,980.9
626.976,1052.2
627.108,1129.5
627.24,1179.6
627.372,1171.9
627.504,1130.0
627.636,1088.8
627.768,1061.3
627.901,1042.3
628.033,1032.7
628.165,1028.2
628.297,1057.0
628.429,1120.5
628.561,1242.3
628.693,1236.4
628.825,1119.0
628.957,1064.7
629.089,1036.7
629.221,1033.9
629.354,1021.3
629.486,1010.5
629.618,992.4
629.75,982.8
629.882,969.0
630.014,963.9
630.146,964.0
630.278,955.5
630.41,957.2
630.542,953.8
630.674,945.9
630.806,937.6
630.938,921.6
631.07,907.8
631.202,895.6
631.334,886.0
631.466,880.8
631.598,877.6
631.73,876.7
631.862,875.3
631.994,874.9
632.126,872.1
632.258,872.9
632.39,872.6
632.522,873.5
632.654,870.8
632.786,870.0
632.918,868.8
633.05,869.8
633.182,869.1
633.314,872.8
633.446,867.9
633.578,864.8
633.71,871.5
633.842,869.4
633.974,869.8
634.106,868.7
634.237,869.9
634.369,867.2
634.501,868.2
634.633,867.8
634.765,866.8
634.897,867.9
635.029,865.5
635.161,866.9
635.293,865.8
635.425,869.1
635.557,867.8
635.689,863.3
635.82,865.7
635.952,870.5
636.084,867.0
636.216,869.3
636.348,871.0
636.48,870.2
636.612,869.4
636.744,873.1
636.875,869.6
637.007,868.4
637.139,870.4
637.271,869.3
637.403,868.0
637.535,868.9
637.667,870.1
637.798,869.1
637.93,870.3
638.062,870.2
638.194,868.8
638.326,871.3
638.458,870.4
638.589,868.1
638.721,869.2
638.853,870.2
638.985,870.6
639.117,872.2
639.248,872.8
639.38,871.0
639.512,872.0
639.644,874.3
639.776,873.0
639.907,873.0
640.039,871.6
640.171,873.7
640.303,871.6
640.435,875.0
640.566,873.2
640.698,873.2
640.83,876.5
640.962,873.0
641.093,874.7
641.225,876.5
641.357,876.4
641.489,876.3
641.62,877.0
641.752,875.8
641.884,878.0
642.016,878.5
642.147,875.5
642.279,876.7
642.411,877.5
642.543,878.2
642.674,878.5
642.806,876.2
642.938,879.0
643.069,878.5
643.201,875.3
643.333,879.1
643.465,876.7
643.596,878.4
643.728,877.5
643.86,878.6
643.991,879.9
644.123,876.6
644.255,877.0
644.386,876.3
644.518,877.9
644.65,877.7
644.781,877.3
644.913,879.4
645.045,878.4
645.176,875.9
645.308,876.7
645.44,880.8
645.571,878.9
645.703,879.4
645.835,875.5
645.966,877.7
646.098,877.1
646.23,878.9
646.361,875.9
646.493,876.8
646.625,878.4
646.756,877.6
646.888,879.6
647.019,880.5
647.151,878.7
647.283,876.6
647.414,879.9
647.546,880.6
647.678,875.9
647.809,875.9
647.941,879.1
648.072,878.3
648.204,879.8
648.336,876.6
648.467,879.6
648.599,876.5
648.73,876.3
648.862,874.9
648.993,875.5
649.125,874.0
649.257,877.2
649.388,877.3
649.52,874.2
649.651,876.2
649.783,874.8
649.914,874.1
650.046,876.0
650.178,874.0
650.309,876.6
650.441,877.6
650.572,875.1
650.704,873.2
650.835,872.5
650.967,873.5
651.098,873.6
651.23,874.9
651.361,876.9
651.493,874.6
651.625,874.6
651.756,874.6
651.888,875.9
652.019,874.5
652.151,873.2
652.282,870.0
652.414,873.6
652.545,874.1
652.677,875.3
652.808,873.7
652.94,872.4
653.071,876.3
653.203,874.8
653.334,873.7
653.466,873.5
653.597,878.7
653.729,874.9
653.86,873.5
653.992,875.3
654.123,874.2
654.255,874.3
654.386,875.1
654.518,872.4
654.649,876.2
654.78,875.4
654.912,875.0
655.043,878.2
655.175,876.6
655.306,876.0
655.438,874.1
655.569,871.3
655.701,877.9
655.832,874.1
655.964,878.2
656.095,876.2
656.226,875.2
656.358,875.4
656.489,873.6
656.621,876.3
656.752,876.3
656.884,876.5
657.015,873.9
657.146,874.5
657.278,878.7
657.409,872.7
657.541,873.8
657.672,875.3
657.804,878.7
657.935,877.2
658.066,878.8
658.198,877.6
658.329,877.0
658.461,874.6
658.592,874.9
658.723,875.3
658.855,873.6
658.986,877.4
659.118,875.6
659.249,879.4
659.38,877.0
659.512,874.7
659.643,876.1
659.774,876.2
659.906,876.9
660.037,875.7
660.169,871.7
660.3,876.2
660.431,874.7
660.563,872.6
660.694,874.8
660.825,873.4
660.957,874.9
661.088,870.6
661.22,874.7
661.351,871.9
661.482,873.4
661.614,871.6
661.745,872.8
661.876,873.3
662.008,871.0
662.139,869.0
662.27,868.3
662.402,870.0
662.533,866.9
662.664,866.9
662.796,867.5
662.927,864.8
663.058,867.3