File: spectra/VLFR_01-LDPE_nobio_Raman_e7b0b448.csv
nm,Intensity
528.65,1836.25
528.819,1837.2
528.987,1837.05
529.155,1837.2
529.324,1836.1
529.492,1836.95
529.66,1837.55
529.829,1838.35
529.997,1837.1
530.165,1837.65
530.334,1837.3
530.502,1837.55
530.67,1837.2
530.839,1838.55
531.007,1837.7
531.175,1839.25
531.344,1839.9
531.512,1841.55
531.68,1852.85
531.848,2054.95
532.017,2814.05
532.185,2451.45
532.353,1874.4
532.521,1837.75
532.69,1839.3
532.858,1838.75
533.026,1839.55
533.194,1838.55
533.363,1841.55
533.531,1848.75
533.699,1901.5
533.867,1990.0
534.036,2034.9
534.204,2037.55
534.372,2027.2
534.54,2020.1
534.708,2027.85
534.877,2017.3
535.045,2018.45
535.213,2008.7
535.381,2002.0
535.549,1993.5
535.717,1988.9
535.886,1975.65
536.054,1971.6
536.222,1970.7
536.39,1963.5
536.558,1964.15
536.726,1952.4
536.894,1953.85
537.062,1955.1
537.231,1958.75
537.399,1960.45
537.567,1965.5
537.735,1965.1
537.903,1959.0
538.071,1957.75
538.239,1953.65
538.407,1957.15
538.575,1954.2
538.743,1951.5
538.911,1947.75
539.079,1948.7
539.247,1932.45
539.415,1944.2
539.583,1940.15
539.751,1942.6
539.919,1943.3
540.087,1941.85
540.255,1940.1
540.423,1935.0
540.591,1937.1
540.759,1939.55
540.927,1937.65
541.095,1937.8
541.263,1938.35
541.431,1935.2
541.599,1936.05
541.767,1937.85
541.935,1941.85
542.103,1933.8
542.271,1938.0
542.439,1939.15
542.607,1937.65
542.775,1935.75
542.943,1933.95
543.111,1940.1
543.279,1936.3
543.446,1935.55
543.614,1934.6
543.782,1937.3
543.95,1943.35
544.118,1939.85
544.286,1934.25
544.454,1933.5
544.622,1927.05
544.789,1934.95
544.957,1939.9
545.125,1936.2
545.293,1935.75
545.461,1933.6
545.629,1931.0
545.796,1930.95
545.964,1938.4
546.132,1931.35
546.3,1933.45
546.468,1930.8
546.635,1935.0
546.803,1937.45
546.971,1934.0
547.139,1936.2
547.306,1933.6
547.474,1936.05
547.642,1933.9
547.81,1936.35
547.977,1934.85
548.145,1937.45
548.313,1935.85
548.481,1934.45
548.648,1932.85
548.816,1929.75
548.984,1935.5
549.151,1931.05
549.319,1932.35
549.487,1932.7
549.655,1930.45
549.822,1930.05
549.99,1934.45
550.158,1929.3
550.325,1930.5
550.493,1932.85
550.66,1930.95
550.828,1933.4
550.996,1930.85
551.163,1929.75
551.331,1933.5
551.499,1928.25
551.666,1937.25
551.834,1939.4
552.001,1937.35
552.169,1940.2
552.337,1938.1
552.504,1937.55
552.672,1936.1
552.839,1934.45
553.007,1942.25
553.174,1940.8
553.342,1950.15
553.509,1943.85
553.677,1947.4
553.844,1947.4
554.012,1946.3
554.179,1951.6
554.347,1946.5
554.514,1957.65
554.682,1954.8
554.849,1953.85
555.017,1954.6
555.184,1955.65
555.352,1950.05
555.519,1960.5
555.687,1959.7
555.854,1958.3
556.022,1956.55
556.189,1963.25
556.357,1957.55
556.524,1969.65
556.691,1960.45
556.859,1967.55
557.026,1969.4
557.194,1975.8
557.361,1980.6
557.528,1976.75
557.696,1980.75
557.863,1981.6
558.031,1987.4
558.198,1988.55
558.365,1988.75
558.533,1982.65
558.7,1984.2
558.867,1989.9
559.035,1979.2
559.202,1977.55
559.369,1978.5
559.537,1975.0
559.704,1975.3
559.871,1969.35
560.038,1972.45
560.206,1967.75
560.373,1977.05
560.54,1974.5
560.708,1976.05
560.875,1975.55
561.042,1975.85
561.209,1980.15
561.377,1974.0
561.544,1976.6
561.711,1986.35
561.878,1976.95
562.045,1982.05
562.213,1985.45
562.38,1990.35
562.547,1992.7
562.714,2001.05
562.881,1994.2
563.049,2005.35
563.216,2014.3
563.383,2013.25
563.55,2028.75
563.717,2082.45
563.884,2193.15
564.052,2278.95
564.219,2179.45
564.386,2090.2
564.553,2075.55
564.72,2075.3
564.887,2056.05
565.054,2049.05
565.221,2037.55
565.388,2029.7
565.556,2043.55
565.723,2067.6
565.89,2135.8
566.057,2275.05
566.224,2262.0
566.391,2128.65
566.558,2053.7
566.725,2049.95
566.892,2032.45
567.059,2029.9
567.226,2038.75
567.393,2054.0
567.56,2048.4
567.727,2029.95
567.894,2020.85
568.061,2019.2
568.228,2015.1
568.395,2026.6
568.562,2020.95
568.729,2024.15
568.896,2020.95
569.063,2028.55
569.23,2025.9
569.396,2027.8
569.563,2035.4
569.73,2029.95
569.897,2042.25
570.064,2049.25
570.231,2053.55
570.398,2056.15
570.565,2066.65
570.732,2071.0
570.898,2077.95
571.065,2098.9
571.232,2200.15
571.399,2392.7
571.566,2537.65
571.733,2339.35
571.9,2203.9
572.066,2172.2
572.233,2149.9
572.4,2138.95
572.567,2117.1
572.734,2116.75
572.9,2103.95
573.067,2110.7
573.234,2107.35
573.401,2112.95
573.567,2119.05
573.734,2128.65
573.901,2148.85
574.068,2149.85
574.234,2147.35
574.401,2136.8
574.568,2141.05
574.734,2148.0
574.901,2151.4
575.068,2167.65
575.235,2203.7
575.401,2279.6
575.568,2345.45
575.735,2345.45
575.901,2399.7
576.068,2527.95
576.235,2649.75
576.401,2623.55
576.568,2561.1
576.734,2529.65
576.901,2521.75
577.068,2531.6
577.234,2473.05
577.401,2401.0
577.567,2364.5
577.734,2353.3
577.901,2360.85
578.067,2363.65
578.234,2358.4
578.4,2374.25
578.567,2397.65
578.733,2411.65
578.9,2424.35
579.066,2444.1
579.233,2432.95
579.399,2467.55
579.566,2487.15
579.732,2501.15
579.899,2526.5
580.065,2533.15
580.232,2526.45
580.398,2569.7
580.565,2574.35
580.731,2591.5
580.898,2621.35
581.064,2638.3
581.231,2622.9
581.397,2675.6
581.563,2668.85
581.73,2698.3
581.896,2667.1
582.063,2706.45
582.229,2725.05
582.395,2768.45
582.562,2730.05
582.728,2747.25
582.895,2774.8
583.061,2811.3
583.227,2812.35
583.394,2805.25
583.56,2859.5
583.726,2819.5
583.893,2877.55
584.059,2896.7
584.225,2862.85
584.391,2854.15
584.558,2906.35
584.724,2927.1
584.89,2934.8
585.057,2924.3
585.223,2947.3
585.389,2999.75
585.555,2975.2
585.722,2948.8
585.888,3008.65
586.054,3029.65
586.22,3006.25
586.386,3053.2
586.553,3060.55
586.719,3094.7
586.885,3085.8
587.051,3105.8
587.217,3124.5
587.384,3173.9
587.55,3184.45
587.716,3239.55
587.882,3248.9
588.048,3168.45
588.214,3276.75
588.38,3258.8
588.546,3283.95
588.713,3279.25
588.879,3293.75
589.045,3343.3
589.211,3367.35
589.377,3370.35
589.543,3349.25
589.709,3321.4
589.875,3423.65
590.041,3401.9
590.207,3420.35
590.373,3509.9
590.539,3463.2
590.705,3482.4
590.871,3481.7
591.037,3464.4
591.203,3575.25
591.369,3599.15
591.535,3533.9
591.701,3580.75
591.867,3647.95
592.033,3614.25
592.199,3604.95
592.365,3635.85
592.531,3688.5
592.697,3623.65
592.863,3680.2
593.029,3687.35
593.195,3688.05
593.361,3665.3
593.526,3659.9
593.692,3731.3
593.858,3723.15
594.024,3745.85
594.19,3757.8
594.356,3735.65
594.522,3720.75
594.687,3775.05
594.853,3798.85
595.019,3811.15
595.185,3823.4
595.351,3874.9
595.516,3826.55
595.682,3880.5
595.848,3901.6
596.014,3942.55
596.18,3977.6
596.345,3979.4
596.511,3996.3
596.677,3974.25
596.843,4019.4
597.008,4045.4
597.174,4127.6
597.34,4136.5
597.505,4113.3
597.671,4133.85
597.837,4181.15
598.002,4089.6
598.168,4171.65
598.334,4254.6
598.499,4244.7
598.665,4261.7
598.831,4273.2
598.996,4353.15
599.162,4379.75
599.328,4360.5
599.493,4278.05
599.659,4373.6
599.824,4391.9
599.99,4402.85
600.156,4466.85
600.321,4496.2
600.487,4462.9
600.652,4380.85
600.818,4468.25
600.983,4446.15
601.149,4543.7
601.314,4424.65
601.48,4435.9
601.645,4444.55
601.811,4477.45
601.976,4436.55
602.142,4434.65
602.307,4372.5
602.473,4404.9
602.638,4329.0
602.804,4322.6
602.969,4268.95
603.135,4293.15
603.3,4300.1
603.466,4246.4
603.631,4262.95
603.796,4181.25
603.962,4158.55
604.127,4178.6
604.293,4107.8
604.458,4083.8
604.623,4026.45
604.789,4037.3
604.954,4018.0
605.119,3961.15
605.285,3928.55
605.45,3904.2
605.615,3899.7
605.781,3844.2
605.946,3798.0
606.111,3793.25
606.277,3803.15
606.442,3735.15
606.607,3688.8
606.772,3692.85
606.938,3685.25
607.103,3641.4
607.268,3631.45
607.433,3612.2
607.599,3494.35
607.764,3557.65
607.929,3553.35
608.094,3503.95
608.259,3457.7
608.425,3487.85
608.59,3431.65
608.755,3419.4
608.92,3393.35
609.085,3394.5
609.25,3383.6
609.415,3356.9
609.581,3327.7
609.746,3332.8
609.911,3327.25
610.076,3289.0
610.241,3255.85
610.406,3284.05
610.571,3320.05
610.736,3233.0
610.901,3287.35
611.066,3256.35
611.231,3206.95
611.396,3203.1
611.561,3211.05
611.727,3211.45
611.892,3154.7
612.057,3151.85
612.222,3164.7
612.386,3153.25
612.551,3120.7
612.716,3138.25
612.881,3114.6
613.046,3082.6
613.211,3092.6
613.376,3110.4
613.541,3065.2
613.706,3054.45
613.871,3075.2
614.036,3014.65
614.201,3029.7
614.366,3027.8
614.531,3006.15
614.695,3010.1
614.86,3006.5
615.025,3006.15
615.19,2972.6
615.355,2972.5
615.52,2970.2
615.684,2949.0
615.849,2939.0
616.014,2941.15
616.179,2911.4
616.344,2921.65
616.508,2908.35
616.673,2909.65
616.838,2896.05
617.003,2882.7
617.168,2891.3
617.332,2902.1
617.497,2898.85
617.662,2886.2
617.826,2895.15
617.991,2854.3
618.156,2863.5
618.32,2861.1
618.485,2851.5
618.65,2828.7
618.814,2871.15
618.979,2822.85
619.144,2844.4
619.308,2830.25
619.473,2831.15
619.638,2798.8
619.802,2807.7
619.967,2835.5
620.131,2808.3
620.296,2771.0
620.461,2832.1
620.625,2796.8
620.79,2815.55
620.954,2822.0
621.119,2832.4
621.283,2801.7
621.448,2876.8
621.612,2843.65
621.777,2907.3
621.941,2862.65
622.106,2915.75
622.27,2894.4
622.435,2912.95
622.599,2859.25
622.764,2818.7
622.928,2786.15
623.093,2790.85
623.257,2751.9
623.422,2744.55
623.586,2768.9
623.75,2725.7
623.915,2704.1
624.079,2717.8
624.244,2752.95
624.408,2757.45
624.572,2732.7
624.737,2705.4
624.901,2707.6
625.065,2731.4
625.23,2713.5
625.394,2744.55
625.558,2737.6
625.723,2746.5
625.887,2752.5
626.051,2785.95
626.215,2813.2
626.38,2922.5
626.544,3126.05
626.708,3551.95
626.872,4178.8
627.037,4940.7
627.201,5147.7
627.365,5117.7
627.529,4753.2
627.693,4344.6
627.858,4239.9
628.022,4279.95
628.186,4397.5
628.35,4927.5
628.514,5419.1
628.678,5018.7
628.843,4573.4
629.007,4383.15
629.171,4281.95
629.335,4192.6
629.499,3993.15
629.663,3899.7
629.827,3836.9
629.991,3714.2
630.155,3697.05
630.319,3671.7
630.483,3599.9
630.647,3530.8
630.812,3361.6
630.976,3152.3
631.14,3021.3
631.304,2962.2
631.468,2872.7
631.632,2842.25
631.796,2842.85
631.959,2787.0
632.123,2783.55
632.287,2729.95
632.451,2762.5
632.615,2764.7
632.779,2738.85
632.943,2735.25
633.107,2750.2
633.271,2734.9
633.435,2706.8
633.599,2711.4
633.763,2714.95
633.926,2773.8
634.09,2714.85
634.254,2719.1
634.418,2723.7
634.582,2719.8
634.746,2730.05
634.909,2731.0
635.073,2677.6
635.237,2731.85
635.401,2749.6
635.564,2715.9
635.728,2727.15
635.892,2699.2
636.056,2737.1
636.219,2718.5
636.383,2719.95
636.547,2720.1
636.711,2744.15
636.874,2729.85
637.038,2774.55
637.202,2742.25
637.365,2729.5
637.529,2739.05
637.693,2767.0
637.856,2747.0
638.02,2725.75
638.184,2767.9
638.347,2760.9
638.511,2778.25
638.674,2778.55
638.838,2766.2
639.002,2758.65
639.165,2793.05
639.329,2794.6
639.492,2801.15
639.656,2768.25
639.819,2774.55
639.983,2764.4
640.146,2823.05
640.31,2835.45
640.473,2810.7
640.637,2808.2
640.8,2818.2
640.964,2777.65
641.127,2797.8
641.291,2825.1
641.454,2840.15
641.618,2821.9
641.781,2835.55
641.944,2810.0
642.108,2836.9
642.271,2835.85
642.435,2859.85
642.598,2873.9
642.761,2843.7
642.925,2857.65
643.088,2836.7
643.251,2846.7
643.415,2851.3
643.578,2869.15
643.741,2860.85
643.905,2909.6
644.068,2897.05
644.231,2881.9
644.394,2902.0
644.558,2894.15
644.721,2896.45
644.884,2899.3
645.047,2874.9
645.211,2915.15
645.374,2883.9
645.537,2916.2
645.7,2901.45
645.863,2851.35
646.027,2892.2
646.19,2880.6
646.353,2916.9
646.516,2882.55
646.679,2897.6
646.842,2867.2
647.005,2883.1
647.169,2886.1
647.332,2901.3
647.495,2897.15
647.658,2874.8
647.821,2886.4
647.984,2909.1
648.147,2884.15
648.31,2864.45
648.473,2855.95
648.636,2884.65
648.799,2884.15
648.962,2868.25
649.125,2874.3
649.288,2900.7
649.451,2855.6
649.614,2894.85
649.777,2855.45
649.94,2900.75
650.103,2875.85
650.266,2845.2
650.429,2902.1
650.592,2900.05
650.755,2872.2
650.918,2894.5
651.08,2912.7
651.243,2885.45
651.406,2900.9
651.569,2841.35
651.732,2872.4
651.895,2860.05
652.058,2884.0
652.22,2856.35
652.383,2881.05
652.546,2861.0
652.709,2928.55
652.872,2866.3
653.034,2856.0
653.197,2891.8
653.36,2870.1
653.523,2857.35
653.685,2861.55
653.848,2869.2
654.011,2880.6
654.173,2849.95
654.336,2830.15
654.499,2827.5
654.662,2839.85
654.824,2827.1
654.987,2820.75
655.149,2813.5
655.312,2866.7
655.475,2810.45
655.637,2826.8
655.8,2812.9
655.963,2831.15
656.125,2806.4
656.288,2794.4
656.45,2798.25
656.613,2780.6
656.775,2778.15
656.938,2780.5
657.1,2772.6
657.263,2733.95
657.425,2745.6
657.588,2722.55
657.75,2733.05
657.913,2752.85
658.075,2686.35
658.238,2708.35
658.4,2682.2
658.563,2677.75
658.725,2648.4
658.888,2672.9
659.05,2657.85
659.212,2651.85
659.375,2625.2
659.537,2597.85
659.7,2617.9
659.862,2605.5
660.024,2595.95
660.187,2546.45
660.349,2559.0
660.511,2575.4
660.674,2563.0
660.836,2517.8
660.998,2503.2
661.079,2512.1