File: spectra/VLFR_07-PET_nobio_Raman_17852a75.csv
nm,Intensity
791.75,14958.9
792.024,14588.3
792.298,14400.7
792.572,14046.0
792.846,13932.0
793.12,13897.2
793.394,13515.6
793.668,13436.2
793.942,13087.0
794.215,13118.2
794.489,13029.8
794.763,12902.7
795.037,13076.7
795.311,12990.0
795.585,12913.5
795.859,12777.1
796.133,12823.3
796.407,12866.6
796.681,12965.3
796.955,13030.4
797.228,12991.1
797.502,12772.3
797.776,12709.9
798.05,12734.7
798.324,12784.5
798.598,12708.8
798.871,12697.8
799.145,12819.1
799.419,12624.9
799.693,12643.9
799.967,12698.1
800.241,12877.9
800.514,12737.3
800.788,12920.1
801.062,12840.8
801.336,12859.0
801.61,12814.2
801.883,12780.4
802.157,12746.9
802.431,12667.5
802.705,12437.7
802.978,12435.3
803.252,12428.4
803.526,12626.9
803.8,12428.2
804.073,12440.7
804.347,12404.7
804.621,12275.5
804.894,12205.2
805.168,12252.0
805.442,12160.6
805.715,12242.1
805.989,12065.3
806.263,11983.7
806.536,12020.3
806.81,12073.1
807.084,12045.9
807.357,12071.0
807.631,11919.2
807.905,11804.5
808.178,12032.4
808.452,11888.9
808.726,11842.5
808.999,11809.1
809.273,11876.2
809.546,11798.2
809.82,11771.2
810.094,11541.8
810.367,11625.8
810.641,11688.9
810.914,11680.9
811.188,11657.5
811.461,11520.6
811.735,11455.4
812.008,11611.7
812.282,11444.5
812.556,11422.5
812.829,11514.1
813.103,11472.1
813.376,11273.2
813.65,11336.0
813.923,11237.4
814.197,11173.6
814.47,11256.3
814.744,11226.8
815.017,11170.1
815.29,11078.8
815.564,11120.0
815.837,10964.7
816.111,11126.8
816.384,11023.8
816.658,10862.4
816.931,10820.9
817.205,10902.8
817.478,10842.1
817.751,10863.4
818.025,10857.4
818.298,10702.6
818.572,10748.0
818.845,10701.9
819.118,10596.1
819.392,10716.1
819.665,10719.5
819.938,10771.2
820.212,10496.8
820.485,10448.0
820.758,10469.7
821.032,10564.9
821.305,10593.2
821.578,10517.2
821.852,10388.8
822.125,10353.5
822.398,10461.3
822.672,10297.7
822.945,10116.2
823.218,10213.0
823.491,10249.4
823.765,10216.7
824.038,10294.9
824.311,10242.1
824.585,10187.7
824.858,10106.8
825.131,10358.8
825.404,10608.1
825.677,10482.0
825.951,10520.0
826.224,10238.8
826.497,9998.7
826.77,9999.6
827.043,9965.7
827.317,9940.4
827.59,9868.5
827.863,9817.3
828.136,9682.1
828.409,9880.6
828.682,9953.0
828.956,9879.7
829.229,9921.9
829.502,9696.0
829.775,9675.2
830.048,9838.9
830.321,10096.7
830.594,9933.2
830.867,9724.9
831.14,9647.4
831.413,9612.3
831.687,9700.5
831.96,9662.1
832.233,9545.2
832.506,9519.3
832.779,9664.9
833.052,9544.9
833.325,9468.3
833.598,9483.5
833.871,9491.1
834.144,9391.8
834.417,9425.0
834.69,9384.1
834.963,9396.0
835.236,9414.6
835.509,9281.4
835.782,9377.3
836.055,9318.1
836.328,9409.3
836.601,9462.7
836.874,9401.4
837.147,9409.1
837.419,9445.0
837.692,9402.9
837.965,9377.5
838.238,9504.9
838.511,9376.5
838.784,9257.1
839.057,9244.7
839.33,9236.4
839.603,9159.8
839.876,9300.9
840.148,9478.5
840.421,9568.2
840.694,9497.1
840.967,9500.6
841.24,9678.5
841.513,9666.9
841.785,9441.1
842.058,9242.3
842.331,9152.0
842.604,9191.6
842.877,9238.4
843.149,9178.1
843.422,9142.5
843.695,9014.8
843.968,8870.3
844.24,8819.9
844.513,8870.8
844.786,8859.5
845.059,8742.5
845.331,8660.5
845.604,8601.2
845.877,8683.3
846.15,8608.4
846.422,8535.4
846.695,8487.6
846.968,8561.2
847.24,8543.3
847.513,8403.8
847.786,8425.8
848.058,8472.5
848.331,8505.6
848.604,8429.0
848.876,8377.3
849.149,8364.5
849.421,8385.4
849.694,8426.0
849.967,8343.5
850.239,8301.7
850.512,8276.2
850.784,8261.5
851.057,8255.2
851.33,8377.6
851.602,8341.2
851.875,8340.5
852.147,8294.4
852.42,8330.0
852.692,8364.8
852.965,8258.2
853.237,8280.0
853.51,8198.1
853.782,8146.2
854.055,8190.5
854.327,8170.9
854.6,8132.0
854.872,8023.1
855.145,8048.4
855.417,7989.1
855.69,8091.3
855.962,8061.5
856.235,7880.2
856.507,7937.7
856.779,8002.2
857.052,8082.9
857.324,8044.5
857.597,8010.6
857.869,8046.7
858.142,8147.0
858.414,8161.0
858.686,8149.8
858.959,8166.8
859.231,8213.6
859.503,8183.8
859.776,8134.2
860.048,8111.9
860.32,8116.6
860.593,7991.1
860.865,7914.8
861.137,7872.2
861.41,7846.3
861.682,7777.4
861.954,7868.1
862.226,7732.9
862.499,7678.1
862.771,7651.9
863.043,7655.3
863.315,7627.6
863.588,7643.8
863.86,7801.1
864.132,7829.5
864.404,7761.7
864.677,7762.2
864.949,7737.6
865.221,7709.3
865.493,7756.6
865.765,7659.2
866.038,7542.9
866.31,7460.0
866.582,7456.5
866.854,7410.7
867.126,7400.7
867.398,7461.0
867.67,7452.7
867.943,7502.4
868.215,7492.9
868.487,7528.4
868.759,7463.0
869.031,7409.9
869.303,7391.8
869.575,7429.6
869.847,7418.2
870.119,7469.8
870.391,7560.8
870.663,7637.1
870.935,7735.7
871.207,7838.8
871.479,7820.6
871.751,7860.6
872.023,7757.4
872.295,7745.4
872.567,7885.3
872.839,7909.2
873.111,7917.4
873.383,7789.6
873.655,7641.9
873.927,7594.6
874.199,7620.8
874.471,7536.2
874.743,7450.9
875.015,7376.9
875.287,7312.5
875.559,7275.1
875.831,7239.9
876.103,7228.3
876.374,7215.5
876.646,7205.4
876.918,7189.9
877.19,7203.0
877.462,7150.1
877.734,7127.7
878.006,7126.5
878.277,7222.6
878.549,7189.4
878.821,7112.2
879.093,7097.6
879.365,7045.6
879.636,6976.6
879.908,6906.0
880.18,6926.8
880.452,6948.5
880.723,6981.0
880.995,7007.8
881.267,6971.5
881.539,7048.7
881.81,7014.1
882.082,7011.1
882.354,7019.6
882.626,6956.9
882.897,6861.0
883.169,6867.7
883.441,6938.2
883.712,6900.5
883.984,6881.5
884.256,6950.8
884.527,7059.5
884.799,6992.9
885.07,6926.5
885.342,6976.7
885.614,6923.4
885.885,6790.9
886.157,6725.3
886.428,6692.3
886.7,6698.9
886.972,6749.6
887.243,6754.6
887.515,6685.5
887.786,6627.3
888.058,6635.8
888.329,6679.1
888.601,6657.5
888.872,6644.1
889.144,6577.6
889.415,6621.6
889.687,6626.5
889.958,6657.7
890.23,6653.8
890.501,6578.0
890.773,6561.5
891.044,6563.7
891.316,6550.5
891.587,6579.5
891.859,6556.7
892.13,6479.5
892.401,6513.3
892.673,6504.5
892.944,6454.4
893.216,6424.2
893.487,6397.2
893.758,6392.4
894.03,6375.9
894.301,6400.5
894.572,6396.0
894.844,6406.5
895.115,6387.6
895.386,6377.3
895.658,6371.6
895.929,6400.6
896.2,6446.5
896.472,6476.0
896.743,6551.6
897.014,6615.4
897.285,6765.9
897.557,6974.1
897.828,7221.7
898.099,7307.9
898.37,7212.2
898.642,7013.2
898.913,6883.7
899.184,6716.2
899.455,6533.3
899.726,6353.6
899.998,6255.9
900.269,6204.7
900.54,6147.2
900.811,6114.9
901.082,6051.3
901.353,6082.6
901.625,6096.6
901.896,6092.9
902.167,6065.7
902.438,5990.1
902.709,5983.0
902.98,5992.0
903.251,6007.1
903.522,6000.8
903.793,5929.7
904.064,5972.5
904.335,6035.1
904.606,5982.7
904.877,5977.5
905.148,6046.0
905.419,6065.6
905.69,6144.5
905.961,6214.4
906.232,6297.4
906.503,6406.2
906.774,6510.9
907.045,6536.2
907.316,6550.1
907.587,6571.3
907.858,6559.6
908.129,6427.4
908.4,6254.0
908.671,6181.5
908.942,6123.4
909.213,5989.2
909.484,5935.1
909.755,5806.5
910.025,5779.2
910.296,5814.6
910.567,5754.6
910.838,5686.7
911.109,5656.9
911.38,5638.8
911.65,5599.8
911.921,5621.9
912.192,5620.3
912.463,5567.6
912.734,5568.5
913.004,5567.7
913.275,5601.7
913.546,5509.1
913.817,5470.8
914.087,5473.0
914.358,5453.0
914.629,5487.7
914.9,5496.0
915.17,5480.0
915.441,5425.5
915.712,5424.2
915.982,5427.3
916.253,5414.2
916.524,5398.0
916.794,5382.5
917.065,5382.1
917.336,5379.8
917.606,5384.2
917.877,5375.5
918.147,5361.1
918.418,5325.5
918.689,5315.8
918.959,5339.1
919.23,5310.1
919.5,5274.1
919.771,5286.6
920.042,5291.3
920.312,5302.0
920.583,5247.9
920.853,5188.9
921.124,5190.8
921.394,5171.3
921.665,5188.1
921.935,5180.3
922.206,5162.1
922.476,5156.1
922.747,5173.2
923.017,5161.8
923.287,5150.0
923.558,5133.5
923.828,5130.8
924.099,5109.7
924.369,5112.3
924.639,5099.8
924.91,5080.8
925.18,5084.2
925.451,5072.6
925.721,5047.5
925.991,5037.1
926.262,5034.6
926.532,5035.9
926.802,5044.5
927.073,5017.2
927.343,4984.5
927.613,4980.7
927.884,4949.7
928.154,4955.4
928.424,4911.8
928.694,4923.1
928.965,4909.0
929.235,4929.4
929.505,4909.7
929.775,4903.1
930.046,4905.5
930.316,4871.4
930.586,4855.0
930.856,4861.7
931.126,4879.3
931.397,4869.1
931.667,4836.9
931.937,4826.5
932.207,4795.7
932.477,4805.9
932.747,4786.1
933.017,4789.4
933.288,4798.1
933.558,4779.8
933.828,4751.7
934.098,4765.8
934.368,4744.6
934.638,4743.6
934.908,4739.2
935.178,4738.8
935.448,4705.1
935.718,4666.2
935.988,4665.0
936.258,4665.9
936.528,4672.0
936.798,4672.7
937.068,4667.8
937.338,4684.6
937.608,4650.7
937.878,4641.3
938.148,4649.6
938.418,4644.9
938.688,4616.2
938.958,4605.5
939.228,4621.0
939.498,4591.6
939.767,4588.4
940.037,4603.1
940.307,4622.4
940.577,4624.2
940.847,4592.6
941.117,4588.4
941.387,4559.8
941.656,4538.7
941.926,4518.1
942.196,4514.4
942.466,4523.9
942.736,4523.3
943.005,4509.5
943.275,4496.4
943.545,4490.7
943.815,4498.9
944.084,4469.1
944.354,4477.0
944.624,4489.2
944.894,4469.5
945.163,4472.8
945.433,4465.2
945.703,4466.7
945.972,4454.1
946.242,4454.6
946.512,4465.0
946.781,4452.1
947.051,4429.5
947.321,4409.3
947.59,4385.6
947.86,4379.7
948.13,4380.7
948.399,4380.7
948.669,4379.7
948.938,4379.1
949.208,4376.7
949.477,4391.4
949.747,4388.4
950.016,4403.2
950.286,4389.3
950.556,4364.5
950.825,4330.1
951.095,4329.6
951.364,4327.9
951.634,4342.2
951.903,4318.0
952.172,4316.9
952.442,4328.9
952.711,4321.6
952.981,4311.0
953.25,4299.6
953.52,4317.1
953.789,4314.6
954.058,4287.4
954.328,4292.3
954.597,4283.3
954.867,4282.7
955.136,4286.3
955.405,4261.0
955.675,4263.8
955.944,4249.9
956.213,4245.7
956.483,4236.4
956.752,4244.0
957.021,4242.7
957.29,4245.4
957.56,4248.7
957.829,4238.8
958.098,4228.0
958.367,4216.9
958.637,4218.3
958.906,4199.7
959.175,4187.8
959.444,4196.2
959.714,4206.2
959.983,4205.8
960.252,4203.6
960.521,4188.5
960.79,4180.4
961.059,4183.7
961.328,4182.2
961.598,4181.9
961.867,4180.7
962.136,4169.7
962.405,4160.2
962.674,4144.6
962.943,4134.8
963.212,4147.4
963.481,4152.9
963.75,4145.1
964.019,4153.6
964.288,4140.0
964.557,4139.6
964.826,4136.4
965.095,4137.7
965.364,4118.8
965.633,4123.8
965.902,4118.9
966.171,4105.3
966.44,4088.2
966.709,4096.1
966.978,4092.7
967.247,4092.6
967.516,4085.9
967.785,4083.2
968.054,4090.0
968.323,4089.2
968.591,4095.4
968.86,4087.9
969.129,4093.7
969.398,4071.4
969.667,4079.2
969.936,4077.6
970.204,4061.6
970.473,4059.4
970.742,4049.6
971.011,4055.5
971.28,4044.8
971.548,4048.5
971.817,4052.8
972.086,4048.9
972.355,4038.0
972.623,4031.9
972.892,4043.8
973.161,4034.7
973.429,4040.4
973.698,4029.7
973.967,4027.1
974.235,4027.3
974.504,4021.3
974.773,4010.7
975.041,4040.0
975.31,4033.0
975.579,4012.9
975.847,4015.8
976.116,4000.4
976.384,4003.1
976.653,3992.2
976.922,3995.9
977.19,3998.4
977.459,3996.2
977.727,3987.1
977.996,3977.7
978.264,3973.4
978.533,3972.0
978.801,3982.4
979.07,3973.0
979.338,3975.9
979.607,3974.6
979.875,3975.7
980.143,3974.1
980.412,3969.7
980.68,3971.5
980.949,3961.8
981.217,3959.3
981.486,3963.1
981.754,3953.0
982.022,3959.7
982.291,3959.1
982.559,3951.2
982.827,3946.5
983.096,3950.3
983.364,3946.8
983.632,3947.4
983.901,3945.6
984.169,3943.0
984.437,3946.8
984.705,3940.1
984.974,3935.8
985.242,3931.1
985.51,3930.4
985.778,3922.1
986.047,3924.6
986.315,3922.2
986.583,3909.1
986.851,3918.6
987.119,3925.7
987.388,3915.2
987.656,3906.7
987.924,3915.2
988.192,3917.1
988.46,3910.3
988.728,3912.2
988.996,3897.0
989.264,3907.9
989.533,3900.8
989.801,3903.9
990.069,3902.5
990.337,3908.2
990.605,3894.2
990.873,3887.9
991.141,3891.1
991.409,3888.1
991.677,3881.7
991.945,3878.4
992.213,3886.2
992.481,3879.7
992.749,3880.8
993.017,3884.2
993.285,3878.3
993.553,3871.8
993.82,3871.7
994.088,3866.5
994.356,3859.0
994.624,3866.0
994.892,3869.0
995.16,3867.7
995.428,3869.3
995.696,3869.5
995.963,3870.3
996.231,3865.3
996.499,3863.5
996.767,3854.6
997.035,3848.9
997.302,3855.0
997.57,3851.5
997.838,3853.3
998.106,3850.2
998.373,3847.1
998.641,3851.0
998.909,3843.3
999.177,3839.9
999.444,3840.2
999.712,3844.9
999.98,3844.6
1000.25,3834.2
1000.51,3838.2
1000.78,3838.3
1001.05,3844.2
1001.32,3841.6
1001.59,3836.0
1001.85,3835.2
1002.12,3833.4
1002.39,3830.7
1002.66,3828.8
1002.92,3824.5
1003.19,3824.1
1003.46,3825.2
1003.73,3824.0
1003.99,3826.1
1004.26,3822.0
1004.53,3821.0
1004.8,3819.9
1005.06,3818.8
1005.33,3815.4
1005.6,3819.5
1005.87,3813.1
1006.13,3810.7
1006.4,3813.7
1006.67,3816.1
1006.94,3811.2
1007.2,3816.6
1007.47,3811.0
1007.74,3807.4
1008.0,3801.2
1008.27,3802.3
1008.54,3805.4
1008.81,3804.7
1009.07,3797.3
1009.34,3798.7
1009.61,3794.4
1009.88,3797.3
1010.14,3797.5
1010.41,3799.0
1010.68,3803.2
1010.95,3798.0
1011.21,3792.0
1011.48,3795.1
1011.75,3791.3
1012.01,3792.8
1012.28,3788.9
1012.55,3789.1
1012.82,3791.4
1013.08,3788.3
1013.35,3787.1
1013.62,3784.6
1013.88,3788.8
1014.15,3787.4
1014.42,3787.1
1014.69,3788.7
1014.95,3783.7
1015.22,3783.3
1015.49,3785.4
1015.75,3783.6
1016.02,3784.4
1016.29,3787.2
1016.55,3785.9
1016.82,3782.3
1017.09,3778.4
1017.36,3777.5
1017.62,3776.2
1017.89,3777.6
1018.16,3779.4
1018.42,3777.5
1018.69,3776.4
1018.96,3775.1
1019.22,3777.4
1019.49,3773.4
1019.76,3774.7
1020.02,3777.2
1020.29,3773.3
1020.56,3778.6
1020.83,3778.4
1021.09,3780.4
1021.36,3779.7
1021.63,3782.1
1021.89,3784.8
1022.16,3781.0
1022.43,3783.9
1022.69,3782.0
1022.96,3783.9
1023.23,3776.5
1023.49,3773.5
1023.76,3775.2
1024.03,3770.7
1024.29,3770.0
1024.56,3761.6
1024.83,3767.4
1025.09,3768.1
1025.36,3763.1
1025.63,3760.5
1025.89,3760.6
1026.16,3758.8
1026.43,3762.7
1026.69,3762.3
1026.96,3756.4
1027.23,3754.7
1027.49,3754.9
1027.76,3756.2
1028.03,3754.3
1028.29,3752.3
1028.56,3750.5
1028.83,3751.3
1029.09,3748.8
1029.36,3747.2
1029.62,3748.2
1029.89,3745.7
1030.16,3743.6
1030.42,3745.4
1030.69,3742.1
1030.96,3740.8
1031.22,3745.5
1031.49,3741.1
1031.76,3745.2
1032.02,3745.6
1032.29,3744.6
1032.56,3744.4
1032.82,3743.6
1033.09,3746.5
1033.35,3745.2
1033.62,3748.3
1033.89,3749.1
1034.15,3751.9
1034.42,3751.3
1034.69,3752.3
1034.95,3747.6
1035.22,3749.5
1035.48,3746.9
1035.75,3742.8
1036.02,3744.5
1036.28,3743.3
1036.55,3741.2
1036.81,3739.4
1037.08,3739.3
1037.35,3738.2
1037.61,3736.6
1037.88,3734.2
1038.15,3732.3
1038.41,3733.3
1038.68,3730.1
1038.94,3730.6
1039.21,3728.9
1039.48,3732.3
1039.74,3730.9
1040.01,3731.1
1040.27,3727.9
1040.54,3728.0
1040.81,3727.8
1041.07,3730.3
1041.34,3728.4
1041.6,3726.3
1041.87,3726.6
1042.14,3727.3
1042.4,3725.7
1042.67,3725.5
1042.93,3726.9
1043.2,3724.3
1043.47,3725.4
1043.73,3727.4
1044.0,3726.2
1044.26,3725.8
1044.53,3723.5
1044.79,3723.1
1045.06,3725.1
1045.33,3721.5
1045.59,3722.8
1045.86,3723.9
1046.12,3722.3
1046.39,3722.1
1046.65,3724.5
1046.92,3723.7
1047.19,3722.5
1047.45,3721.8
1047.72,3721.6
1047.98,3722.4
1048.25,3720.8
1048.51,3719.9
1048.78,3719.1
1049.05,3721.9
1049.31,3722.3
1049.58,3719.0
1049.84,3721.0
1050.11,3718.3
1050.37,3721.3
1050.64,3717.9
1050.91,3723.1
1051.17,3717.6
1051.44,3719.4
1051.7,3719.8
1051.97,3719.6
1052.23,3717.9
1052.5,3720.3
1052.76,3721.0
1053.03,3721.7
1053.29,3718.0
1053.56,3719.3
1053.83,3719.1
1054.09,3717.9
1054.36,3717.6
1054.62,3719.7
1054.89,3718.2
1055.15,3720.8
1055.42,3717.4
1055.68,3717.8
1055.95,3719.2
1056.21,3719.4
1056.48,3718.7
1056.74,3715.7
1057.01,3719.5
1057.27,3718.0
1057.54,3718.5
1057.81,3715.6
1058.07,3716.5
1058.34,3719.4
1058.6,3716.4
1058.87,3717.1
1059.13,3717.0
1059.4,3717.8
1059.66,3715.8
1059.93,3715.0
1060.19,3717.1
1060.46,3719.1
1060.72,3716.9
1060.99,3717.5
1061.25,3717.2
1061.52,3716.6
1061.78,3717.1
1062.05,3715.7
1062.31,3715.6
1062.58,3715.9
1062.84,3715.5
1063.11,3715.9
1063.37,3715.8
1063.64,3715.8
1063.9,3716.1
1064.17,3716.2
1064.43,3716.8
1064.7,3715.5
1064.96,3715.5
1065.23,3714.8
1065.49,3715.9
1065.76,3713.2
1066.02,3714.7
1066.29,3714.1
1066.55,3714.8
1066.82,3712.0
1067.08,3715.8
1067.35,3712.3
1067.61,3713.9
1067.88,3714.0