File: spectra/VLFR_08-PLA_bio_Raman_c6f799d1.csv
nm,Intensity
528.626,1862.4
528.795,1861.9
528.963,1865.5
529.132,1864.2
529.3,1862.8
529.469,1861.7
529.637,1863.8
529.806,1864.3
529.974,1864.1
530.143,1864.4
530.311,1865.5
530.48,1866.0
530.648,1865.9
530.816,1863.6
530.985,1864.1
531.153,1868.4
531.322,1869.9
531.49,1877.0
531.658,1909.9
531.827,2418.6
531.995,5084.7
532.164,4639.2
532.332,2258.0
532.5,1872.5
532.669,1867.5
532.837,1864.5
533.006,1868.4
533.174,1866.5
533.342,1871.2
533.511,1905.3
533.679,2156.8
533.847,2620.5
534.016,2977.6
534.184,2986.8
534.352,2982.5
534.521,3010.4
534.689,3065.2
534.857,3096.2
535.025,3111.0
535.194,3112.8
535.362,3123.7
535.53,3215.6
535.699,3159.9
535.867,3109.2
536.035,3156.9
536.203,3144.3
536.372,3199.5
536.54,3194.5
536.708,3218.8
536.876,3187.0
537.044,3242.5
537.213,3287.8
537.381,3284.4
537.549,3346.7
537.717,3374.8
537.885,3360.8
538.054,3317.9
538.222,3309.2
538.39,3279.6
538.558,3300.8
538.726,3350.2
538.894,3337.0
539.063,3363.7
539.231,3377.3
539.399,3416.5
539.567,3374.2
539.735,3412.8
539.903,3403.2
540.071,3424.0
540.239,3435.2
540.408,3440.9
540.576,3449.4
540.744,3456.2
540.912,3433.7
541.08,3478.4
541.248,3517.4
541.416,3512.7
541.584,3539.3
541.752,3577.1
541.92,3507.2
542.088,3531.7
542.256,3605.8
542.424,3638.2
542.592,3628.7
542.76,3570.8
542.928,3611.1
543.096,3623.2
543.264,3632.4
543.432,3669.0
543.6,3651.5
543.768,3650.8
543.936,3728.5
544.104,3696.9
544.272,3716.0
544.44,3682.1
544.608,3709.5
544.776,3785.7
544.944,3742.5
545.112,3788.8
545.28,3784.9
545.448,3776.7
545.616,3807.9
545.784,3816.3
545.951,3830.4
546.119,3837.4
546.287,3809.0
546.455,3890.9
546.623,3903.7
546.791,3884.2
546.959,3888.9
547.127,3914.1
547.294,3940.6
547.462,3903.6
547.63,3907.0
547.798,3949.6
547.966,4010.6
548.134,3971.0
548.301,3990.6
548.469,4005.2
548.637,4095.4
548.805,4109.2
548.972,4072.2
549.14,4055.9
549.308,4078.1
549.476,4214.9
549.644,4078.0
549.811,4044.0
549.979,4145.2
550.147,4084.5
550.315,4250.9
550.482,4124.0
550.65,4159.8
550.818,4215.3
550.985,4172.2
551.153,4242.3
551.321,4234.6
551.488,4293.2
551.656,4301.0
551.824,4303.6
551.991,4321.7
552.159,4286.4
552.327,4302.7
552.494,4301.5
552.662,4303.3
552.83,4294.9
552.997,4320.6
553.165,4337.5
553.333,4296.3
553.5,4341.1
553.668,4327.1
553.835,4441.6
554.003,4355.9
554.171,4449.5
554.338,4456.1
554.506,4403.3
554.673,4453.8
554.841,4502.5
555.008,4443.8
555.176,4500.9
555.343,4508.2
555.511,4494.8
555.679,4503.3
555.846,4509.6
556.014,4495.7
556.181,4524.3
556.349,4528.4
556.516,4625.2
556.684,4507.0
556.851,4526.7
557.018,4472.7
557.186,4493.9
557.353,4577.9
557.521,4586.0
557.688,4622.6
557.856,4637.6
558.023,4672.3
558.191,4612.8
558.358,4575.9
558.525,4616.8
558.693,4584.2
558.86,4594.0
559.028,4656.4
559.195,4641.1
559.362,4664.2
559.53,4654.9
559.697,4608.4
559.864,4669.5
560.032,4659.9
560.199,4677.4
560.366,4752.8
560.534,4682.8
560.701,4740.9
560.868,4796.0
561.036,4817.4
561.203,4805.4
561.37,4841.4
561.538,5008.3
561.705,4856.1
561.872,4830.8
562.039,4879.9
562.207,4814.7
562.374,4854.3
562.541,4870.2
562.708,4773.7
562.876,4852.2
563.043,4887.0
563.21,4934.8
563.377,4896.0
563.545,4918.9
563.712,4865.8
563.879,4864.2
564.046,4952.7
564.213,4891.5
564.38,4901.1
564.548,5009.4
564.715,5042.9
564.882,4985.9
565.049,5009.9
565.216,5009.8
565.383,4976.8
565.551,4935.5
565.718,5000.5
565.885,5049.4
566.052,5012.1
566.219,5005.0
566.386,5118.2
566.553,5057.9
566.72,4966.0
566.887,5095.8
567.054,5099.2
567.221,5100.2
567.388,5138.3
567.555,4989.7
567.722,5112.5
567.889,5095.2
568.057,5150.7
568.224,5221.0
568.391,5250.2
568.558,5159.6
568.725,5169.1
568.892,5166.0
569.058,5282.7
569.225,5237.4
569.392,5203.4
569.559,5349.9
569.726,5218.2
569.893,5213.7
570.06,5260.2
570.227,5323.7
570.394,5243.8
570.561,5225.2
570.728,5231.1
570.895,5325.5
571.062,5296.2
571.229,5357.5
571.395,5387.7
571.562,5292.9
571.729,5368.3
571.896,5445.6
572.063,5323.5
572.23,5446.3
572.397,5416.8
572.563,5489.4
572.73,5476.1
572.897,5417.7
573.064,5529.5
573.231,5403.5
573.397,5381.2
573.564,5577.0
573.731,5471.2
573.898,5432.4
574.064,5450.6
574.231,5620.9
574.398,5458.9
574.565,5388.5
574.731,5534.3
574.898,5544.1
575.065,5443.1
575.232,5466.2
575.398,5548.0
575.565,5474.5
575.732,5597.8
575.898,5633.6
576.065,5583.1
576.232,5534.8
576.398,5617.5
576.565,5571.1
576.732,5623.4
576.898,5661.6
577.065,5539.5
577.232,5590.1
577.398,5505.8
577.565,5568.4
577.731,5574.0
577.898,5693.6
578.065,5556.9
578.231,5435.3
578.398,5602.9
578.564,5555.4
578.731,5626.3
578.897,5667.3
579.064,5585.6
579.23,5638.3
579.397,5710.7
579.563,5574.2
579.73,5750.6
579.896,5748.1
580.063,5717.4
580.229,5637.9
580.396,5627.2
580.562,5671.3
580.729,5826.9
580.895,5688.6
581.062,5707.2
581.228,5620.9
581.395,5696.4
581.561,5675.9
581.728,5613.4
581.894,5799.6
582.06,5660.2
582.227,5688.7
582.393,5605.7
582.56,5646.4
582.726,5693.4
582.892,5541.2
583.059,5557.2
583.225,5623.0
583.391,5684.5
583.558,5600.9
583.724,5588.7
583.89,5618.4
584.057,5652.8
584.223,5564.1
584.389,5694.3
584.556,5505.7
584.722,5636.4
584.888,5498.2
585.054,5584.4
585.221,5597.3
585.387,5525.8
585.553,5500.0
585.719,5483.0
585.886,5466.4
586.052,5593.7
586.218,5632.5
586.384,5548.0
586.55,5502.4
586.717,5579.3
586.883,5592.4
587.049,5617.7
587.215,5542.6
587.381,5561.8
587.548,5628.5
587.714,5615.1
587.88,5631.0
588.046,5565.0
588.212,5476.4
588.378,5601.2
588.544,5558.8
588.71,5567.6
588.876,5561.0
589.043,5501.4
589.209,5535.9
589.375,5422.0
589.541,5559.9
589.707,5612.6
589.873,5520.5
590.039,5561.8
590.205,5557.0
590.371,5451.8
590.537,5634.8
590.703,5490.2
590.869,5559.2
591.035,5546.2
591.201,5591.3
591.367,5479.1
591.533,5622.6
591.699,5553.5
591.865,5569.2
592.031,5637.9
592.197,5677.6
592.363,5567.4
592.529,5483.6
592.694,5485.3
592.86,5559.1
593.026,5517.8
593.192,5483.0
593.358,5475.0
593.524,5621.6
593.69,5543.5
593.856,5509.9
594.021,5509.6
594.187,5517.2
594.353,5575.0
594.519,5383.4
594.685,5576.2
594.851,5470.9
595.016,5498.5
595.182,5539.7
595.348,5520.2
595.514,5487.6
595.68,5564.8
595.845,5561.6
596.011,5617.1
596.177,5568.7
596.342,5549.3
596.508,5613.1
596.674,5591.1
596.84,5595.3
597.005,5595.9
597.171,5607.9
597.337,5555.1
597.502,5604.0
597.668,5475.2
597.834,5563.7
597.999,5695.7
598.165,5358.4
598.331,5547.7
598.496,5586.2
598.662,5502.9
598.828,5498.5
598.993,5543.0
599.159,5611.0
599.324,5594.0
599.49,5537.4
599.656,5517.0
599.821,5532.4
599.987,5697.1
600.152,5652.7
600.318,5586.3
600.483,5433.8
600.649,5607.1
600.814,5576.4
600.98,5577.0
601.145,5561.6
601.311,5538.9
601.476,5585.6
601.642,5583.6
601.807,5564.8
601.973,5525.2
602.138,5615.9
602.304,5513.0
602.469,5584.9
602.635,5559.0
602.8,5656.1
602.965,5558.9
603.131,5580.5
603.296,5567.5
603.462,5599.2
603.627,5538.1
603.792,5532.2
603.958,5578.1
604.123,5567.6
604.288,5659.3
604.454,5499.5
604.619,5672.0
604.784,5459.9
604.95,5627.5
605.115,5567.0
605.28,5509.9
605.446,5510.5
605.611,5576.6
605.776,5560.1
605.941,5567.2
606.107,5499.9
606.272,5565.4
606.437,5608.9
606.602,5510.9
606.767,5536.8
606.933,5628.9
607.098,5568.2
607.263,5535.1
607.428,5698.4
607.593,5539.1
607.759,5535.9
607.924,5518.0
608.089,5514.4
608.254,5521.3
608.419,5546.5
608.584,5505.6
608.749,5611.5
608.915,5634.7
609.08,5552.0
609.245,5598.9
609.41,5413.8
609.575,5532.9
609.74,5511.2
609.905,5609.4
610.07,5575.8
610.235,5471.0
610.4,5585.5
610.565,5578.2
610.73,5475.9
610.895,5481.5
611.06,5561.3
611.225,5550.7
611.39,5645.0
611.555,5530.6
611.72,5450.8
611.885,5642.8
612.05,5484.3
612.215,5406.4
612.38,5510.8
612.545,5540.1
612.71,5488.9
612.875,5506.5
613.04,5545.3
613.204,5520.1
613.369,5357.1
613.534,5397.6
613.699,5517.4
613.864,5396.1
614.029,5566.4
614.194,5524.9
614.358,5468.0
614.523,5540.4
614.688,5513.9
614.853,5409.9
615.018,5359.8
615.182,5509.2
615.347,5499.1
615.512,5444.5
615.677,5378.7
615.841,5544.4
616.006,5426.5
616.171,5606.8
616.336,5388.4
616.5,5488.7
616.665,5533.5
616.83,5320.2
616.994,5487.5
617.159,5404.9
617.324,5422.7
617.489,5460.9
617.653,5309.8
617.818,5480.8
617.982,5317.1
618.147,5555.7
618.312,5419.2
618.476,5414.2
618.641,5411.8
618.805,5411.9
618.97,5362.4
619.135,5519.2
619.299,5387.5
619.464,5334.2
619.628,5504.7
619.793,5491.1
619.957,5346.4
620.122,5420.7
620.286,5410.2
620.451,5350.8
620.615,5448.3
620.78,5395.5
620.944,5361.8
621.109,5443.7
621.273,5387.9
621.438,5272.3
621.602,5382.0
621.767,5237.5
621.931,5427.7
622.095,5345.5
622.26,5214.9
622.424,5312.6
622.589,5374.8
622.753,5398.5
622.917,5388.5
623.082,5248.4
623.246,5451.0
623.41,5426.3
623.575,5228.0
623.739,5244.7
623.903,5294.1
624.068,5259.1
624.232,5270.1
624.396,5282.5
624.561,5280.5
624.725,5274.4
624.889,5290.4
625.053,5104.6
625.218,5168.4
625.382,5267.6
625.546,5304.0
625.71,5207.1
625.875,5265.1
626.039,5164.4
626.203,5216.3
626.367,5184.1
626.531,5082.1
626.695,5151.4
626.86,5215.1
627.024,5130.3
627.188,5128.3
627.352,5213.6
627.516,5186.2
627.68,5080.8
627.844,5143.4
628.008,5191.1
628.172,5162.9
628.337,5314.0
628.501,5126.8
628.665,5102.4
628.829,5112.8
628.993,5146.5
629.157,5094.0
629.321,5165.6
629.485,5111.0
629.649,5042.7
629.813,5112.3
629.977,5131.6
630.141,5023.3
630.305,5142.8
630.469,5118.3
630.633,5110.5
630.797,5210.3
630.96,5143.1
631.124,5119.1
631.288,5160.4
631.452,5153.5
631.616,5171.3
631.78,5047.8
631.944,5043.7
632.108,4957.0
632.272,5021.3
632.435,5064.8
632.599,5076.3
632.763,5031.4
632.927,4978.8
633.091,5059.5
633.254,5032.2
633.418,4952.7
633.582,4998.9
633.746,4958.5
633.91,4963.0
634.073,5037.9
634.237,4821.7
634.401,4968.8
634.564,4948.1
634.728,4831.4
634.892,4918.4
635.056,4936.7
635.219,4751.5
635.383,4745.2
635.547,4795.7
635.71,4850.5
635.874,4717.2
636.038,4891.1
636.201,4815.8
636.365,4738.5
636.528,4782.2
636.692,4641.5
636.856,4771.6
637.019,4753.2
637.183,4698.1
637.346,4694.2
637.51,4809.6
637.673,4724.2
637.837,4649.5
638.0,4714.8
638.164,4767.7
638.327,4662.0
638.491,4714.8
638.654,4644.3
638.818,4679.3
638.981,4694.4
639.145,4589.4
639.308,4661.5
639.472,4622.8
639.635,4695.1
639.799,4558.0
639.962,4499.8
640.125,4588.3
640.289,4532.4
640.452,4564.6
640.616,4636.7
640.779,4565.0
640.942,4530.0
641.106,4560.8
641.269,4538.6
641.432,4452.2
641.596,4446.9
641.759,4501.3
641.922,4401.6
642.085,4471.3
642.249,4491.3
642.412,4486.4
642.575,4545.0
642.738,4412.0
642.902,4452.9
643.065,4498.2
643.228,4434.0
643.391,4303.7
643.555,4423.3
643.718,4456.2
643.881,4343.3
644.044,4413.1
644.207,4397.6
644.37,4411.2
644.534,4466.5
644.697,4301.0
644.86,4302.6
645.023,4435.3
645.186,4360.9
645.349,4314.9
645.512,4327.8
645.675,4410.0
645.838,4415.1
646.001,4265.9
646.164,4328.8
646.327,4330.7
646.49,4297.3
646.653,4376.0
646.816,4339.2
646.979,4300.2
647.142,4191.4
647.305,4366.1
647.468,4255.5
647.631,4220.5
647.794,4307.3
647.957,4325.9
648.12,4304.6
648.283,4216.4
648.446,4271.9
648.609,4221.7
648.772,4155.9
648.935,4283.2
649.098,4223.6
649.26,4216.5
649.423,4090.3
649.586,4200.0
649.749,4169.3
649.912,4079.3
650.075,4132.3
650.237,4174.4
650.4,4076.5
650.563,4156.9
650.726,4081.3
650.888,4127.7
651.051,4075.8
651.214,4033.7
651.377,3940.2
651.539,3992.9
651.702,4030.2
651.865,4094.9
652.027,3916.9
652.19,3905.6
652.353,4037.6
652.515,3915.0
652.678,3867.7
652.841,3855.7
653.003,3925.3
653.166,3913.3
653.329,3879.2
653.491,3875.8
653.654,3814.3
653.816,3880.4
653.979,3896.0
654.142,3788.4
654.304,3719.6
654.467,3822.7
654.629,3764.1
654.792,3768.9
654.954,3727.9
655.117,3802.7
655.279,3877.4
655.442,3752.5
655.604,3635.8
655.767,3798.9
655.929,3743.5
656.091,3694.4
656.254,3659.1
656.416,3630.1
656.579,3648.9
656.741,3699.2
656.904,3626.2
657.066,3620.1
657.228,3593.4
657.391,3651.8
657.553,3599.0
657.715,3575.1
657.878,3526.2
658.04,3474.8
658.202,3578.5
658.365,3558.9
658.527,3564.1
658.689,3469.5
658.851,3478.3
659.014,3472.9
659.176,3504.9
659.338,3540.3
659.5,3503.9
659.663,3488.9
659.825,3443.8
659.987,3420.4
660.149,3427.7
660.311,3436.6
660.474,3474.5
660.636,3375.7
660.798,3417.1
660.96,3421.2
661.041,3367.5