File: spectra/VLFR_01-LDPE_nobio_Raman_ea17ea25.csv
nm,Intensity
528.65,1842.95
528.819,1842.15
528.987,1843.35
529.155,1842.1
529.324,1842.75
529.492,1842.25
529.66,1842.15
529.829,1842.6
529.997,1843.35
530.165,1842.9
530.334,1843.15
530.502,1844.2
530.67,1842.45
530.839,1843.65
531.007,1844.5
531.175,1843.0
531.344,1843.75
531.512,1844.95
531.68,1859.85
531.848,2083.3
532.017,2631.3
532.185,2464.45
532.353,1883.3
532.521,1844.3
532.69,1843.85
532.858,1843.9
533.026,1843.35
533.194,1843.15
533.363,1845.25
533.531,1858.35
533.699,1934.6
533.867,2062.7
534.036,2129.25
534.204,2136.0
534.372,2113.25
534.54,2104.7
534.708,2103.0
534.877,2091.8
535.045,2080.5
535.213,2065.3
535.381,2054.55
535.549,2044.05
535.717,2020.45
535.886,2015.15
536.054,2005.0
536.222,2004.25
536.39,1994.8
536.558,1992.05
536.726,1995.15
536.894,1994.4
537.062,1984.05
537.231,1989.1
537.399,1999.4
537.567,1996.0
537.735,2000.65
537.903,1993.5
538.071,1983.95
538.239,1988.2
538.407,1980.75
538.575,1985.5
538.743,1975.15
538.911,1971.55
539.079,1971.45
539.247,1968.55
539.415,1968.2
539.583,1960.65
539.751,1957.95
539.919,1962.75
540.087,1959.0
540.255,1955.5
540.423,1954.7
540.591,1953.35
540.759,1955.75
540.927,1956.2
541.095,1957.85
541.263,1958.4
541.431,1955.6
541.599,1953.6
541.767,1953.95
541.935,1953.15
542.103,1955.5
542.271,1950.75
542.439,1953.8
542.607,1957.25
542.775,1950.95
542.943,1947.65
543.111,1952.0
543.279,1955.6
543.446,1952.65
543.614,1957.6
543.782,1957.9
543.95,1962.4
544.118,1958.2
544.286,1957.75
544.454,1949.9
544.622,1945.4
544.789,1955.15
544.957,1953.7
545.125,1955.1
545.293,1948.7
545.461,1943.15
545.629,1950.35
545.796,1957.25
545.964,1952.45
546.132,1953.55
546.3,1950.5
546.468,1951.3
546.635,1953.25
546.803,1951.75
546.971,1956.45
547.139,1953.3
547.306,1955.4
547.474,1947.9
547.642,1947.15
547.81,1952.75
547.977,1948.95
548.145,1951.45
548.313,1952.9
548.481,1954.95
548.648,1952.3
548.816,1950.9
548.984,1953.7
549.151,1954.25
549.319,1951.15
549.487,1946.1
549.655,1946.6
549.822,1949.7
549.99,1948.7
550.158,1941.65
550.325,1946.85
550.493,1950.45
550.66,1945.05
550.828,1952.05
550.996,1951.95
551.163,1953.45
551.331,1947.15
551.499,1949.55
551.666,1952.8
551.834,1949.65
552.001,1954.85
552.169,1957.95
552.337,1952.55
552.504,1952.35
552.672,1956.9
552.839,1953.65
553.007,1961.35
553.174,1955.4
553.342,1969.05
553.509,1968.7
553.677,1966.25
553.844,1974.0
554.012,1971.2
554.179,1970.65
554.347,1972.7
554.514,1975.7
554.682,1972.55
554.849,1978.75
555.017,1983.45
555.184,1978.4
555.352,1974.2
555.519,1978.55
555.687,1981.8
555.854,1984.8
556.022,1987.8
556.189,1989.15
556.357,1992.45
556.524,1989.25
556.691,1995.95
556.859,1993.5
557.026,1996.65
557.194,2001.65
557.361,2004.9
557.528,2015.5
557.696,2014.45
557.863,2020.1
558.031,2016.6
558.198,2023.0
558.365,2024.9
558.533,2023.7
558.7,2015.8
558.867,2013.2
559.035,2007.35
559.202,1999.5
559.369,2003.05
559.537,1997.45
559.704,1998.95
559.871,1999.2
560.038,1999.75
560.206,1991.45
560.373,1995.65
560.54,1991.65
560.708,1999.1
560.875,1996.2
561.042,2001.8
561.209,1998.35
561.377,1997.4
561.544,1996.65
561.711,1999.45
561.878,2004.5
562.045,2012.85
562.213,2019.05
562.38,2017.15
562.547,2019.7
562.714,2022.05
562.881,2031.05
563.049,2036.45
563.216,2038.3
563.383,2051.9
563.55,2072.8
563.717,2152.15
563.884,2342.5
564.052,2446.3
564.219,2279.9
564.386,2166.9
564.553,2137.8
564.72,2128.4
564.887,2115.15
565.054,2096.65
565.221,2080.5
565.388,2080.8
565.556,2085.5
565.723,2125.3
565.89,2234.6
566.057,2410.3
566.224,2392.9
566.391,2207.6
566.558,2098.5
566.725,2076.2
566.892,2058.5
567.059,2053.05
567.226,2062.2
567.393,2087.55
567.56,2077.25
567.727,2055.0
567.894,2038.25
568.061,2033.5
568.228,2025.55
568.395,2035.75
568.562,2033.95
568.729,2043.05
568.896,2030.35
569.063,2033.95
569.23,2040.45
569.396,2046.9
569.563,2042.6
569.73,2047.7
569.897,2049.85
570.064,2065.3
570.231,2076.95
570.398,2079.15
570.565,2083.15
570.732,2111.0
570.898,2117.7
571.065,2153.25
571.232,2263.15
571.399,2582.3
571.566,2796.95
571.733,2472.6
571.9,2296.35
572.066,2244.5
572.233,2197.0
572.4,2167.8
572.567,2153.95
572.734,2123.0
572.9,2115.05
573.067,2112.5
573.234,2117.5
573.401,2128.8
573.567,2133.35
573.734,2146.9
573.901,2163.85
574.068,2178.75
574.234,2159.6
574.401,2139.05
574.568,2136.45
574.734,2143.9
574.901,2150.8
575.068,2167.8
575.235,2213.05
575.401,2328.55
575.568,2433.2
575.735,2420.0
575.901,2503.45
576.068,2669.35
576.235,2879.45
576.401,2854.05
576.568,2712.0
576.734,2681.4
576.901,2686.4
577.068,2634.75
577.234,2560.35
577.401,2468.45
577.567,2398.6
577.734,2381.35
577.901,2361.45
578.067,2366.35
578.234,2372.6
578.4,2385.1
578.567,2393.85
578.733,2414.0
578.9,2410.4
579.066,2421.5
579.233,2452.35
579.399,2475.55
579.566,2504.25
579.732,2498.3
579.899,2499.95
580.065,2525.65
580.232,2576.05
580.398,2569.65
580.565,2595.75
580.731,2605.2
580.898,2604.75
581.064,2639.7
581.231,2639.85
581.397,2688.4
581.563,2687.5
581.73,2697.35
581.896,2692.05
582.063,2735.8
582.229,2780.35
582.395,2785.9
582.562,2781.25
582.728,2798.85
582.895,2800.9
583.061,2812.55
583.227,2866.75
583.394,2860.45
583.56,2868.5
583.726,2914.3
583.893,2940.2
584.059,2912.35
584.225,2933.4
584.391,2960.9
584.558,2961.85
584.724,3017.25
584.89,3008.1
585.057,3011.75
585.223,3016.45
585.389,3027.9
585.555,3081.35
585.722,3120.7
585.888,3057.5
586.054,3074.7
586.22,3175.85
586.386,3153.1
586.553,3161.2
586.719,3216.25
586.885,3260.05
587.051,3258.25
587.217,3301.05
587.384,3279.15
587.55,3336.75
587.716,3395.5
587.882,3378.5
588.048,3440.95
588.214,3489.0
588.38,3525.35
588.546,3519.95
588.713,3555.3
588.879,3590.3
589.045,3573.7
589.211,3700.15
589.377,3634.65
589.543,3640.25
589.709,3718.45
589.875,3780.75
590.041,3746.35
590.207,3819.25
590.373,3819.75
590.539,3873.65
590.705,3857.95
590.871,3930.7
591.037,3928.9
591.203,3995.95
591.369,3984.4
591.535,4045.45
591.701,4077.75
591.867,4086.0
592.033,4138.7
592.199,4140.4
592.365,4126.3
592.531,4185.0
592.697,4181.95
592.863,4203.3
593.029,4164.95
593.195,4264.15
593.361,4264.55
593.526,4246.45
593.692,4238.05
593.858,4285.25
594.024,4248.35
594.19,4295.4
594.356,4279.15
594.522,4332.15
594.687,4339.7
594.853,4317.55
595.019,4414.7
595.185,4371.6
595.351,4397.95
595.516,4410.95
595.682,4446.95
595.848,4452.8
596.014,4457.25
596.18,4524.8
596.345,4527.35
596.511,4537.35
596.677,4574.3
596.843,4550.1
597.008,4600.15
597.174,4639.2
597.34,4647.9
597.505,4610.35
597.671,4650.85
597.837,4764.15
598.002,4621.4
598.168,4711.0
598.334,4757.75
598.499,4756.45
598.665,4818.1
598.831,4818.55
598.996,4837.4
599.162,4837.8
599.328,4875.85
599.493,4931.05
599.659,4927.8
599.824,4841.25
599.99,4940.8
600.156,4906.8
600.321,4976.75
600.487,4940.95
600.652,4916.35
600.818,4948.65
600.983,4930.45
601.149,4912.0
601.314,4981.85
601.48,4927.25
601.645,4817.0
601.811,4951.7
601.976,4946.15
602.142,4922.55
602.307,4822.95
602.473,4830.85
602.638,4903.05
602.804,4757.15
602.969,4719.4
603.135,4725.85
603.3,4756.2
603.466,4713.05
603.631,4712.15
603.796,4636.15
603.962,4606.25
604.127,4551.6
604.293,4514.05
604.458,4557.65
604.623,4424.85
604.789,4476.8
604.954,4430.6
605.119,4364.5
605.285,4278.85
605.45,4299.25
605.615,4280.9
605.781,4214.65
605.946,4159.9
606.111,4229.5
606.277,4122.7
606.442,4081.05
606.607,4062.8
606.772,4091.35
606.938,3973.85
607.103,3962.25
607.268,3965.1
607.433,3929.2
607.599,3870.4
607.764,3866.45
607.929,3844.6
608.094,3824.35
608.259,3812.0
608.425,3751.95
608.59,3745.95
608.755,3770.65
608.92,3709.25
609.085,3660.95
609.25,3652.85
609.415,3667.75
609.581,3620.35
609.746,3647.2
609.911,3593.1
610.076,3599.05
610.241,3519.1
610.406,3572.05
610.571,3545.6
610.736,3531.7
610.901,3512.55
611.066,3531.3
611.231,3463.2
611.396,3475.45
611.561,3471.2
611.727,3471.0
611.892,3418.95
612.057,3371.35
612.222,3398.7
612.386,3387.65
612.551,3417.3
612.716,3341.05
612.881,3300.75
613.046,3360.3
613.211,3316.05
613.376,3359.7
613.541,3326.6
613.706,3270.8
613.871,3281.75
614.036,3245.75
614.201,3246.75
614.366,3262.2
614.531,3222.5
614.695,3229.45
614.86,3215.65
615.025,3196.45
615.19,3201.3
615.355,3190.35
615.52,3188.6
615.684,3164.65
615.849,3191.15
616.014,3102.5
616.179,3147.15
616.344,3121.1
616.508,3113.25
616.673,3109.4
616.838,3089.2
617.003,3122.1
617.168,3100.45
617.332,3067.6
617.497,3084.95
617.662,3088.85
617.826,3074.05
617.991,3068.5
618.156,3052.35
618.32,3049.0
618.485,3050.05
618.65,3049.35
618.814,3030.4
618.979,3027.1
619.144,3008.65
619.308,3048.75
619.473,3013.55
619.638,3033.05
619.802,3010.6
619.967,2985.55
620.131,2996.7
620.296,2992.65
620.461,2994.05
620.625,2991.75
620.79,3007.6
620.954,3014.1
621.119,2996.65
621.283,2992.45
621.448,3017.1
621.612,3084.05
621.777,3057.0
621.941,3095.25
622.106,3110.0
622.27,3164.35
622.435,3110.6
622.599,3071.45
622.764,2984.7
622.928,3004.15
623.093,2972.4
623.257,2895.85
623.422,2904.05
623.586,2905.25
623.75,2894.1
623.915,2905.75
624.079,2884.0
624.244,2907.7
624.408,2848.6
624.572,2877.55
624.737,2872.85
624.901,2901.6
625.065,2890.45
625.23,2889.8
625.394,2889.05
625.558,2884.6
625.723,2930.4
625.887,2949.1
626.051,2969.4
626.215,3035.7
626.38,3168.35
626.544,3366.5
626.708,4007.5
626.872,4779.95
627.037,5734.5
627.201,6356.35
627.365,6058.8
627.529,5407.2
627.693,5116.15
627.858,4959.95
628.022,4913.0
628.186,5158.5
628.35,5929.8
628.514,6597.15
628.678,5980.0
628.843,5328.45
629.007,5167.45
629.171,5131.6
629.335,4728.5
629.499,4537.55
629.663,4374.35
629.827,4323.95
629.991,4158.65
630.155,4113.55
630.319,4155.05
630.483,4013.55
630.647,3895.9
630.812,3737.1
630.976,3503.1
631.14,3298.3
631.304,3142.1
631.468,3091.35
631.632,3049.7
631.796,3028.1
631.959,2980.85
632.123,2958.75
632.287,2953.3
632.451,2934.05
632.615,2895.0
632.779,2897.6
632.943,2879.65
633.107,2883.05
633.271,2905.95
633.435,2917.15
633.599,2875.45
633.763,2900.55
633.926,2898.3
634.09,2887.7
634.254,2891.6
634.418,2857.9
634.582,2921.9
634.746,2869.4
634.909,2896.1
635.073,2869.35
635.237,2907.2
635.401,2867.0
635.564,2883.6
635.728,2901.9
635.892,2898.0
636.056,2889.6
636.219,2931.35
636.383,2874.95
636.547,2925.85
636.711,2897.55
636.874,2895.85
637.038,2925.95
637.202,2915.75
637.365,2891.4
637.529,2934.25
637.693,2914.6
637.856,2899.45
638.02,2909.55
638.184,2952.7
638.347,2937.4
638.511,2933.3
638.674,2945.6
638.838,2942.35
639.002,2985.75
639.165,2967.1
639.329,2941.25
639.492,2981.4
639.656,2944.0
639.819,2988.5
639.983,2971.2
640.146,2988.8
640.31,3010.1
640.473,2996.6
640.637,2966.2
640.8,2982.7
640.964,3017.6
641.127,3051.65
641.291,3065.7
641.454,3001.3
641.618,3019.85
641.781,3044.2
641.944,3056.85
642.108,3025.95
642.271,3064.1
642.435,3108.95
642.598,3054.9
642.761,3068.85
642.925,3081.65
643.088,3105.85
643.251,3078.9
643.415,3102.05
643.578,3091.95
643.741,3144.05
643.905,3130.55
644.068,3088.6
644.231,3118.0
644.394,3116.55
644.558,3102.9
644.721,3126.3
644.884,3165.15
645.047,3118.0
645.211,3051.8
645.374,3165.85
645.537,3171.45
645.7,3119.75
645.863,3108.7
646.027,3150.4
646.19,3137.8
646.353,3135.45
646.516,3118.0
646.679,3118.7
646.842,3100.25
647.005,3129.05
647.169,3180.75
647.332,3129.55
647.495,3093.6
647.658,3162.05
647.821,3135.35
647.984,3140.5
648.147,3126.75
648.31,3077.85
648.473,3067.25
648.636,3128.25
648.799,3113.25
648.962,3113.55
649.125,3080.25
649.288,3082.9
649.451,3073.5
649.614,3115.95
649.777,3099.55
649.94,3111.45
650.103,3031.3
650.266,3086.1
650.429,3128.15
650.592,3108.05
650.755,3093.3
650.918,3062.9
651.08,3081.85
651.243,3076.6
651.406,3062.8
651.569,3033.4
651.732,3048.2
651.895,3036.15
652.058,3085.75
652.22,3091.05
652.383,3107.65
652.546,3052.8
652.709,3048.65
652.872,3058.65
653.034,3065.8
653.197,3041.5
653.36,3028.65
653.523,3054.85
653.685,3004.4
653.848,3011.9
654.011,3052.1
654.173,3022.15
654.336,3001.5
654.499,2971.45
654.662,2977.2
654.824,3010.55
654.987,2980.75
655.149,3015.9
655.312,2988.2
655.475,3006.7
655.637,2984.55
655.8,2962.85
655.963,2945.35
656.125,2936.3
656.288,2936.0
656.45,2918.85
656.613,2903.5
656.775,2940.5
656.938,2903.05
657.1,2914.0
657.263,2900.75
657.425,2871.5
657.588,2902.2
657.75,2840.0
657.913,2874.6
658.075,2850.9
658.238,2815.4
658.4,2805.9
658.563,2834.8
658.725,2810.85
658.888,2775.65
659.05,2776.85
659.212,2746.7
659.375,2752.0
659.537,2751.4
659.7,2751.1
659.862,2708.15
660.024,2721.25
660.187,2681.7
660.349,2656.5
660.511,2669.75
660.674,2681.05
660.836,2676.05
660.998,2633.95
661.079,2643.55