File: spectra/VLFR_06-PET_bio_Raman_6708e6bd.csv
nm,Intensity
526.493,828.75
526.629,830.05
526.766,829.8
526.903,828.9
527.039,829.9
527.176,828.8
527.313,829.45
527.449,828.7
527.586,829.95
527.723,828.65
527.859,828.55
527.996,830.25
528.133,828.6
528.269,829.25
528.406,829.15
528.542,829.15
528.679,829.25
528.816,829.4
528.952,829.15
529.089,828.0
529.225,828.3
529.362,829.35
529.498,829.65
529.635,829.1
529.771,829.65
529.908,829.65
530.044,828.0
530.181,829.5
530.317,829.4
530.454,829.05
530.59,828.8
530.727,829.1
530.863,829.15
531.0,829.65
531.136,829.2
531.273,828.45
531.409,829.4
531.546,828.55
531.682,828.95
531.818,829.05
531.955,829.5
532.091,841.9
532.227,848.75
532.364,834.25
532.5,829.3
532.637,828.95
532.773,828.65
532.909,829.3
533.046,828.7
533.182,828.95
533.318,829.5
533.455,829.1
533.591,829.65
533.727,838.4
533.863,887.8
534.0,959.65
534.136,950.5
534.272,913.4
534.408,893.3
534.545,888.35
534.681,888.9
534.817,885.95
534.953,881.0
535.09,876.5
535.226,878.65
535.362,875.4
535.498,878.3
535.634,877.5
535.771,877.4
535.907,877.0
536.043,875.05
536.179,875.35
536.315,875.1
536.451,876.35
536.588,876.35
536.724,875.3
536.86,876.35
536.996,879.65
537.132,882.2
537.268,887.55
537.404,889.65
537.54,894.4
537.676,897.75
537.812,896.45
537.948,897.0
538.084,901.6
538.22,902.35
538.357,899.85
538.493,895.85
538.629,892.0
538.765,886.55
538.901,882.6
539.037,879.35
539.173,879.55
539.309,877.55
539.444,875.3
539.58,871.6
539.716,873.55
539.852,871.15
539.988,871.2
540.124,872.95
540.26,870.7
540.396,872.5
540.532,869.45
540.668,870.2
540.804,868.55
540.94,868.95
541.076,868.95
541.211,869.85
541.347,868.1
541.483,868.2
541.619,868.4
541.755,870.2
541.891,871.05
542.026,869.65
542.162,871.0
542.298,871.75
542.434,871.65
542.57,871.65
542.705,872.3
542.841,870.75
542.977,871.55
543.113,870.6
543.249,869.6
543.384,870.45
543.52,872.25
543.656,871.95
543.791,873.8
543.927,873.0
544.063,874.75
544.199,878.05
544.334,876.75
544.47,878.1
544.606,878.9
544.741,883.3
544.877,884.9
545.013,889.1
545.148,889.9
545.284,892.35
545.42,891.45
545.555,893.75
545.691,891.35
545.827,885.05
545.962,881.85
546.098,882.05
546.233,879.95
546.369,880.95
546.504,879.85
546.64,879.5
546.776,880.85
546.911,880.1
547.047,878.45
547.182,881.9
547.318,881.85
547.453,882.65
547.589,881.7
547.724,882.95
547.86,881.6
547.995,882.3
548.131,884.35
548.266,883.95
548.402,884.5
548.537,884.15
548.673,885.9
548.808,887.7
548.944,887.45
549.079,890.7
549.214,888.8
549.35,891.45
549.485,896.05
549.621,895.1
549.756,897.85
549.892,892.85
550.027,894.35
550.162,893.55
550.298,892.5
550.433,892.15
550.568,890.65
550.704,893.2
550.839,888.2
550.974,890.3
551.11,886.85
551.245,885.5
551.38,887.55
551.516,885.5
551.651,884.3
551.786,883.7
551.922,882.05
552.057,882.7
552.192,881.2
552.327,879.15
552.463,879.8
552.598,877.7
552.733,877.35
552.868,878.15
553.004,875.5
553.139,877.45
553.274,875.65
553.409,877.25
553.544,877.1
553.68,877.15
553.815,876.75
553.95,879.0
554.085,876.05
554.22,876.7
554.356,875.3
554.491,874.85
554.626,878.25
554.761,878.95
554.896,876.95
555.031,876.4
555.166,875.0
555.301,875.1
555.437,877.0
555.572,876.05
555.707,876.95
555.842,876.1
555.977,877.15
556.112,875.1
556.247,876.65
556.382,875.25
556.517,874.95
556.652,876.9
556.787,876.3
556.922,876.3
557.057,875.7
557.192,879.05
557.327,876.3
557.462,879.8
557.597,875.25
557.732,879.85
557.867,878.25
558.002,878.2
558.137,878.25
558.272,876.95
558.407,878.6
558.542,879.0
558.677,878.15
558.812,878.95
558.947,875.0
559.082,876.35
559.217,877.8
559.351,876.95
559.486,874.85
559.621,876.85
559.756,876.4
559.891,877.95
560.026,879.4
560.161,877.35
560.295,879.1
560.43,877.45
560.565,879.15
560.7,880.65
560.835,879.05
560.97,877.7
561.104,878.4
561.239,881.6
561.374,881.4
561.509,881.5
561.644,884.15
561.778,884.75
561.913,894.1
562.048,921.5
562.183,1012.05
562.317,1045.45
562.452,949.65
562.587,898.85
562.722,888.8
562.856,885.1
562.991,882.75
563.126,883.2
563.26,882.4
563.395,881.65
563.53,880.25
563.665,880.6
563.799,882.3
563.934,883.3
564.069,880.95
564.203,882.25
564.338,883.6
564.472,882.75
564.607,882.85
564.742,885.55
564.876,885.75
565.011,887.95
565.146,888.75
565.28,887.9
565.415,889.7
565.549,890.35
565.684,891.2
565.818,889.1
565.953,886.65
566.088,886.8
566.222,885.8
566.357,885.45
566.491,886.45
566.626,887.4
566.76,886.9
566.895,889.65
567.029,891.25
567.164,892.55
567.298,892.05
567.433,891.55
567.567,889.45
567.702,887.85
567.836,888.95
567.971,884.6
568.105,884.9
568.24,885.5
568.374,883.85
568.509,884.9
568.643,886.75
568.777,884.55
568.912,885.25
569.046,883.3
569.181,886.1
569.315,886.55
569.449,885.45
569.584,885.8
569.718,886.65
569.853,885.15
569.987,887.0
570.121,883.85
570.256,885.65
570.39,887.65
570.524,884.95
570.659,888.9
570.793,887.1
570.927,888.8
571.062,889.8
571.196,888.5
571.33,889.25
571.465,888.2
571.599,887.9
571.733,889.5
571.867,889.7
572.002,888.05
572.136,887.55
572.27,887.5
572.404,887.7
572.539,888.4
572.673,891.95
572.807,888.6
572.941,889.95
573.076,887.35
573.21,889.8
573.344,887.15
573.478,890.1
573.612,889.45
573.747,889.35
573.881,889.35
574.015,892.45
574.149,890.1
574.283,890.9
574.417,889.15
574.552,888.7
574.686,889.1
574.82,891.1
574.954,888.15
575.088,889.05
575.222,889.35
575.356,890.85
575.491,889.8
575.625,890.65
575.759,889.45
575.893,891.35
576.027,891.1
576.161,892.2
576.295,891.2
576.429,891.25
576.563,888.2
576.697,892.85
576.831,891.4
576.965,891.15
577.099,891.6
577.233,890.75
577.367,891.7
577.501,890.95
577.635,893.45
577.769,891.25
577.903,891.6
578.037,890.4
578.171,891.45
578.305,894.9
578.439,890.75
578.573,890.75
578.707,891.45
578.841,895.1
578.975,891.5
579.109,894.15
579.243,891.85
579.377,893.15
579.511,896.3
579.645,893.35
579.779,893.0
579.913,894.5
580.046,893.2
580.18,895.1
580.314,894.1
580.448,895.25
580.582,894.7
580.716,898.7
580.85,899.05
580.984,897.95
581.117,898.05
581.251,900.2
581.385,901.3
581.519,898.95
581.653,899.35
581.787,902.6
581.92,903.2
582.054,905.05
582.188,908.65
582.322,905.3
582.456,897.45
582.589,900.3
582.723,896.05
582.857,897.1
582.991,897.4
583.124,894.0
583.258,898.05
583.392,895.95
583.526,895.35
583.659,895.3
583.793,897.55
583.927,896.8
584.061,895.6
584.194,894.1
584.328,894.6
584.462,897.55
584.595,896.1
584.729,895.85
584.863,898.2
584.997,895.0
585.13,897.5
585.264,898.15
585.398,896.85
585.531,897.45
585.665,897.8
585.798,899.55
585.932,902.45
586.066,903.35
586.199,901.35
586.333,900.15
586.467,899.75
586.6,898.45
586.734,899.35
586.867,898.25
587.001,897.55
587.135,899.4
587.268,901.55
587.402,897.75
587.535,896.2
587.669,896.0
587.802,898.9
587.936,900.1
588.07,898.45
588.203,898.1
588.337,896.6
588.47,897.5
588.604,897.6
588.737,898.65
588.871,896.8
589.004,896.5
589.138,897.05
589.271,897.1
589.405,897.85
589.538,899.1
589.672,897.6
589.805,897.0
589.939,898.25
590.072,899.15
590.206,898.75
590.339,898.0
590.472,897.3
590.606,897.8
590.739,899.1
590.873,897.7
591.006,898.0
591.14,895.85
591.273,900.0
591.406,899.45
591.54,899.6
591.673,896.5
591.807,897.3
591.94,898.7
592.073,898.65
592.207,899.75
592.34,897.35
592.473,897.7
592.607,898.45
592.74,899.1
592.873,897.75
593.007,898.7
593.14,899.85
593.273,897.4
593.407,898.5
593.54,898.45
593.673,899.55
593.807,900.4
593.94,898.45
594.073,898.8
594.207,897.95
594.34,898.9
594.473,899.85
594.606,898.9
594.74,900.55
594.873,897.8
595.006,900.75
595.14,897.85
595.273,899.95
595.406,900.05
595.539,899.4
595.673,898.1
595.806,900.85
595.939,899.85
596.072,899.35
596.205,900.5
596.339,899.05
596.472,902.3
596.605,899.3
596.738,899.7
596.871,901.9
597.005,900.0
597.138,901.25
597.271,900.7
597.404,900.3
597.537,901.5
597.67,900.75
597.804,901.3
597.937,901.3
598.07,901.05
598.203,902.85
598.336,901.8
598.469,899.9
598.602,898.8
598.735,901.65
598.869,901.2
599.002,901.75
599.135,903.3
599.268,903.95
599.401,901.95
599.534,902.45
599.667,902.8
599.8,901.2
599.933,901.65
600.066,902.7
600.199,900.95
600.332,901.0
600.465,901.9
600.598,902.45
600.731,899.45
600.865,901.8
600.998,903.65
601.131,899.95
601.264,899.85
601.397,902.25
601.53,902.2
601.663,901.45
601.796,901.8
601.929,900.2
602.062,901.8
602.195,904.2
602.328,900.6
602.46,901.4
602.593,901.55
602.726,902.8
602.859,902.35
602.992,899.15
603.125,902.05
603.258,902.3
603.391,903.7
603.524,901.5
603.657,901.3
603.79,903.6
603.923,901.3
604.056,902.0
604.189,904.05
604.322,900.85
604.454,902.75
604.587,901.6
604.72,899.8
604.853,901.1
604.986,902.6
605.119,902.7
605.252,903.35
605.385,897.5
605.517,901.85
605.65,899.15
605.783,899.9
605.916,901.55
606.049,898.65
606.182,901.4
606.315,897.25
606.447,901.35
606.58,900.15
606.713,901.75
606.846,900.15
606.979,900.15
607.111,898.65
607.244,899.5
607.377,900.15
607.51,899.7
607.643,900.75
607.775,901.5
607.908,902.55
608.041,901.6
608.174,901.95
608.306,902.9
608.439,901.05
608.572,901.85
608.705,901.5
608.837,901.55
608.97,903.9
609.103,902.55
609.236,902.05
609.368,901.45
609.501,899.05
609.634,901.7
609.766,901.95
609.899,900.8
610.032,899.6
610.164,902.8
610.297,900.2
610.43,900.45
610.563,901.6
610.695,902.2
610.828,900.45
610.961,902.95
611.093,901.3
611.226,900.0
611.359,901.6
611.491,903.5
611.624,902.25
611.756,901.5
611.889,901.05
612.022,899.5
612.154,900.45
612.287,901.5
612.42,901.55
612.552,901.2
612.685,901.15
612.817,899.6
612.95,900.6
613.083,900.95
613.215,903.55
613.348,903.8
613.48,902.25
613.613,904.6
613.745,901.1
613.878,904.55
614.011,901.9
614.143,902.85
614.276,903.0
614.408,903.45
614.541,903.2
614.673,901.15
614.806,900.75
614.938,902.6
615.071,901.4
615.203,902.9
615.336,901.95
615.469,900.3
615.601,901.8
615.734,900.55
615.866,903.65
615.999,901.0
616.131,901.05
616.263,903.05
616.396,899.65
616.528,900.15
616.661,900.45
616.793,900.7
616.926,902.7
617.058,904.0
617.191,904.1
617.323,904.35
617.456,901.4
617.588,900.3
617.721,902.2
617.853,901.55
617.985,901.5
618.118,901.85
618.25,903.25
618.383,902.95
618.515,901.45
618.648,902.3
618.78,904.2
618.912,903.45
619.045,902.55
619.177,901.95
619.31,903.35
619.442,899.55
619.574,901.0
619.707,902.05
619.839,899.8
619.971,901.2
620.104,901.45
620.236,903.75
620.369,902.25
620.501,898.25
620.633,901.15
620.766,900.75
620.898,900.6
621.03,900.25
621.163,901.45
621.295,899.1
621.427,903.5
621.56,902.95
621.692,902.15
621.824,900.4
621.957,901.4
622.089,902.1
622.221,901.25
622.353,899.6
622.486,902.15
622.618,901.75
622.75,904.35
622.883,899.3
623.015,901.65
623.147,902.15
623.279,901.35
623.412,900.9
623.544,899.85
623.676,901.85
623.808,903.1
623.941,902.15
624.073,903.45
624.205,901.9
624.337,903.7
624.47,901.15
624.602,904.05
624.734,904.4
624.866,903.45
624.999,901.9
625.131,901.8
625.263,903.45
625.395,903.6
625.527,902.95
625.66,900.5
625.792,903.0
625.924,902.25
626.056,901.7
626.188,901.25
626.321,902.55
626.453,901.95
626.585,901.9
626.717,901.85
626.849,904.65
626.981,901.9
627.114,900.5
627.246,901.5
627.378,902.95
627.51,904.15
627.642,902.35
627.774,902.55
627.906,899.6
628.039,900.6
628.171,904.35
628.303,906.6
628.435,903.25
628.567,901.9
628.699,902.0
628.831,902.95
628.963,902.25
629.095,898.95
629.228,900.55
629.36,902.7
629.492,901.7
629.624,901.85
629.756,901.9
629.888,901.55
630.02,903.85
630.152,902.4
630.284,904.7
630.416,905.0
630.548,902.35
630.68,903.8
630.813,903.1
630.945,905.75
631.077,905.0
631.209,902.8
631.341,905.0
631.473,904.5
631.605,906.6
631.737,906.2
631.869,904.6
632.001,904.3
632.133,907.15
632.265,905.65
632.397,904.2
632.529,905.7
632.661,904.35
632.793,903.0
632.925,903.4
633.057,905.5
633.189,904.15
633.321,905.0
633.453,904.2
633.585,905.25
633.717,905.9
633.849,905.05
633.981,902.7
634.113,907.15
634.245,901.95
634.377,904.25
634.509,904.15
634.641,901.2
634.773,903.4
634.905,904.5
635.036,906.75
635.168,904.0
635.3,903.9
635.432,904.6
635.564,904.95
635.696,905.5
635.828,906.3
635.96,906.45
636.092,905.85
636.224,906.8
636.356,907.75
636.488,907.9
636.62,908.9
636.751,907.35
636.883,908.55
637.015,906.4
637.147,908.25
637.279,905.85
637.411,907.1
637.543,905.8
637.675,905.0
637.807,909.8
637.938,906.0
638.07,906.65
638.202,910.0
638.334,907.55
638.466,908.65
638.598,908.95
638.73,908.2
638.862,907.8
638.993,907.65
639.125,908.25
639.257,910.0
639.389,908.4
639.521,910.75
639.653,909.6
639.784,911.2
639.916,910.25
640.048,911.95
640.18,914.2
640.312,914.6
640.443,915.1
640.575,913.95
640.707,916.3
640.839,916.15
640.971,916.65
641.103,917.45
641.234,918.5
641.366,917.85
641.498,918.3
641.63,918.15
641.761,919.7
641.893,918.55
642.025,918.55
642.157,921.8
642.289,923.65
642.42,923.45
642.552,923.7
642.684,923.2
642.816,923.9
642.947,923.3
643.079,925.35
643.211,923.9
643.343,927.25
643.474,927.05
643.606,927.4
643.738,927.15
643.87,927.2
644.001,927.45
644.133,929.65
644.265,931.75
644.397,931.55
644.528,929.65
644.66,933.8
644.792,932.85
644.923,934.8
645.055,935.8
645.187,937.75
645.319,935.8
645.45,940.05
645.582,941.55
645.714,943.8
645.845,944.85
645.977,948.05
646.109,948.4
646.24,949.7
646.372,953.95
646.504,956.05
646.635,954.45
646.767,961.15
646.899,962.7
647.03,963.45
647.162,963.35
647.294,965.2
647.425,968.15
647.557,968.45
647.689,970.5
647.82,971.05
647.952,970.0
648.084,969.55
648.215,968.25
648.347,972.7
648.479,968.4
648.61,975.75
648.742,980.05
648.874,975.7
649.005,973.6
649.137,976.5
649.268,982.05
649.4,980.75
649.532,978.05
649.663,976.5
649.795,977.85
649.927,976.95
650.058,971.8
650.19,973.8
650.321,970.2
650.453,969.55
650.585,965.4
650.716,966.0
650.848,959.3
650.979,960.05
651.111,960.05
651.243,959.9
651.374,957.5
651.506,955.75
651.637,957.1
651.769,955.9
651.9,959.6
652.032,961.0
652.164,963.6
652.295,961.0
652.427,962.8
652.558,961.9
652.69,967.2
652.821,967.0
652.953,971.25
653.084,970.55
653.216,972.7
653.348,973.1
653.479,969.65
653.611,979.85
653.742,978.6
653.874,977.65
654.005,979.85
654.137,984.2
654.268,978.95
654.4,979.3
654.531,978.95
654.663,975.2
654.794,972.35
654.926,971.65
655.057,970.4
655.189,961.75
655.32,960.95
655.452,959.75
655.583,955.85
655.715,951.55
655.846,949.15
655.978,944.15
656.109,942.15
656.241,940.15
656.372,937.25
656.504,933.65
656.635,932.9
656.767,930.75
656.898,925.8
657.03,922.8
657.161,922.0
657.293,920.05
657.424,917.9
657.556,917.5
657.687,913.7
657.819,915.6
657.95,914.95
658.082,912.1
658.213,911.1
658.345,906.65
658.476,906.65
658.607,906.8
658.739,905.7
658.87,905.7
659.002,904.05
659.133,902.1
659.265,903.8
659.396,902.9
659.528,899.85
659.659,900.75
659.79,898.25
659.922,899.9
660.053,896.95
660.185,900.2
660.316,897.0
660.448,898.8
660.579,896.85
660.71,896.15
660.842,896.25
660.973,893.9
661.105,893.1
661.236,894.45
661.367,891.95
661.499,895.0
661.63,893.45
661.762,891.6
661.893,891.95
662.024,892.7
662.156,892.45
662.287,891.25
662.419,892.5
662.55,892.95
662.681,891.35
662.813,889.7
662.944,889.55
663.076,892.65