File: spectra/VLFR_07-PET_bio_Raman_dfaab42c.csv
nm,Intensity
791.75,13329.2
792.024,13063.6
792.298,12782.4
792.572,12684.6
792.846,12439.3
793.12,12533.1
793.394,12291.5
793.668,12199.3
793.942,12187.3
794.215,11919.0
794.489,11796.0
794.763,11797.7
795.037,11921.8
795.311,11778.5
795.585,11734.4
795.859,11632.0
796.133,11635.4
796.407,11859.6
796.681,11654.8
796.955,11579.5
797.228,11646.2
797.502,11631.2
797.776,11545.5
798.05,11644.4
798.324,11532.1
798.598,11479.0
798.871,11637.0
799.145,11582.6
799.419,11567.5
799.693,11470.8
799.967,11388.7
800.241,11334.3
800.514,11333.5
800.788,11453.8
801.062,11600.5
801.336,11645.8
801.61,11456.8
801.883,11334.0
802.157,11325.5
802.431,11321.9
802.705,11391.5
802.978,11153.0
803.252,11074.8
803.526,11112.9
803.8,10973.0
804.073,10951.8
804.347,10819.2
804.621,10805.6
804.894,10862.3
805.168,10876.1
805.442,10859.2
805.715,10959.7
805.989,10839.7
806.263,10716.6
806.536,10762.7
806.81,10684.7
807.084,10722.5
807.357,10708.5
807.631,10603.6
807.905,10510.8
808.178,10642.2
808.452,10595.0
808.726,10588.8
808.999,10439.2
809.273,10401.0
809.546,10460.0
809.82,10353.8
810.094,10358.2
810.367,10319.0
810.641,10402.7
810.914,10395.7
811.188,10247.5
811.461,10373.8
811.735,10319.7
812.008,10238.0
812.282,10170.5
812.556,10161.8
812.829,10271.8
813.103,10193.0
813.376,10031.3
813.65,10062.7
813.923,9970.35
814.197,10066.9
814.47,10056.6
814.744,10015.0
815.017,9958.3
815.29,9886.85
815.564,9896.4
815.837,9999.8
816.111,9838.0
816.384,9830.75
816.658,9881.8
816.931,9861.9
817.205,9875.0
817.478,9787.2
817.751,9725.8
818.025,9700.65
818.298,9816.35
818.572,9637.2
818.845,9562.15
819.118,9552.55
819.392,9671.95
819.665,9722.45
819.938,9652.8
820.212,9638.5
820.485,9584.6
820.758,9499.55
821.032,9433.6
821.305,9572.9
821.578,9502.7
821.852,9415.7
822.125,9267.45
822.398,9247.95
822.672,9294.65
822.945,9268.6
823.218,9278.8
823.491,9295.2
823.765,9250.7
824.038,9277.2
824.311,9270.3
824.585,9202.4
824.858,9265.55
825.131,9284.9
825.404,9454.05
825.677,9562.4
825.951,9502.75
826.224,9156.4
826.497,8963.5
826.77,9018.55
827.043,8945.2
827.317,8944.0
827.59,8930.85
827.863,8939.1
828.136,8931.6
828.409,8881.45
828.682,8879.65
828.956,8788.65
829.229,8735.6
829.502,8793.7
829.775,8770.9
830.048,8826.0
830.321,8861.55
830.594,8852.7
830.867,8826.6
831.14,8831.95
831.413,8629.7
831.687,8592.75
831.96,8592.75
832.233,8503.5
832.506,8483.9
832.779,8568.8
833.052,8561.9
833.325,8462.35
833.598,8482.9
833.871,8392.5
834.144,8478.8
834.417,8451.75
834.69,8335.15
834.963,8318.6
835.236,8416.7
835.509,8401.2
835.782,8237.4
836.055,8256.65
836.328,8330.45
836.601,8352.5
836.874,8380.3
837.147,8421.6
837.419,8374.7
837.692,8302.4
837.965,8295.0
838.238,8340.75
838.511,8408.35
838.784,8318.35
839.057,8270.2
839.33,8210.45
839.603,8195.2
839.876,8152.3
840.148,8307.45
840.421,8472.7
840.694,8491.95
840.967,8523.45
841.24,8473.75
841.513,8407.45
841.785,8365.2
842.058,8176.2
842.331,8145.5
842.604,8105.05
842.877,8195.7
843.149,8164.45
843.422,7996.5
843.695,7927.75
843.968,7900.2
844.24,7908.55
844.513,7952.05
844.786,7814.45
845.059,7734.25
845.331,7736.55
845.604,7732.3
845.877,7725.0
846.15,7742.95
846.422,7656.95
846.695,7654.45
846.968,7625.15
847.24,7588.85
847.513,7658.35
847.786,7684.8
848.058,7570.2
848.331,7565.5
848.604,7550.2
848.876,7545.8
849.149,7489.0
849.421,7530.4
849.694,7545.7
849.967,7465.95
850.239,7491.65
850.512,7508.8
850.784,7439.3
851.057,7440.1
851.33,7443.25
851.602,7406.1
851.875,7412.7
852.147,7427.45
852.42,7544.7
852.692,7547.4
852.965,7442.65
853.237,7410.8
853.51,7395.2
853.782,7356.15
854.055,7368.2
854.327,7323.3
854.6,7351.25
854.872,7299.2
855.145,7299.5
855.417,7307.8
855.69,7215.35
855.962,7225.4
856.235,7245.7
856.507,7233.1
856.779,7318.4
857.052,7283.85
857.324,7273.65
857.597,7245.2
857.869,7283.2
858.142,7323.5
858.414,7379.4
858.686,7409.05
858.959,7402.15
859.231,7357.05
859.503,7335.8
859.776,7443.75
860.048,7404.3
860.32,7279.7
860.593,7279.45
860.865,7272.0
861.137,7195.25
861.41,7141.5
861.682,7097.1
861.954,7108.45
862.226,7048.95
862.499,6972.9
862.771,6977.4
863.043,6991.55
863.315,6991.7
863.588,7059.45
863.86,7002.8
864.132,7034.55
864.404,7070.2
864.677,7085.05
864.949,7025.35
865.221,6906.15
865.493,6905.15
865.765,6883.35
866.038,6878.2
866.31,6826.3
866.582,6874.35
866.854,6855.1
867.126,6853.7
867.398,6743.1
867.67,6682.75
867.943,6775.4
868.215,6756.0
868.487,6786.45
868.759,6791.3
869.031,6803.8
869.303,6795.75
869.575,6847.3
869.847,6889.3
870.119,6835.75
870.391,6893.3
870.663,6927.0
870.935,6897.35
871.207,6906.6
871.479,6987.15
871.751,7084.65
872.023,7087.75
872.295,7121.95
872.567,7197.55
872.839,7098.15
873.111,7048.65
873.383,7004.95
873.655,7070.75
873.927,6957.45
874.199,6849.95
874.471,6767.15
874.743,6747.0
875.015,6724.65
875.287,6665.55
875.559,6547.7
875.831,6535.6
876.103,6633.1
876.374,6636.7
876.646,6557.35
876.918,6518.75
877.19,6469.55
877.462,6426.2
877.734,6501.7
878.006,6441.7
878.277,6434.6
878.549,6446.45
878.821,6400.4
879.093,6354.65
879.365,6412.9
879.636,6414.6
879.908,6416.05
880.18,6408.05
880.452,6351.0
880.723,6364.6
880.995,6346.35
881.267,6365.35
881.539,6344.25
881.81,6378.85
882.082,6333.4
882.354,6300.9
882.626,6316.15
882.897,6297.75
883.169,6275.65
883.441,6263.6
883.712,6191.7
883.984,6234.3
884.256,6269.4
884.527,6296.95
884.799,6271.25
885.07,6206.4
885.342,6184.95
885.614,6235.8
885.885,6220.45
886.157,6203.0
886.428,6165.2
886.7,6122.95
886.972,6111.1
887.243,6059.95
887.515,6042.3
887.786,6120.15
888.058,6098.75
888.329,6023.2
888.601,6077.2
888.872,6034.8
889.144,5926.45
889.415,5908.2
889.687,5933.85
889.958,5945.7
890.23,5943.9
890.501,5922.2
890.773,6002.4
891.044,5984.45
891.316,5938.65
891.587,5904.15
891.859,5963.8
892.13,5980.7
892.401,5948.85
892.673,5871.95
892.944,5829.35
893.216,5819.05
893.487,5763.7
893.758,5761.4
894.03,5803.9
894.301,5773.95
894.572,5738.95
894.844,5730.15
895.115,5712.4
895.386,5711.4
895.658,5760.3
895.929,5771.15
896.2,5772.8
896.472,5800.7
896.743,5906.85
897.014,6004.2
897.285,6153.0
897.557,6339.45
897.828,6464.9
898.099,6409.9
898.37,6321.65
898.642,6281.35
898.913,6155.95
899.184,6010.4
899.455,5867.35
899.726,5745.05
899.998,5642.8
900.269,5588.75
900.54,5572.35
900.811,5548.9
901.082,5494.75
901.353,5499.4
901.625,5465.85
901.896,5446.75
902.167,5446.75
902.438,5437.6
902.709,5485.3
902.98,5489.8
903.251,5475.05
903.522,5458.1
903.793,5447.1
904.064,5455.7
904.335,5436.75
904.606,5440.7
904.877,5377.3
905.148,5389.95
905.419,5436.95
905.69,5515.75
905.961,5643.3
906.232,5687.05
906.503,5727.1
906.774,5785.55
907.045,5864.45
907.316,5918.4
907.587,5919.0
907.858,5899.95
908.129,5788.15
908.4,5703.25
908.671,5596.65
908.942,5487.95
909.213,5403.85
909.484,5368.0
909.755,5326.3
910.025,5303.0
910.296,5278.4
910.567,5218.2
910.838,5201.8
911.109,5194.6
911.38,5146.15
911.65,5127.3
911.921,5160.8
912.192,5146.3
912.463,5149.25
912.734,5127.85
913.004,5093.75
913.275,5104.85
913.546,5099.0
913.817,5081.65
914.087,5053.65
914.358,5048.7
914.629,5051.5
914.9,5002.8
915.17,4997.85
915.441,4974.35
915.712,4995.15
915.982,5003.4
916.253,5010.95
916.524,5030.8
916.794,4978.9
917.065,4976.05
917.336,4968.45
917.606,4933.85
917.877,4928.95
918.147,4949.45
918.418,4947.5
918.689,4922.8
918.959,4944.05
919.23,4913.7
919.5,4905.9
919.771,4895.45
920.042,4893.4
920.312,4852.45
920.583,4882.95
920.853,4893.2
921.124,4874.4
921.394,4836.6
921.665,4836.05
921.935,4818.3
922.206,4827.85
922.476,4846.25
922.747,4807.95
923.017,4792.05
923.287,4789.3
923.558,4783.35
923.828,4770.0
924.099,4775.8
924.369,4778.4
924.639,4771.1
924.91,4759.5
925.18,4738.1
925.451,4731.75
925.721,4740.85
925.991,4743.7
926.262,4732.85
926.532,4705.5
926.802,4687.5
927.073,4685.75
927.343,4665.25
927.613,4675.25
927.884,4679.9
928.154,4668.8
928.424,4620.95
928.694,4630.2
928.965,4621.65
929.235,4607.45
929.505,4601.9
929.775,4605.55
930.046,4592.95
930.316,4594.25
930.586,4603.95
930.856,4582.55
931.126,4549.0
931.397,4549.3
931.667,4541.2
931.937,4555.05
932.207,4552.85
932.477,4531.65
932.747,4519.35
933.017,4510.05
933.288,4516.5
933.558,4518.2
933.828,4504.3
934.098,4505.8
934.368,4507.15
934.638,4480.15
934.908,4483.2
935.178,4463.25
935.448,4445.45
935.718,4443.15
935.988,4433.45
936.258,4457.2
936.528,4459.45
936.798,4443.05
937.068,4441.05
937.338,4434.5
937.608,4419.95
937.878,4411.3
938.148,4398.55
938.418,4397.85
938.688,4391.8
938.958,4393.7
939.228,4376.0
939.498,4371.2
939.767,4369.0
940.037,4374.4
940.307,4370.3
940.577,4384.85
940.847,4365.0
941.117,4351.05
941.387,4352.75
941.656,4360.65
941.926,4344.1
942.196,4347.0
942.466,4336.95
942.736,4318.2
943.005,4305.3
943.275,4323.85
943.545,4314.8
943.815,4286.65
944.084,4286.5
944.354,4286.15
944.624,4292.45
944.894,4279.0
945.163,4271.6
945.433,4285.1
945.703,4269.3
945.972,4275.15
946.242,4278.25
946.512,4263.3
946.781,4242.95
947.051,4237.4
947.321,4240.85
947.59,4245.15
947.86,4229.9
948.13,4226.35
948.399,4230.0
948.669,4228.0
948.938,4236.4
949.208,4226.65
949.477,4218.7
949.747,4231.2
950.016,4220.65
950.286,4209.35
950.556,4201.15
950.825,4191.5
951.095,4174.2
951.364,4182.7
951.634,4177.7
951.903,4180.05
952.172,4172.2
952.442,4172.45
952.711,4168.85
952.981,4163.05
953.25,4154.2
953.52,4153.45
953.789,4153.25
954.058,4150.65
954.328,4147.4
954.597,4138.9
954.867,4136.5
955.136,4134.45
955.405,4133.9
955.675,4139.65
955.944,4117.6
956.213,4111.1
956.483,4112.25
956.752,4115.5
957.021,4108.65
957.29,4109.2
957.56,4108.25
957.829,4107.0
958.098,4100.85
958.367,4087.7
958.637,4096.65
958.906,4083.3
959.175,4089.15
959.444,4090.65
959.714,4083.5
959.983,4074.2
960.252,4070.7
960.521,4073.95
960.79,4066.1
961.059,4073.3
961.328,4074.75
961.598,4060.25
961.867,4059.5
962.136,4057.3
962.405,4055.35
962.674,4040.1
962.943,4044.75
963.212,4046.2
963.481,4048.65
963.75,4032.75
964.019,4031.35
964.288,4029.6
964.557,4026.55
964.826,4020.1
965.095,4016.9
965.364,4023.2
965.633,4026.05
965.902,4013.6
966.171,4017.75
966.44,4021.15
966.709,4013.2
966.978,3999.55
967.247,4002.95
967.516,4005.7
967.785,4001.05
968.054,3998.6
968.323,3994.4
968.591,3993.3
968.86,3984.05
969.129,3990.75
969.398,3993.5
969.667,3985.4
969.936,3979.85
970.204,3974.65
970.473,3979.3
970.742,3977.8
971.011,3977.75
971.28,3968.45
971.548,3973.85
971.817,3976.65
972.086,3975.65
972.355,3969.2
972.623,3963.15
972.892,3960.75
973.161,3952.0
973.429,3949.1
973.698,3943.15
973.967,3943.25
974.235,3937.2
974.504,3935.5
974.773,3942.5
975.041,3945.1
975.31,3945.9
975.579,3937.55
975.847,3935.35
976.116,3935.3
976.384,3930.35
976.653,3928.05
976.922,3922.0
977.19,3917.0
977.459,3918.15
977.727,3914.35
977.996,3914.8
978.264,3915.15
978.533,3917.45
978.801,3911.9
979.07,3913.35
979.338,3906.35
979.607,3904.4
979.875,3904.3
980.143,3911.7
980.412,3911.25
980.68,3907.15
980.949,3898.7
981.217,3896.45
981.486,3903.5
981.754,3896.5
982.022,3904.65
982.291,3898.95
982.559,3894.3
982.827,3889.85
983.096,3886.9
983.364,3885.9
983.632,3886.9
983.901,3883.25
984.169,3878.0
984.437,3875.7
984.705,3873.4
984.974,3875.9
985.242,3878.2
985.51,3878.55
985.778,3871.6
986.047,3868.1
986.315,3866.5
986.583,3865.75
986.851,3866.4
987.119,3869.25
987.388,3866.0
987.656,3868.05
987.924,3861.35
988.192,3866.7
988.46,3864.45
988.728,3862.65
988.996,3854.55
989.264,3855.1
989.533,3855.55
989.801,3848.5
990.069,3852.45
990.337,3848.45
990.605,3846.1
990.873,3841.4
991.141,3844.05
991.409,3840.15
991.677,3838.8
991.945,3839.15
992.213,3835.4
992.481,3836.6
992.749,3837.15
993.017,3832.45
993.285,3835.15
993.553,3832.85
993.82,3828.65
994.088,3829.6
994.356,3828.7
994.624,3827.9
994.892,3830.95
995.16,3824.35
995.428,3822.85
995.696,3816.2
995.963,3818.9
996.231,3817.8
996.499,3817.1
996.767,3818.0
997.035,3815.0
997.302,3811.15
997.57,3815.35
997.838,3813.25
998.106,3809.25
998.373,3810.0
998.641,3812.1
998.909,3811.7
999.177,3809.5
999.444,3804.25
999.712,3804.35
999.98,3804.2
1000.25,3802.5
1000.51,3803.75
1000.78,3807.15
1001.05,3802.9
1001.32,3799.3
1001.59,3794.0
1001.85,3795.2
1002.12,3794.95
1002.39,3792.9
1002.66,3792.15
1002.92,3793.15
1003.19,3794.2
1003.46,3792.95
1003.73,3792.3
1003.99,3791.8
1004.26,3788.4
1004.53,3788.6
1004.8,3787.8
1005.06,3784.5
1005.33,3785.95
1005.6,3784.9
1005.87,3782.15
1006.13,3781.3
1006.4,3784.5
1006.67,3783.55
1006.94,3782.3
1007.2,3780.25
1007.47,3777.85
1007.74,3776.3
1008.0,3776.2
1008.27,3775.4
1008.54,3773.15
1008.81,3770.6
1009.07,3771.25
1009.34,3769.95
1009.61,3772.05
1009.88,3769.4
1010.14,3769.2
1010.41,3773.0
1010.68,3768.5
1010.95,3769.65
1011.21,3767.1
1011.48,3766.0
1011.75,3768.6
1012.01,3765.45
1012.28,3766.15
1012.55,3765.95
1012.82,3763.15
1013.08,3765.8
1013.35,3764.55
1013.62,3766.6
1013.88,3763.3
1014.15,3763.35
1014.42,3762.45
1014.69,3761.55
1014.95,3761.45
1015.22,3759.05
1015.49,3763.95
1015.75,3761.25
1016.02,3756.05
1016.29,3758.25
1016.55,3755.55
1016.82,3755.4
1017.09,3755.7
1017.36,3755.05
1017.62,3755.0
1017.89,3756.5
1018.16,3754.05
1018.42,3753.65
1018.69,3752.25
1018.96,3749.15
1019.22,3750.55
1019.49,3753.45
1019.76,3752.8
1020.02,3757.9
1020.29,3757.1
1020.56,3757.9
1020.83,3755.55
1021.09,3758.65
1021.36,3757.4
1021.63,3756.15
1021.89,3757.55
1022.16,3755.8
1022.43,3759.55
1022.69,3758.75
1022.96,3755.8
1023.23,3754.85
1023.49,3753.0
1023.76,3751.8
1024.03,3750.1
1024.29,3750.45
1024.56,3746.4
1024.83,3745.4
1025.09,3744.6
1025.36,3744.4
1025.63,3742.3
1025.89,3740.3
1026.16,3739.85
1026.43,3743.55
1026.69,3739.95
1026.96,3740.8
1027.23,3736.1
1027.49,3739.45
1027.76,3736.7
1028.03,3737.45
1028.29,3735.3
1028.56,3734.15
1028.83,3733.4
1029.09,3734.3
1029.36,3730.65
1029.62,3732.3
1029.89,3731.4
1030.16,3730.5
1030.42,3730.35
1030.69,3728.5
1030.96,3729.0
1031.22,3730.35
1031.49,3729.85
1031.76,3729.45
1032.02,3729.15
1032.29,3729.6
1032.56,3729.65
1032.82,3730.5
1033.09,3730.25
1033.35,3732.2
1033.62,3734.05
1033.89,3733.3
1034.15,3735.25
1034.42,3734.9
1034.69,3734.05
1034.95,3733.95
1035.22,3733.0
1035.48,3731.75
1035.75,3730.05
1036.02,3730.05
1036.28,3729.1
1036.55,3727.95
1036.81,3728.1
1037.08,3726.05
1037.35,3726.2
1037.61,3723.6
1037.88,3723.4
1038.15,3722.05
1038.41,3721.65
1038.68,3720.25
1038.94,3720.6
1039.21,3721.3
1039.48,3721.0
1039.74,3718.85
1040.01,3719.05
1040.27,3719.3
1040.54,3717.95
1040.81,3719.15
1041.07,3718.55
1041.34,3717.45
1041.6,3717.45
1041.87,3716.25
1042.14,3717.3
1042.4,3717.0
1042.67,3717.4
1042.93,3718.0
1043.2,3715.35
1043.47,3716.4
1043.73,3717.4
1044.0,3714.6
1044.26,3716.55
1044.53,3714.65
1044.79,3715.55
1045.06,3714.5
1045.33,3715.4
1045.59,3713.85
1045.86,3712.9
1046.12,3714.05
1046.39,3713.1
1046.65,3714.35
1046.92,3713.1
1047.19,3713.8
1047.45,3714.15
1047.72,3713.95
1047.98,3714.0
1048.25,3714.2
1048.51,3713.1
1048.78,3712.1
1049.05,3713.1
1049.31,3711.65
1049.58,3712.1
1049.84,3713.1
1050.11,3711.95
1050.37,3712.1
1050.64,3712.8
1050.91,3712.75
1051.17,3711.05
1051.44,3712.45
1051.7,3712.4
1051.97,3713.2
1052.23,3711.25
1052.5,3713.0
1052.76,3713.05
1053.03,3711.15
1053.29,3710.95
1053.56,3711.3
1053.83,3711.25
1054.09,3711.5
1054.36,3711.1
1054.62,3710.95
1054.89,3710.4
1055.15,3711.9
1055.42,3712.05
1055.68,3710.85
1055.95,3710.95
1056.21,3709.55
1056.48,3710.2
1056.74,3709.0
1057.01,3708.3
1057.27,3711.05
1057.54,3709.1
1057.81,3710.15
1058.07,3709.3
1058.34,3710.2
1058.6,3708.8
1058.87,3708.7
1059.13,3710.45
1059.4,3709.85
1059.66,3709.4
1059.93,3707.75
1060.19,3709.15
1060.46,3708.9
1060.72,3709.0
1060.99,3711.15
1061.25,3708.25
1061.52,3708.25
1061.78,3708.45
1062.05,3708.25
1062.31,3708.3
1062.58,3708.45
1062.84,3707.7
1063.11,3707.8
1063.37,3707.45
1063.64,3709.15
1063.9,3706.9
1064.17,3707.8
1064.43,3707.8
1064.7,3708.3
1064.96,3707.6
1065.23,3708.2
1065.49,3707.25
1065.76,3707.9
1066.02,3707.2
1066.29,3706.55
1066.55,3705.95
1066.82,3706.4
1067.08,3707.2
1067.35,3707.1
1067.61,3707.05
1067.88,3707.5