File: spectra/VLFR_08-PLA_bio_Raman_576c8f94.csv
nm,Intensity
528.626,1862.5
528.795,1864.3
528.963,1863.7
529.132,1862.7
529.3,1864.8
529.469,1863.8
529.637,1864.1
529.806,1864.4
529.974,1864.0
530.143,1864.6
530.311,1863.8
530.48,1866.1
530.648,1864.8
530.816,1865.6
530.985,1866.7
531.153,1866.6
531.322,1868.8
531.49,1874.9
531.658,1921.0
531.827,2735.2
531.995,5133.2
532.164,4921.3
532.332,2277.6
532.5,1870.6
532.669,1867.1
532.837,1866.4
533.006,1866.1
533.174,1868.5
533.342,1869.8
533.511,1910.4
533.679,2157.3
533.847,2650.1
534.016,2944.3
534.184,2985.3
534.352,2883.3
534.521,2809.9
534.689,2782.1
534.857,2714.1
535.025,2680.2
535.194,2658.8
535.362,2621.6
535.53,2605.3
535.699,2556.3
535.867,2510.6
536.035,2480.6
536.203,2513.1
536.372,2513.5
536.54,2540.6
536.708,2552.6
536.876,2480.8
537.044,2446.6
537.213,2454.0
537.381,2487.2
537.549,2509.4
537.717,2478.7
537.885,2476.8
538.054,2459.1
538.222,2393.4
538.39,2396.5
538.558,2392.5
538.726,2386.4
538.894,2388.0
539.063,2382.1
539.231,2404.5
539.399,2371.8
539.567,2358.4
539.735,2329.0
539.903,2315.9
540.071,2334.0
540.239,2352.8
540.408,2404.6
540.576,2455.4
540.744,2463.2
540.912,2452.1
541.08,2446.0
541.248,2457.7
541.416,2422.7
541.584,2384.7
541.752,2398.9
541.92,2377.4
542.088,2352.5
542.256,2373.9
542.424,2374.8
542.592,2371.8
542.76,2400.3
542.928,2413.4
543.096,2445.8
543.264,2487.5
543.432,2563.9
543.6,2601.9
543.768,2612.6
543.936,2563.6
544.104,2544.7
544.272,2481.8
544.44,2427.1
544.608,2404.3
544.776,2368.5
544.944,2359.7
545.112,2358.2
545.28,2370.1
545.448,2345.9
545.616,2339.2
545.784,2355.6
545.951,2344.9
546.119,2359.4
546.287,2338.9
546.455,2340.1
546.623,2345.7
546.791,2364.2
546.959,2390.5
547.127,2376.7
547.294,2377.9
547.462,2362.8
547.63,2345.2
547.798,2374.5
547.966,2371.4
548.134,2365.8
548.301,2379.7
548.469,2375.7
548.637,2393.4
548.805,2383.8
548.972,2407.0
549.14,2413.1
549.308,2391.8
549.476,2404.8
549.644,2386.5
549.811,2388.4
549.979,2395.9
550.147,2385.1
550.315,2403.1
550.482,2434.1
550.65,2426.8
550.818,2440.8
550.985,2448.5
551.153,2423.2
551.321,2459.2
551.488,2462.4
551.656,2473.0
551.824,2480.1
551.991,2469.8
552.159,2485.3
552.327,2462.4
552.494,2501.5
552.662,2500.3
552.83,2480.3
552.997,2473.2
553.165,2488.8
553.333,2460.6
553.5,2453.0
553.668,2486.4
553.835,2516.3
554.003,2556.3
554.171,2528.9
554.338,2498.2
554.506,2477.6
554.673,2492.1
554.841,2501.1
555.008,2465.8
555.176,2435.6
555.343,2427.4
555.511,2442.1
555.679,2405.8
555.846,2422.3
556.014,2445.0
556.181,2420.6
556.349,2420.3
556.516,2433.3
556.684,2431.7
556.851,2457.7
557.018,2467.1
557.186,2495.7
557.353,2549.9
557.521,2655.9
557.688,2866.7
557.856,3184.0
558.023,3429.9
558.191,3309.6
558.358,2965.7
558.525,2697.7
558.693,2583.3
558.86,2578.7
559.028,2562.9
559.195,2553.9
559.362,2545.0
559.53,2528.4
559.697,2526.4
559.864,2513.7
560.032,2490.3
560.199,2494.1
560.366,2500.6
560.534,2501.0
560.701,2510.8
560.868,2501.5
561.036,2487.1
561.203,2497.9
561.37,2468.2
561.538,2468.6
561.705,2474.6
561.872,2489.9
562.039,2497.2
562.207,2498.6
562.374,2510.9
562.541,2519.6
562.708,2555.7
562.876,2599.9
563.043,2632.5
563.21,2710.8
563.377,2780.7
563.545,2763.0
563.712,2716.3
563.879,2642.3
564.046,2604.8
564.213,2540.9
564.38,2571.9
564.548,2596.1
564.715,2652.6
564.882,2701.6
565.049,2737.0
565.216,2741.9
565.383,2708.5
565.551,2698.5
565.718,2749.8
565.885,2844.3
566.052,2917.1
566.219,2892.0
566.386,2804.1
566.553,2706.9
566.72,2633.5
566.887,2550.3
567.054,2567.3
567.221,2559.2
567.388,2554.9
567.555,2567.6
567.722,2625.8
567.889,2637.2
568.057,2605.0
568.224,2611.7
568.391,2596.6
568.558,2592.0
568.725,2579.8
568.892,2591.4
569.058,2615.2
569.225,2617.1
569.392,2597.0
569.559,2618.5
569.726,2567.4
569.893,2578.7
570.06,2592.0
570.227,2580.1
570.394,2581.8
570.561,2597.6
570.728,2591.5
570.895,2592.5
571.062,2595.8
571.229,2638.2
571.395,2714.2
571.562,2805.9
571.729,2780.9
571.896,2774.4
572.063,2744.8
572.23,2719.1
572.397,2730.0
572.563,2699.6
572.73,2713.5
572.897,2702.3
573.064,2736.8
573.231,2708.3
573.397,2746.1
573.564,2750.0
573.731,2709.1
573.898,2715.5
574.064,2678.2
574.231,2731.4
574.398,2718.1
574.565,2766.7
574.731,2729.2
574.898,2656.4
575.065,2631.8
575.232,2602.9
575.398,2626.3
575.565,2599.2
575.732,2632.6
575.898,2639.3
576.065,2674.4
576.232,2750.6
576.398,2918.0
576.565,3150.6
576.732,3184.7
576.898,3150.1
577.065,3049.4
577.232,2885.7
577.398,2767.4
577.565,2663.1
577.731,2622.2
577.898,2638.6
578.065,2610.3
578.231,2620.8
578.398,2612.8
578.564,2578.5
578.731,2610.7
578.897,2618.1
579.064,2630.8
579.23,2627.6
579.397,2594.7
579.563,2628.7
579.73,2600.8
579.896,2623.6
580.063,2619.8
580.229,2631.6
580.396,2620.4
580.562,2617.2
580.729,2616.2
580.895,2645.6
581.062,2613.2
581.228,2613.7
581.395,2611.6
581.561,2618.3
581.728,2612.9
581.894,2638.9
582.06,2615.6
582.227,2626.9
582.393,2637.0
582.56,2630.8
582.726,2624.4
582.892,2634.1
583.059,2615.9
583.225,2635.3
583.391,2633.3
583.558,2631.7
583.724,2631.6
583.89,2629.3
584.057,2649.7
584.223,2617.3
584.389,2626.1
584.556,2628.2
584.722,2615.6
584.888,2635.3
585.054,2647.3
585.221,2631.0
585.387,2610.6
585.553,2620.0
585.719,2618.2
585.886,2635.8
586.052,2660.1
586.218,2685.6
586.384,2719.3
586.55,2806.3
586.717,2883.2
586.883,2954.5
587.049,2997.1
587.215,3068.4
587.381,3110.1
587.548,3130.3
587.714,3041.5
587.88,2902.4
588.046,2792.1
588.212,2715.0
588.378,2674.3
588.544,2654.1
588.71,2625.9
588.876,2587.9
589.043,2594.7
589.209,2626.6
589.375,2603.3
589.541,2635.2
589.707,2592.9
589.873,2595.1
590.039,2606.6
590.205,2633.0
590.371,2625.6
590.537,2617.2
590.703,2630.5
590.869,2617.6
591.035,2650.8
591.201,2632.5
591.367,2610.9
591.533,2625.8
591.699,2631.7
591.865,2614.4
592.031,2640.8
592.197,2637.7
592.363,2609.0
592.529,2635.7
592.694,2614.9
592.86,2633.8
593.026,2616.6
593.192,2634.9
593.358,2633.4
593.524,2641.3
593.69,2624.8
593.856,2615.7
594.021,2634.1
594.187,2640.1
594.353,2616.4
594.519,2626.8
594.685,2612.7
594.851,2650.1
595.016,2625.7
595.182,2628.5
595.348,2626.4
595.514,2635.4
595.68,2642.3
595.845,2634.2
596.011,2660.3
596.177,2650.4
596.342,2653.4
596.508,2659.0
596.674,2665.4
596.84,2639.6
597.005,2652.7
597.171,2673.4
597.337,2645.1
597.502,2628.7
597.668,2644.9
597.834,2663.6
597.999,2671.7
598.165,2654.8
598.331,2654.6
598.496,2656.5
598.662,2657.1
598.828,2686.7
598.993,2671.3
599.159,2648.3
599.324,2683.8
599.49,2696.8
599.656,2679.5
599.821,2642.1
599.987,2655.8
600.152,2669.2
600.318,2672.0
600.483,2686.7
600.649,2662.9
600.814,2661.5
600.98,2685.3
601.145,2685.2
601.311,2688.3
601.476,2691.9
601.642,2658.3
601.807,2694.0
601.973,2653.6
602.138,2675.5
602.304,2679.9
602.469,2663.9
602.635,2683.8
602.8,2742.2
602.965,2682.8
603.131,2690.7
603.296,2677.6
603.462,2711.5
603.627,2700.9
603.792,2690.7
603.958,2694.3
604.123,2711.6
604.288,2696.9
604.454,2710.7
604.619,2694.0
604.784,2716.5
604.95,2720.3
605.115,2697.1
605.28,2687.0
605.446,2714.1
605.611,2721.1
605.776,2702.8
605.941,2727.8
606.107,2706.0
606.272,2715.0
606.437,2714.5
606.602,2724.1
606.767,2744.9
606.933,2717.0
607.098,2741.7
607.263,2718.6
607.428,2752.8
607.593,2733.9
607.759,2698.8
607.924,2712.1
608.089,2712.6
608.254,2732.1
608.419,2711.1
608.584,2719.1
608.749,2731.6
608.915,2731.9
609.08,2705.8
609.245,2726.0
609.41,2748.0
609.575,2703.6
609.74,2758.8
609.905,2712.3
610.07,2715.5
610.235,2742.6
610.4,2775.4
610.565,2736.7
610.73,2755.0
610.895,2741.9
611.06,2783.2
611.225,2760.7
611.39,2747.6
611.555,2739.9
611.72,2765.7
611.885,2741.6
612.05,2747.1
612.215,2747.4
612.38,2774.9
612.545,2775.4
612.71,2750.3
612.875,2744.1
613.04,2764.1
613.204,2759.8
613.369,2741.5
613.534,2734.9
613.699,2736.8
613.864,2768.0
614.029,2763.2
614.194,2763.4
614.358,2745.3
614.523,2771.5
614.688,2779.7
614.853,2791.2
615.018,2792.8
615.182,2735.1
615.347,2787.3
615.512,2795.9
615.677,2752.3
615.841,2781.2
616.006,2808.1
616.171,2752.8
616.336,2749.8
616.5,2771.6
616.665,2771.1
616.83,2790.7
616.994,2759.6
617.159,2805.6
617.324,2786.8
617.489,2791.9
617.653,2832.8
617.818,2815.7
617.982,2778.6
618.147,2764.4
618.312,2796.3
618.476,2764.8
618.641,2778.7
618.805,2769.6
618.97,2753.7
619.135,2811.9
619.299,2814.5
619.464,2797.8
619.628,2799.2
619.793,2796.5
619.957,2784.0
620.122,2797.2
620.286,2798.8
620.451,2785.2
620.615,2799.6
620.78,2822.2
620.944,2776.2
621.109,2795.9
621.273,2749.5
621.438,2772.6
621.602,2803.3
621.767,2791.6
621.931,2788.2
622.095,2809.7
622.26,2837.9
622.424,2822.0
622.589,2883.2
622.753,2879.1
622.917,2900.9
623.082,2887.5
623.246,2893.4
623.41,2880.3
623.575,2843.5
623.739,2837.6
623.903,2822.4
624.068,2812.8
624.232,2809.0
624.396,2802.1
624.561,2785.2
624.725,2790.4
624.889,2810.0
625.053,2800.4
625.218,2739.6
625.382,2781.6
625.546,2772.7
625.71,2754.2
625.875,2774.6
626.039,2764.9
626.203,2783.0
626.367,2770.1
626.531,2822.2
626.695,2778.3
626.86,2776.2
627.024,2796.2
627.188,2782.6
627.352,2809.8
627.516,2777.6
627.68,2798.4
627.844,2859.0
628.008,2981.2
628.172,3146.5
628.337,3313.1
628.501,3389.5
628.665,3376.6
628.829,3324.1
628.993,3218.1
629.157,3247.4
629.321,3251.5
629.485,3224.3
629.649,3224.6
629.813,3263.6
629.977,3279.6
630.141,3366.8
630.305,3479.2
630.469,3745.3
630.633,4289.3
630.797,5371.2
630.96,6170.3
631.124,6441.2
631.288,5893.7
631.452,5050.5
631.616,4392.9
631.78,4026.5
631.944,3858.9
632.108,3674.9
632.272,3640.3
632.435,3561.9
632.599,3592.8
632.763,3711.8
632.927,4051.6
633.091,4191.9
633.254,4288.6
633.418,4188.0
633.582,4083.7
633.746,3900.9
633.91,3600.6
634.073,3397.5
634.237,3209.0
634.401,3101.6
634.564,2944.6
634.728,2908.5
634.892,2863.8
635.056,2774.9
635.219,2749.5
635.383,2747.3
635.547,2751.1
635.71,2694.8
635.874,2708.6
636.038,2709.4
636.201,2681.6
636.365,2690.3
636.528,2685.1
636.692,2660.5
636.856,2657.1
637.019,2640.8
637.183,2685.5
637.346,2673.8
637.51,2682.2
637.673,2638.5
637.837,2649.1
638.0,2642.2
638.164,2658.5
638.327,2651.7
638.491,2657.1
638.654,2635.8
638.818,2604.2
638.981,2638.0
639.145,2621.1
639.308,2626.3
639.472,2609.3
639.635,2602.7
639.799,2618.4
639.962,2640.2
640.125,2639.3
640.289,2613.9
640.452,2603.4
640.616,2580.5
640.779,2581.9
640.942,2613.9
641.106,2599.8
641.269,2585.9
641.432,2602.3
641.596,2606.7
641.759,2598.8
641.922,2566.6
642.085,2578.3
642.249,2594.4
642.412,2600.2
642.575,2620.2
642.738,2606.6
642.902,2603.1
643.065,2563.1
643.228,2539.6
643.391,2566.6
643.555,2571.6
643.718,2543.2
643.881,2550.3
644.044,2537.5
644.207,2564.5
644.37,2555.8
644.534,2567.3
644.697,2528.0
644.86,2499.2
645.023,2539.6
645.186,2546.4
645.349,2534.5
645.512,2519.0
645.675,2515.3
645.838,2506.6
646.001,2499.2
646.164,2485.8
646.327,2479.2
646.49,2500.1
646.653,2508.1
646.816,2496.1
646.979,2484.3
647.142,2485.2
647.305,2479.3
647.468,2492.2
647.631,2473.4
647.794,2481.2
647.957,2485.0
648.12,2475.7
648.283,2456.8
648.446,2453.7
648.609,2455.4
648.772,2469.0
648.935,2453.5
649.098,2453.2
649.26,2465.5
649.423,2434.9
649.586,2423.8
649.749,2438.6
649.912,2454.2
650.075,2438.6
650.237,2461.8
650.4,2425.0
650.563,2446.7
650.726,2454.2
650.888,2423.7
651.051,2445.4
651.214,2444.4
651.377,2428.2
651.539,2418.4
651.702,2412.2
651.865,2403.9
652.027,2424.2
652.19,2413.6
652.353,2427.5
652.515,2399.4
652.678,2419.3
652.841,2404.4
653.003,2390.2
653.166,2403.1
653.329,2380.1
653.491,2375.3
653.654,2369.5
653.816,2378.5
653.979,2383.0
654.142,2362.1
654.304,2389.9
654.467,2355.2
654.629,2365.3
654.792,2359.0
654.954,2367.8
655.117,2371.6
655.279,2366.7
655.442,2348.5
655.604,2340.6
655.767,2366.0
655.929,2338.4
656.091,2342.8
656.254,2294.3
656.416,2335.1
656.579,2316.5
656.741,2351.5
656.904,2316.4
657.066,2340.0
657.228,2343.2
657.391,2311.6
657.553,2335.7
657.715,2334.9
657.878,2337.6
658.04,2334.6
658.202,2328.5
658.365,2304.3
658.527,2331.5
658.689,2312.7
658.851,2314.6
659.014,2293.8
659.176,2306.9
659.338,2311.4
659.5,2278.8
659.663,2301.6
659.825,2306.3
659.987,2303.5
660.149,2299.8
660.311,2313.0
660.474,2315.9
660.636,2274.4
660.798,2274.3
660.96,2286.3
661.041,2308.3