File: spectra/VLFR_02-HDPE_nobio_Raman_6f6388c4.csv
cm-1,Intensity
-123.878,1854.55
-117.855,1856.05
-111.836,1854.4
-105.821,1854.55
-99.8104,1853.9
-93.8036,1854.2
-87.8007,1856.3
-81.8019,1854.8
-75.807,1855.55
-69.8161,1856.5
-63.8293,1854.95
-57.8464,1855.9
-51.8675,1855.9
-45.8926,1856.5
-39.9216,1857.05
-33.9547,1858.2
-27.9917,1857.5
-22.0326,1860.35
-16.0776,1875.6
-10.1265,2126.8
-4.17932,2946.9
1.76388,2966.5
7.70313,1948.15
13.6384,1857.0
19.5698,1858.85
25.4972,1857.1
31.4207,1856.4
37.3403,1858.3
43.256,1862.05
49.1677,1901.7
55.0755,2137.95
60.9794,2588.85
66.8794,2920.1
72.7754,3065.35
78.6676,3046.4
84.5559,3036.15
90.4402,3076.25
96.3207,3113.4
102.197,3110.6
108.07,3133.75
113.939,3159.9
119.804,3184.0
125.665,3152.85
131.522,3163.65
137.375,3177.4
143.225,3157.8
149.07,3194.35
154.912,3186.05
160.75,3201.8
166.584,3187.3
172.414,3186.45
178.241,3235.7
184.063,3256.3
189.882,3267.85
195.697,3277.1
201.508,3257.0
207.315,3264.1
213.119,3288.3
218.918,3260.45
224.714,3267.45
230.506,3280.6
236.294,3295.95
242.078,3362.65
247.859,3304.1
253.636,3299.8
259.409,3349.35
265.178,3377.25
270.943,3427.7
276.705,3427.55
282.463,3416.05
288.217,3422.8
293.967,3465.75
299.713,3473.15
305.456,3519.9
311.195,3500.85
316.93,3495.85
322.662,3519.4
328.389,3511.9
334.113,3510.3
339.834,3540.35
345.55,3569.95
351.263,3591.1
356.972,3570.95
362.677,3638.1
368.379,3636.1
374.077,3626.3
379.771,3678.9
385.461,3659.45
391.148,3671.85
396.831,3678.95
402.51,3736.65
408.186,3756.8
413.858,3786.6
419.526,3779.45
425.19,3813.2
430.851,3847.3
436.508,3882.3
442.162,3858.75
447.811,3841.4
453.458,3847.05
459.1,3912.4
464.739,3928.75
470.374,3968.45
476.005,3952.75
481.633,3924.25
487.257,3943.3
492.878,3979.4
498.494,3967.1
504.107,4074.7
509.717,4036.3
515.323,4072.95
520.925,4064.0
526.524,4003.15
532.119,4083.45
537.71,4136.35
543.298,4170.4
548.882,4251.0
554.462,4226.35
560.039,4232.2
565.613,4249.1
571.182,4246.9
576.748,4226.3
582.311,4228.7
587.87,4309.75
593.425,4350.85
598.977,4277.45
604.525,4316.2
610.069,4267.85
615.61,4310.45
621.148,4301.55
626.682,4281.8
632.212,4363.2
637.739,4453.0
643.262,4408.55
648.781,4485.8
654.297,4500.5
659.81,4536.55
665.319,4620.65
670.824,4527.8
676.326,4582.75
681.824,4629.0
687.319,4661.2
692.81,4612.15
698.298,4605.1
703.782,4639.25
709.262,4630.35
714.739,4640.05
720.213,4634.85
725.683,4641.2
731.15,4667.2
736.613,4710.1
742.072,4639.15
747.528,4814.8
752.981,4721.5
758.43,4705.7
763.875,4770.05
769.317,4819.75
774.756,4935.5
780.191,4813.6
785.623,4870.2
791.051,4819.0
796.475,4899.15
801.897,4932.65
807.314,4987.35
812.729,4992.65
818.139,4994.2
823.547,5016.85
828.951,5038.4
834.351,5007.95
839.748,5010.75
845.142,5014.4
850.532,4944.4
855.918,4975.2
861.302,5060.9
866.681,5070.15
872.058,5091.3
877.431,5076.95
882.8,5076.4
888.166,5123.95
893.529,5112.3
898.888,5188.65
904.244,5125.7
909.596,5198.75
914.945,5366.85
920.291,5306.05
925.633,5362.5
930.972,5373.55
936.308,5339.05
941.64,5368.0
946.968,5366.6
952.294,5391.3
957.615,5452.25
962.934,5391.15
968.249,5444.9
973.561,5420.2
978.869,5457.5
984.174,5402.95
989.476,5432.75
994.774,5503.1
1000.07,5516.95
1005.36,5488.85
1010.65,5456.25
1015.93,5551.25
1021.22,5536.65
1026.49,5580.35
1031.77,5687.3
1037.04,5594.0
1042.31,5715.0
1047.57,5646.8
1052.83,5760.95
1058.09,5769.65
1063.35,5855.6
1068.6,5787.3
1073.85,5838.55
1079.09,5819.35
1084.33,5808.35
1089.57,5946.65
1094.81,5890.35
1100.04,5805.9
1105.27,5807.85
1110.49,5908.2
1115.71,5867.95
1120.93,5949.6
1126.15,5860.05
1131.36,5986.7
1136.57,5875.6
1141.77,5867.05
1146.98,5932.75
1152.18,6056.35
1157.37,6055.25
1162.56,6022.8
1167.75,6147.65
1172.94,6084.95
1178.12,6157.75
1183.3,6242.65
1188.48,6232.5
1193.65,6265.25
1198.82,6245.2
1203.99,6363.2
1209.15,6283.55
1214.31,6250.9
1219.46,6486.2
1224.62,6157.2
1229.77,6286.75
1234.92,6417.75
1240.06,6287.1
1245.2,6363.35
1250.34,6318.75
1255.47,6360.0
1260.6,6394.55
1265.73,6450.85
1270.85,6289.65
1275.97,6453.15
1281.09,6479.1
1286.21,6543.75
1291.32,6648.3
1296.43,6636.55
1301.53,6807.05
1306.63,6720.25
1311.73,6749.25
1316.83,6755.15
1321.92,6835.25
1327.01,6806.65
1332.1,6876.35
1337.18,6853.65
1342.26,6836.35
1347.34,6834.75
1352.41,6878.8
1357.48,6665.3
1362.55,6787.3
1367.61,6740.8
1372.67,6721.6
1377.73,6607.35
1382.78,6623.95
1387.84,6670.6
1392.88,6810.1
1397.93,6752.7
1402.97,6806.8
1408.01,6855.4
1413.05,6834.55
1418.08,6890.75
1423.11,6964.85
1428.14,7023.1
1433.16,7126.65
1438.18,6960.4
1443.2,7149.45
1448.21,7221.2
1453.22,7099.85
1458.23,7160.15
1463.23,7139.85
1468.23,7292.95
1473.23,7134.9
1478.23,6979.35
1483.22,7050.3
1488.21,7054.7
1493.2,7054.3
1498.18,7046.9
1503.16,6936.2
1508.14,6973.2
1513.11,6950.5
1518.08,7131.9
1523.05,7034.95
1528.01,7039.1
1532.97,7139.1
1537.93,7241.9
1542.89,7193.55
1547.84,7230.8
1552.79,7411.8
1557.73,7257.75
1562.68,7513.35
1567.62,7330.9
1572.56,7502.2
1577.49,7475.4
1582.42,7499.8
1587.35,7413.25
1592.27,7432.1
1597.19,7370.2
1602.11,7264.45
1607.03,7382.65
1611.94,7413.15
1616.85,7346.8
1621.76,7222.4
1626.66,7350.0
1631.56,7294.4
1636.46,7179.4
1641.36,7150.45
1646.25,7257.75
1651.14,7340.3
1656.02,7163.35
1660.9,7242.3
1665.78,7308.05
1670.66,7188.35
1675.54,7415.8
1680.41,7282.45
1685.27,7456.2
1690.14,7289.95
1695.0,7290.7
1699.86,7351.4
1704.71,7316.15
1709.57,7399.6
1714.42,7276.15
1719.26,7236.85
1724.11,7466.45
1728.95,7096.7
1733.79,7349.95
1738.62,7228.25
1743.46,7273.45
1748.28,7337.5
1753.11,7199.8
1757.93,7219.0
1762.75,7336.1
1767.57,7300.5
1772.39,7284.3
1777.2,7373.6
1782.01,7411.65
1786.81,7397.15
1791.62,7356.0
1796.41,7405.25
1801.21,7362.3
1806.01,7417.55
1810.8,7569.9
1815.59,7490.1
1820.37,7509.1
1825.15,7371.35
1829.93,7471.3
1834.71,7454.5
1839.48,7499.0
1844.25,7533.2
1849.02,7373.2
1853.79,7568.4
1858.55,7488.2
1863.31,7505.45
1868.06,7577.0
1872.82,7542.65
1877.57,7595.1
1882.31,7473.85
1887.06,7476.9
1891.8,7562.05
1896.54,7586.55
1901.28,7595.45
1906.01,7630.0
1910.74,7399.05
1915.47,7671.85
1920.19,7602.95
1924.91,7676.2
1929.63,7649.25
1934.35,7670.6
1939.06,7712.8
1943.77,7674.05
1948.48,7742.3
1953.19,7784.1
1957.89,7794.0
1962.59,7736.3
1967.28,7859.15
1971.98,7813.8
1976.67,7794.45
1981.35,7903.05
1986.04,7783.3
1990.72,7788.75
1995.4,7910.2
2000.08,7852.2
2004.75,7754.65
2009.42,7934.55
2014.09,7939.2
2018.75,7920.85
2023.42,8143.65
2028.08,7981.85
2032.73,7966.6
2037.39,7886.65
2042.04,8054.85
2046.69,8011.2
2051.33,8007.45
2055.97,8080.5
2060.61,8323.1
2065.25,8122.65
2069.88,8419.15
2074.52,8075.4
2079.15,8148.0
2083.77,8266.45
2088.39,8316.05
2093.01,8294.1
2097.63,8253.25
2102.25,8359.9
2106.86,8399.55
2111.47,8315.3
2116.08,8317.25
2120.68,8374.7
2125.28,8299.75
2129.88,8431.05
2134.47,8315.75
2139.07,8575.1
2143.66,8420.25
2148.24,8339.9
2152.83,8370.25
2157.41,8526.7
2161.99,8485.45
2166.57,8531.6
2171.14,8438.1
2175.71,8444.9
2180.28,8779.1
2184.84,8580.2
2189.41,8703.15
2193.97,8622.9
2198.52,8679.6
2203.08,8603.7
2207.63,8809.65
2212.18,8875.55
2216.73,8829.15
2221.27,8846.55
2225.81,8621.3
2230.35,8690.7
2234.89,8949.3
2239.42,8848.55
2243.95,8825.7
2248.48,8780.35
2253.0,8799.8
2257.52,8945.0
2262.04,8950.85
2266.56,8714.3
2271.07,8885.85
2275.58,9046.45
2280.09,8712.25
2284.6,8719.3
2289.1,9029.65
2293.6,8891.25
2298.1,8847.3
2302.6,9194.55
2307.09,9021.7
2311.58,9134.8
2316.07,9209.5
2320.55,8872.4
2325.03,9287.05
2329.51,9095.3
2333.99,9214.6
2338.46,9286.2
2342.93,9250.55
2347.4,9346.75
2351.87,9185.6
2356.33,9240.35
2360.79,9516.15
2365.25,9121.6
2369.71,9232.3
2374.16,9244.1
2378.61,9107.55
2383.06,9189.9
2387.5,9403.45
2391.94,9165.8
2396.38,9300.55
2400.82,9387.9
2405.26,9249.2
2409.69,9158.35
2414.12,9634.75
2418.54,9404.3
2422.97,9428.3
2427.39,9595.7
2431.81,9549.9
2436.22,9564.1
2440.64,9483.05
2445.05,9464.4
2449.46,9558.75
2453.86,9431.25
2458.27,9669.7
2462.67,9685.25
2467.06,9642.55
2471.46,9575.5
2475.85,9477.95
2480.24,9572.25
2484.63,9658.3
2489.02,9484.5
2493.4,9566.95
2497.78,9505.7
2502.16,9784.55
2506.53,9394.05
2510.9,9709.85
2515.27,9600.85
2519.64,9437.0
2524.0,9744.4
2528.37,9599.0
2532.73,9518.05
2537.08,9454.75
2541.44,9680.75
2545.79,9648.4
2550.14,9675.85
2554.48,9689.85
2558.83,9799.4
2563.17,9698.9
2567.51,9588.65
2571.85,9730.3
2576.18,9637.2
2580.51,9791.65
2584.84,9713.4
2589.17,9636.7
2593.49,9899.7
2597.81,9811.05
2602.13,9765.55
2606.45,9615.85
2610.76,9681.3
2615.07,9929.75
2619.38,9678.75
2623.69,9825.75
2627.99,9661.1
2632.29,9695.5
2636.59,9732.55
2640.89,9640.05
2645.18,9761.75
2649.47,9804.2
2653.76,9682.5
2658.05,9916.05
2662.33,9479.15
2666.61,9833.4
2670.89,9856.55
2675.17,9875.15
2679.44,9562.2
2683.71,9685.75
2687.98,9667.4
2692.25,10048.8
2696.51,10020.3
2700.77,9615.1
2705.03,9994.3
2709.29,9792.1
2713.54,9794.25
2717.79,9865.2
2722.04,9632.0
2726.29,9867.75
2730.53,9842.4
2734.77,9706.25
2739.01,9686.7
2743.25,9768.5
2747.48,9877.3
2751.71,9676.8
2755.94,9720.25
2760.17,9641.0
2764.39,9853.6
2768.61,9661.75
2772.83,9551.8
2777.05,9548.6
2781.27,9518.7
2785.48,9544.75
2789.69,9624.4
2793.89,9604.75
2798.1,9495.6
2802.3,9665.2
2806.5,9703.25
2810.7,9522.9
2814.89,9768.35
2819.09,9857.45
2823.28,9493.9
2827.46,9673.35
2831.65,9659.75
2835.83,9727.2
2840.01,9666.45
2844.19,9881.15
2848.37,9790.15
2852.54,9930.85
2856.71,9723.05
2860.88,9563.25
2865.05,9932.4
2869.21,9730.0
2873.37,10013.0
2877.53,9730.15
2881.69,10011.4
2885.84,9833.7
2889.99,9755.35
2894.14,9818.1
2898.29,9688.25
2902.43,9676.85
2906.58,9365.5
2910.72,9776.55
2914.85,9943.5
2918.99,9688.5
2923.12,9746.6
2927.25,9621.95
2931.38,9771.05
2935.5,9673.4
2939.63,9742.45
2943.75,9803.35
2947.87,9886.6
2951.98,9604.85
2956.1,9289.35
2960.21,9683.8
2964.32,9713.4
2968.42,9428.65
2972.53,9400.1
2976.63,9499.75
2980.73,9796.05
2984.83,9538.3
2988.92,9263.45
2993.01,9056.45
2997.1,9395.0
3001.19,9380.05
3005.28,9437.5
3009.36,9174.85
3013.44,9265.4
3017.52,9415.0
3021.6,9215.95
3025.67,9132.95
3029.74,9120.5
3033.81,9204.9
3037.88,9126.8
3041.94,9354.0
3046.01,9113.05
3050.07,8996.65
3054.12,9076.9
3058.18,8846.6
3062.23,9135.75
3066.28,9210.8
3070.33,8983.95
3074.38,9119.05
3078.42,9205.3
3082.46,9097.9
3086.5,9191.6
3090.54,8977.5
3094.57,9083.45
3098.6,8864.3
3102.63,8837.5
3106.66,9114.55
3110.69,9084.9
3114.71,8800.4
3118.73,8911.15
3122.75,8931.6
3126.77,8703.65
3130.78,9018.85
3134.79,8867.55
3138.8,8531.35
3142.81,8774.35
3146.81,8996.05
3150.82,8784.85
3154.82,8488.6
3158.81,8796.85
3162.81,8688.1
3166.8,8743.2
3170.79,8711.65
3174.78,8687.35
3178.77,8557.1
3182.75,8374.45
3186.74,8585.65
3190.72,8550.65
3194.69,8658.8
3198.67,8457.1
3202.64,8764.65
3206.61,8553.95
3210.58,8691.4
3214.55,8487.4
3218.51,8625.35
3222.47,8569.95
3226.43,8532.15
3230.39,8644.35
3234.35,8531.65
3238.3,8406.05
3242.25,8583.95
3246.2,8442.8
3250.15,8342.0
3254.09,8598.1
3258.03,8465.35
3261.97,8367.4
3265.91,8220.35
3269.84,8337.35
3273.78,8221.3
3277.71,8244.0
3281.64,8487.45
3285.56,8620.3
3289.49,8390.0
3293.41,8350.5
3297.33,8290.3
3301.25,8417.15
3305.16,8331.85
3309.07,8013.45
3312.99,8145.5
3316.89,8316.45
3320.8,8225.8
3324.7,8155.45
3328.61,8298.5
3332.51,8213.5
3336.4,8137.1
3340.3,7842.1
3344.19,8357.75
3348.08,8240.2
3351.97,8073.8
3355.86,8227.65
3359.74,8085.6
3363.63,8031.2
3367.51,7716.35
3371.39,7818.3
3375.26,8143.25
3379.13,8152.7
3383.01,7924.85
3386.88,7711.75
3390.74,7648.65
3394.61,7708.4
3398.47,7838.6
3402.33,7826.0
3406.19,7902.0
3410.05,7671.6
3413.9,7794.45
3417.75,7798.9
3421.6,7641.95
3425.45,7775.5
3429.3,7604.0
3433.14,7576.85
3436.98,7797.45
3440.82,7870.3
3444.66,7803.75
3448.49,7254.2
3452.32,7685.25
3456.15,7883.0
3459.98,7796.05
3463.81,7637.95
3467.63,7506.55
3471.46,7686.95
3475.28,7628.05
3479.09,7660.35
3482.91,7670.45
3486.72,7443.95
3490.53,7438.55
3494.34,7505.45
3498.15,7516.15
3501.96,7423.5
3505.76,7212.7
3509.56,7291.4
3513.36,7449.05
3517.15,7322.7
3520.95,7037.1
3524.74,7183.25
3528.53,7371.85
3532.32,7187.25
3536.11,7461.15
3539.89,7359.25
3543.67,7230.45
3547.45,6877.6
3551.23,6987.65
3555.0,7162.4
3558.78,6940.0
3562.55,7301.15
3566.32,7261.6
3570.09,6997.15
3573.85,7034.35
3577.61,6929.0
3581.37,7296.45
3585.13,7006.5
3588.89,6990.4
3592.64,6899.25
3596.4,6960.9
3600.15,7057.4
3603.9,7118.7
3607.64,6793.55
3611.39,7014.85
3615.13,6759.55
3618.87,6894.95
3622.61,6731.1
3626.34,6772.8
3630.08,6842.35
3633.81,6745.75
3637.54,6694.3
3641.27,6652.8
3644.99,6730.95
3648.72,6640.05
3652.44,6650.15
3656.16,6755.9
3659.87,6599.25
3663.59,6648.15
3665.45,6706.45