File: spectra/VLFR_01-LDPE_bio_Raman_c537c5d4.csv
nm,Intensity
528.637,1836.7
528.806,1835.2
528.974,1836.6
529.143,1836.1
529.311,1837.2
529.48,1836.5
529.648,1836.5
529.816,1836.2
529.985,1835.0
530.153,1838.3
530.322,1835.8
530.49,1839.3
530.659,1837.0
530.827,1838.6
530.995,1838.7
531.164,1838.5
531.332,1840.7
531.5,1847.5
531.669,1884.4
531.837,2702.6
532.006,5866.6
532.174,4681.6
532.342,2099.7
532.511,1841.4
532.679,1837.6
532.847,1838.4
533.016,1840.0
533.184,1839.6
533.352,1846.0
533.521,1910.9
533.689,2232.0
533.857,2769.4
534.025,3026.6
534.194,3043.5
534.362,2908.8
534.53,2849.7
534.699,2871.3
534.867,2808.1
535.035,2768.4
535.203,2645.7
535.372,2588.7
535.54,2534.8
535.708,2467.7
535.876,2414.2
536.045,2363.6
536.213,2330.0
536.381,2329.2
536.549,2307.6
536.717,2305.6
536.886,2291.6
537.054,2286.1
537.222,2287.3
537.39,2282.0
537.558,2297.0
537.726,2290.4
537.895,2289.5
538.063,2251.1
538.231,2259.5
538.399,2234.8
538.567,2204.7
538.735,2182.0
538.903,2166.9
539.072,2152.9
539.24,2144.8
539.408,2134.5
539.576,2129.0
539.744,2127.5
539.912,2113.0
540.08,2110.1
540.248,2113.0
540.416,2102.5
540.584,2095.7
540.752,2091.7
540.92,2095.8
541.088,2083.6
541.256,2076.5
541.425,2072.3
541.593,2075.8
541.761,2083.8
541.929,2074.3
542.097,2070.9
542.265,2076.0
542.433,2068.1
542.601,2065.9
542.769,2055.2
542.937,2057.1
543.104,2062.7
543.272,2057.1
543.44,2056.2
543.608,2062.2
543.776,2073.3
543.944,2063.2
544.112,2062.8
544.28,2050.0
544.448,2044.7
544.616,2038.0
544.784,2042.8
544.952,2052.0
545.12,2032.1
545.288,2040.1
545.455,2039.4
545.623,2028.5
545.791,2022.7
545.959,2041.8
546.127,2028.5
546.295,2017.2
546.463,2021.0
546.63,2040.0
546.798,2027.5
546.966,2027.8
547.134,2024.1
547.302,2023.0
547.47,2021.5
547.637,2020.0
547.805,2024.0
547.973,2020.5
548.141,2021.6
548.308,2029.5
548.476,2014.8
548.644,2007.7
548.812,2010.4
548.98,2019.1
549.147,1998.4
549.315,2003.1
549.483,2004.4
549.65,1998.1
549.818,2010.8
549.986,1994.0
550.154,1994.7
550.321,1995.8
550.489,1989.3
550.657,1995.7
550.824,1996.9
550.992,1994.8
551.16,1998.2
551.327,1999.7
551.495,2003.4
551.663,2000.7
551.83,2013.0
551.998,2016.6
552.166,2009.0
552.333,2008.7
552.501,2002.5
552.668,2017.2
552.836,2023.8
553.004,2038.5
553.171,2073.0
553.339,2089.8
553.506,2102.3
553.674,2080.4
553.842,2099.2
554.009,2093.9
554.177,2094.2
554.344,2099.4
554.512,2104.5
554.679,2112.5
554.847,2115.0
555.014,2117.8
555.182,2117.2
555.349,2137.3
555.517,2132.2
555.684,2150.1
555.852,2171.8
556.019,2165.3
556.187,2186.8
556.354,2196.7
556.522,2221.0
556.689,2221.0
556.857,2249.6
557.024,2256.9
557.192,2263.3
557.359,2285.4
557.526,2320.1
557.694,2315.6
557.861,2332.1
558.029,2373.0
558.196,2376.7
558.363,2376.8
558.531,2373.4
558.698,2364.0
558.866,2337.5
559.033,2287.1
559.2,2276.8
559.368,2261.0
559.535,2236.9
559.702,2241.3
559.87,2223.8
560.037,2213.7
560.204,2200.3
560.372,2187.6
560.539,2196.9
560.706,2203.1
560.873,2200.2
561.041,2213.4
561.208,2216.3
561.375,2196.5
561.543,2215.1
561.71,2218.9
561.877,2222.0
562.044,2255.7
562.211,2281.5
562.379,2284.1
562.546,2302.6
562.713,2334.3
562.88,2351.1
563.048,2370.1
563.215,2427.8
563.382,2453.5
563.549,2588.5
563.716,2993.8
563.883,3938.9
564.051,4426.4
564.218,3575.1
564.385,2951.1
564.552,2887.2
564.719,2830.6
564.886,2774.6
565.053,2641.6
565.221,2577.5
565.388,2541.7
565.555,2620.0
565.722,2862.1
565.889,3480.6
566.056,4427.7
566.223,4385.0
566.39,3264.3
566.557,2708.3
566.724,2507.6
566.891,2439.1
567.058,2416.4
567.225,2455.9
567.392,2515.7
567.559,2494.5
567.726,2354.2
567.893,2304.0
568.06,2273.5
568.227,2268.8
568.394,2283.9
568.561,2290.2
568.728,2285.0
568.895,2262.3
569.062,2279.8
569.229,2293.8
569.396,2287.1
569.563,2300.8
569.73,2287.4
569.897,2307.0
570.064,2325.8
570.231,2375.5
570.398,2428.9
570.564,2465.4
570.731,2527.0
570.898,2581.9
571.065,2749.2
571.232,3445.8
571.399,5015.1
571.566,5870.6
571.732,4360.0
571.899,3384.3
572.066,3072.9
572.233,2850.7
572.4,2685.0
572.566,2586.7
572.733,2508.9
572.9,2452.7
573.067,2446.2
573.234,2476.6
573.4,2428.2
573.567,2473.6
573.734,2562.2
573.901,2665.2
574.067,2598.7
574.234,2499.9
574.401,2432.1
574.568,2401.1
574.734,2420.0
574.901,2449.2
575.068,2480.1
575.234,2768.2
575.401,3440.0
575.568,3996.2
575.734,3849.1
575.901,3934.1
576.068,4809.3
576.234,5454.8
576.401,5331.5
576.568,4867.7
576.734,4600.4
576.901,4522.8
577.067,4321.1
577.234,3806.3
577.401,3398.0
577.567,3026.5
577.734,2857.7
577.9,2774.0
578.067,2721.1
578.233,2691.8
578.4,2692.4
578.567,2667.9
578.733,2691.5
578.9,2685.3
579.066,2693.8
579.233,2666.7
579.399,2724.4
579.566,2717.6
579.732,2732.7
579.899,2758.4
580.065,2738.0
580.231,2724.6
580.398,2757.7
580.564,2754.7
580.731,2768.8
580.897,2771.2
581.064,2767.0
581.23,2771.3
581.397,2817.3
581.563,2787.2
581.729,2821.5
581.896,2834.5
582.062,2822.4
582.228,2798.4
582.395,2812.7
582.561,2883.3
582.728,2875.2
582.894,2840.3
583.06,2866.0
583.227,2894.1
583.393,2858.0
583.559,2888.4
583.726,2933.5
583.892,2886.1
584.058,2924.7
584.224,2938.3
584.391,2928.6
584.557,2906.3
584.723,2944.2
584.889,2944.1
585.056,2950.2
585.222,2990.8
585.388,2977.1
585.554,2944.9
585.721,2992.1
585.887,2984.4
586.053,3006.9
586.219,2979.0
586.385,3060.8
586.552,3057.2
586.718,3068.4
586.884,3088.9
587.05,3104.3
587.216,3085.9
587.382,3134.9
587.549,3123.1
587.715,3150.1
587.881,3145.9
588.047,3172.5
588.213,3187.2
588.379,3210.7
588.545,3234.5
588.711,3222.9
588.877,3213.5
589.043,3283.5
589.209,3245.7
589.375,3343.2
589.542,3268.8
589.708,3315.0
589.874,3349.7
590.04,3321.8
590.206,3357.2
590.372,3387.7
590.538,3460.7
590.704,3407.3
590.87,3470.3
591.036,3423.9
591.201,3466.4
591.367,3485.8
591.533,3509.5
591.699,3523.9
591.865,3552.9
592.031,3528.1
592.197,3565.3
592.363,3572.2
592.529,3561.1
592.695,3554.5
592.861,3596.0
593.027,3617.2
593.192,3603.4
593.358,3615.1
593.524,3604.8
593.69,3605.1
593.856,3626.1
594.022,3613.3
594.187,3666.1
594.353,3632.2
594.519,3717.7
594.685,3662.9
594.851,3679.9
595.016,3746.5
595.182,3729.3
595.348,3737.2
595.514,3734.3
595.679,3730.9
595.845,3742.8
596.011,3843.0
596.177,3848.6
596.342,3803.9
596.508,3842.3
596.674,3866.4
596.84,3899.1
597.005,3881.4
597.171,3909.0
597.337,3888.8
597.502,3929.0
597.668,3925.6
597.833,3963.5
597.999,4050.9
598.165,4017.6
598.33,3988.9
598.496,4033.1
598.662,4091.9
598.827,4128.3
598.993,4088.8
599.158,4118.5
599.324,4122.0
599.489,4147.2
599.655,4165.4
599.821,4183.4
599.986,4274.7
600.152,4146.3
600.317,4196.7
600.483,4218.1
600.648,4187.5
600.814,4182.8
600.979,4158.0
601.145,4201.9
601.31,4207.8
601.476,4234.2
601.641,4203.2
601.807,4249.9
601.972,4250.8
602.137,4178.1
602.303,4229.1
602.468,4208.1
602.634,4185.8
602.799,4143.3
602.964,4149.6
603.13,4091.1
603.295,4086.6
603.461,4081.0
603.626,4029.4
603.791,3984.8
603.957,3997.5
604.122,3974.9
604.287,3891.2
604.453,3974.4
604.618,3877.7
604.783,3882.1
604.949,3890.5
605.114,3804.4
605.279,3808.8
605.444,3801.1
605.61,3743.5
605.775,3713.3
605.94,3743.9
606.105,3659.7
606.271,3669.4
606.436,3625.3
606.601,3603.3
606.766,3621.2
606.931,3615.2
607.097,3557.6
607.262,3572.1
607.427,3491.8
607.592,3438.3
607.757,3525.6
607.922,3491.1
608.088,3458.0
608.253,3409.5
608.418,3436.4
608.583,3398.6
608.748,3373.6
608.913,3377.1
609.078,3371.0
609.243,3343.5
609.408,3376.6
609.573,3320.3
609.738,3286.1
609.903,3285.2
610.068,3296.5
610.233,3323.8
610.399,3233.7
610.564,3301.1
610.729,3305.5
610.894,3293.3
611.058,3285.7
611.223,3275.5
611.388,3275.1
611.553,3246.6
611.718,3187.6
611.883,3183.1
612.048,3185.6
612.213,3160.0
612.378,3173.3
612.543,3135.0
612.708,3124.5
612.873,3121.1
613.038,3093.2
613.202,3142.7
613.367,3058.1
613.532,3086.7
613.697,3071.7
613.862,3085.5
614.027,3046.5
614.192,3096.7
614.356,3028.1
614.521,3039.5
614.686,3078.4
614.851,3037.9
615.016,3047.7
615.18,3010.8
615.345,3055.6
615.51,3036.3
615.675,3017.0
615.839,3077.2
616.004,3019.9
616.169,3041.4
616.333,3012.2
616.498,3028.1
616.663,3041.6
616.827,3073.6
616.992,3135.1
617.157,3166.1
617.321,3122.8
617.486,3149.4
617.651,3156.8
617.815,3107.8
617.98,3143.3
618.145,3084.4
618.309,3136.7
618.474,3078.0
618.638,3125.6
618.803,3089.5
618.968,3090.3
619.132,3113.3
619.297,3126.8
619.461,3217.9
619.626,3164.0
619.79,3210.2
619.955,3198.3
620.119,3194.1
620.284,3215.2
620.448,3212.2
620.613,3226.3
620.777,3217.8
620.942,3313.5
621.106,3364.2
621.271,3405.3
621.435,3479.5
621.599,3621.5
621.764,3789.0
621.928,3937.2
622.093,4097.4
622.257,4127.4
622.421,4030.9
622.586,3834.3
622.75,3596.8
622.915,3430.6
623.079,3333.8
623.243,3217.9
623.408,3221.1
623.572,3140.9
623.736,3090.7
623.9,3136.3
624.065,3104.1
624.229,3173.7
624.393,3119.9
624.558,3101.7
624.722,3185.0
624.886,3146.5
625.05,3207.5
625.215,3218.1
625.379,3252.2
625.543,3323.1
625.707,3363.1
625.871,3568.6
626.036,3744.5
626.2,4059.7
626.364,4540.3
626.528,5861.4
626.692,8460.6
626.856,12676.9
627.02,17504.7
627.185,19104.1
627.349,18304.5
627.513,16063.5
627.677,14108.0
627.841,13265.7
628.005,13102.2
628.169,14478.1
628.333,17127.4
628.497,20383.7
628.661,18290.5
628.825,15493.8
628.989,14036.3
629.153,13236.5
629.317,12668.2
629.481,11858.4
629.645,10986.6
629.809,10144.4
629.973,9842.3
630.137,9681.1
630.301,9408.7
630.465,8991.1
630.629,8314.0
630.793,7477.8
630.957,6213.1
631.121,5183.4
631.285,4683.0
631.449,4362.9
631.612,4114.8
631.776,3933.5
631.94,3734.7
632.104,3511.9
632.268,3457.2
632.432,3394.5
632.596,3241.5
632.759,3194.5
632.923,3242.0
633.087,3143.6
633.251,3095.8
633.414,3119.7
633.578,3064.0
633.742,3011.5
633.906,3004.3
634.069,3012.3
634.233,2948.6
634.397,2933.9
634.561,2941.6
634.724,2962.2
634.888,2903.0
635.052,2940.4
635.215,2894.1
635.379,2868.2
635.543,2873.2
635.706,2846.4
635.87,2861.2
636.034,2841.9
636.197,2831.6
636.361,2856.5
636.524,2817.8
636.688,2801.5
636.852,2794.1
637.015,2809.2
637.179,2787.0
637.342,2770.5
637.506,2754.3
637.669,2738.3
637.833,2741.5
637.996,2790.0
638.16,2743.6
638.323,2746.4
638.487,2717.0
638.65,2725.3
638.814,2748.2
638.977,2723.5
639.141,2737.8
639.304,2761.8
639.468,2741.7
639.631,2704.9
639.794,2709.1
639.958,2746.8
640.121,2753.8
640.285,2731.7
640.448,2692.8
640.611,2744.6
640.775,2700.3
640.938,2715.9
641.101,2717.3
641.265,2763.1
641.428,2741.9
641.591,2743.5
641.755,2728.8
641.918,2717.0
642.081,2728.3
642.244,2769.2
642.408,2752.5
642.571,2720.3
642.734,2710.7
642.897,2751.2
643.061,2745.3
643.224,2753.3
643.387,2730.9
643.55,2736.0
643.713,2763.5
643.876,2725.3
644.04,2717.0
644.203,2714.8
644.366,2736.4
644.529,2716.2
644.692,2707.5
644.855,2756.4
645.018,2736.7
645.181,2768.7
645.345,2744.1
645.508,2704.9
645.671,2717.8
645.834,2750.9
645.997,2729.3
646.16,2727.8
646.323,2743.9
646.486,2711.1
646.649,2741.0
646.812,2741.2
646.975,2693.4
647.138,2710.7
647.301,2729.2
647.464,2742.5
647.627,2690.9
647.79,2709.9
647.953,2701.1
648.115,2764.6
648.278,2695.6
648.441,2714.3
648.604,2688.2
648.767,2728.7
648.93,2701.0
649.093,2674.2
649.256,2662.2
649.418,2702.7
649.581,2712.4
649.744,2695.5
649.907,2673.0
650.07,2704.3
650.233,2685.8
650.395,2695.8
650.558,2700.5
650.721,2666.4
650.884,2703.6
651.046,2693.6
651.209,2709.9
651.372,2655.5
651.534,2691.3
651.697,2713.2
651.86,2665.0
652.023,2679.2
652.185,2722.7
652.348,2705.2
652.511,2688.7
652.673,2662.1
652.836,2674.5
652.998,2675.7
653.161,2666.7
653.324,2646.0
653.486,2638.1
653.649,2678.3
653.811,2675.4
653.974,2674.2
654.137,2653.6
654.299,2619.9
654.462,2595.0
654.624,2663.5
654.787,2639.9
654.949,2644.8
655.112,2619.4
655.274,2624.3
655.437,2619.7
655.599,2603.5
655.761,2638.3
655.924,2610.5
656.086,2598.3
656.249,2579.2
656.411,2565.0
656.574,2591.7
656.736,2570.3
656.898,2593.7
657.061,2576.9
657.223,2572.7
657.385,2584.6
657.548,2589.4
657.71,2565.3
657.872,2581.9
658.035,2536.2
658.197,2519.7
658.359,2521.4
658.522,2514.8
658.684,2484.2
658.846,2516.2
659.008,2478.1
659.171,2483.3
659.333,2461.9
659.495,2452.2
659.657,2477.5
659.82,2456.8
659.982,2501.7
660.144,2456.9
660.306,2468.7
660.468,2444.6
660.63,2418.6
660.793,2421.1
660.955,2440.3
661.036,2425.4