File: spectra/VLFR_02-HDPE_bio_Raman_4036845a.csv
nm,Intensity
528.629,1851.6
528.797,1852.15
528.965,1853.2
529.134,1851.4
529.302,1851.65
529.471,1852.65
529.639,1852.05
529.808,1852.65
529.976,1852.25
530.145,1851.95
530.313,1852.3
530.481,1852.25
530.65,1853.2
530.818,1852.85
530.987,1853.05
531.155,1852.45
531.323,1854.05
531.492,1856.65
531.66,1875.55
531.829,2136.05
531.997,2948.6
532.165,2590.55
532.334,1913.8
532.502,1854.45
532.67,1852.7
532.839,1853.1
533.007,1853.95
533.175,1853.25
533.344,1853.2
533.512,1852.4
533.68,1857.0
533.848,1864.85
534.017,1868.3
534.185,1868.4
534.353,1866.65
534.522,1870.25
534.69,1868.8
534.858,1867.3
535.026,1870.6
535.195,1868.45
535.363,1867.35
535.531,1869.15
535.699,1868.35
535.868,1867.45
536.036,1867.25
536.204,1870.05
536.372,1868.35
536.54,1868.8
536.709,1868.5
536.877,1867.35
537.045,1868.0
537.213,1869.0
537.381,1870.55
537.55,1867.8
537.718,1868.05
537.886,1868.05
538.054,1868.4
538.222,1869.3
538.39,1869.6
538.558,1869.3
538.727,1870.8
538.895,1870.75
539.063,1870.1
539.231,1870.45
539.399,1868.8
539.567,1868.55
539.735,1870.15
539.903,1872.05
540.071,1871.1
540.239,1872.1
540.408,1870.6
540.576,1872.55
540.744,1870.35
540.912,1872.0
541.08,1868.2
541.248,1872.65
541.416,1871.55
541.584,1869.55
541.752,1871.5
541.92,1872.05
542.088,1871.7
542.256,1873.25
542.424,1871.85
542.592,1872.55
542.76,1871.8
542.928,1872.1
543.096,1871.75
543.264,1871.1
543.432,1870.2
543.6,1871.2
543.768,1873.1
543.936,1872.25
544.104,1871.2
544.271,1872.15
544.439,1871.85
544.607,1871.5
544.775,1871.9
544.943,1871.85
545.111,1873.4
545.279,1873.75
545.447,1875.5
545.615,1873.4
545.783,1871.6
545.95,1871.6
546.118,1874.35
546.286,1871.3
546.454,1871.55
546.622,1874.55
546.79,1873.25
546.957,1874.2
547.125,1873.45
547.293,1873.8
547.461,1874.35
547.629,1875.2
547.797,1875.7
547.964,1872.0
548.132,1875.1
548.3,1873.4
548.468,1875.7
548.635,1873.0
548.803,1877.05
548.971,1876.1
549.139,1872.55
549.306,1873.25
549.474,1875.5
549.642,1874.85
549.81,1874.85
549.977,1876.2
550.145,1874.95
550.313,1876.95
550.48,1874.2
550.648,1877.2
550.816,1874.3
550.983,1875.4
551.151,1874.15
551.319,1875.45
551.486,1877.4
551.654,1877.25
551.822,1876.2
551.989,1878.25
552.157,1877.45
552.325,1879.95
552.492,1877.0
552.66,1879.2
552.828,1872.85
552.995,1875.85
553.163,1875.85
553.33,1879.6
553.498,1877.45
553.665,1875.95
553.833,1878.05
554.001,1878.9
554.168,1876.95
554.336,1877.0
554.503,1878.8
554.671,1878.7
554.838,1880.5
555.006,1878.3
555.173,1877.4
555.341,1877.7
555.508,1877.45
555.676,1880.2
555.843,1880.9
556.011,1880.4
556.178,1879.0
556.346,1880.65
556.513,1879.55
556.681,1882.45
556.848,1882.15
557.016,1880.05
557.183,1878.85
557.35,1878.75
557.518,1877.15
557.685,1880.95
557.853,1879.85
558.02,1882.45
558.188,1881.95
558.355,1881.9
558.522,1880.4
558.69,1881.05
558.857,1880.95
559.024,1877.2
559.192,1883.9
559.359,1879.55
559.526,1881.35
559.694,1880.2
559.861,1879.4
560.028,1881.65
560.196,1883.0
560.363,1882.35
560.53,1882.4
560.698,1881.95
560.865,1882.75
561.032,1884.85
561.2,1884.65
561.367,1884.35
561.534,1885.6
561.701,1881.65
561.869,1882.0
562.036,1884.55
562.203,1884.25
562.37,1885.15
562.538,1884.1
562.705,1885.45
562.872,1880.95
563.039,1885.9
563.206,1885.85
563.374,1882.55
563.541,1885.3
563.708,1886.55
563.875,1890.95
564.042,1891.45
564.209,1888.0
564.376,1885.35
564.544,1886.45
564.711,1885.25
564.878,1885.4
565.045,1888.2
565.212,1887.3
565.379,1884.9
565.546,1884.65
565.713,1886.65
565.881,1893.1
566.048,1894.05
566.215,1898.0
566.382,1892.1
566.549,1886.9
566.716,1885.35
566.883,1885.6
567.05,1887.3
567.217,1885.6
567.384,1889.15
567.551,1888.9
567.718,1889.55
567.885,1888.7
568.052,1885.8
568.219,1890.35
568.386,1884.55
568.553,1887.0
568.72,1889.0
568.887,1885.5
569.054,1889.0
569.221,1885.85
569.388,1886.85
569.555,1887.55
569.722,1885.55
569.888,1890.4
570.055,1887.15
570.222,1887.2
570.389,1889.25
570.556,1891.5
570.723,1888.75
570.89,1889.0
571.057,1894.65
571.224,1893.8
571.39,1900.75
571.557,1900.2
571.724,1897.45
571.891,1891.65
572.058,1891.6
572.225,1890.15
572.391,1890.0
572.558,1890.95
572.725,1888.7
572.892,1892.45
573.059,1890.35
573.225,1888.85
573.392,1892.55
573.559,1890.5
573.726,1893.9
573.892,1892.85
574.059,1890.75
574.226,1891.85
574.393,1890.7
574.559,1891.95
574.726,1887.95
574.893,1893.45
575.059,1890.0
575.226,1893.55
575.393,1896.95
575.559,1897.2
575.726,1900.6
575.893,1895.05
576.059,1895.2
576.226,1902.4
576.393,1898.5
576.559,1897.15
576.726,1896.7
576.893,1899.2
577.059,1897.5
577.226,1897.0
577.392,1895.35
577.559,1895.45
577.726,1895.35
577.892,1892.05
578.059,1894.1
578.225,1894.05
578.392,1889.05
578.558,1893.7
578.725,1892.9
578.891,1890.95
579.058,1892.6
579.224,1893.6
579.391,1894.15
579.557,1891.8
579.724,1891.95
579.89,1893.4
580.057,1896.3
580.223,1892.85
580.39,1895.05
580.556,1894.3
580.723,1894.9
580.889,1896.7
581.056,1894.3
581.222,1892.3
581.388,1891.5
581.555,1891.05
581.721,1893.2
581.888,1892.9
582.054,1891.55
582.22,1895.0
582.387,1891.85
582.553,1890.4
582.719,1890.3
582.886,1897.1
583.052,1893.0
583.219,1890.1
583.385,1894.8
583.551,1894.0
583.717,1894.25
583.884,1893.65
584.05,1890.85
584.216,1895.25
584.383,1893.85
584.549,1890.6
584.715,1894.05
584.881,1891.3
585.048,1891.75
585.214,1896.6
585.38,1896.1
585.546,1891.1
585.713,1893.15
585.879,1894.6
586.045,1893.55
586.211,1891.35
586.377,1896.95
586.544,1895.0
586.71,1894.55
586.876,1893.45
587.042,1893.8
587.208,1893.7
587.374,1896.5
587.541,1897.45
587.707,1895.85
587.873,1892.6
588.039,1897.2
588.205,1894.4
588.371,1892.0
588.537,1898.95
588.703,1894.3
588.869,1896.8
589.035,1895.05
589.201,1895.55
589.368,1893.9
589.534,1895.75
589.7,1895.15
589.866,1895.0
590.032,1893.65
590.198,1893.35
590.364,1891.7
590.53,1894.6
590.696,1898.7
590.862,1893.7
591.028,1891.25
591.194,1896.7
591.36,1895.45
591.525,1894.1
591.691,1898.3
591.857,1894.6
592.023,1893.35
592.189,1895.65
592.355,1895.25
592.521,1894.5
592.687,1898.05
592.853,1891.5
593.019,1895.6
593.185,1893.45
593.35,1899.45
593.516,1899.0
593.682,1894.3
593.848,1894.7
594.014,1893.7
594.18,1896.1
594.345,1897.5
594.511,1894.95
594.677,1897.6
594.843,1895.4
595.009,1895.75
595.174,1895.0
595.34,1894.95
595.506,1895.7
595.672,1897.95
595.837,1897.8
596.003,1897.45
596.169,1899.15
596.335,1899.05
596.5,1898.55
596.666,1895.8
596.832,1896.15
596.997,1897.95
597.163,1898.8
597.329,1897.45
597.494,1895.6
597.66,1900.4
597.826,1899.55
597.991,1897.45
598.157,1897.3
598.323,1897.95
598.488,1897.35
598.654,1897.4
598.819,1899.3
598.985,1900.9
599.151,1896.3
599.316,1891.85
599.482,1901.75
599.647,1899.35
599.813,1898.15
599.978,1896.3
600.144,1896.75
600.309,1901.0
600.475,1894.65
600.641,1897.05
600.806,1902.3
600.972,1899.6
601.137,1898.5
601.302,1896.35
601.468,1898.0
601.633,1898.05
601.799,1899.35
601.964,1895.85
602.13,1900.55
602.295,1898.95
602.461,1895.25
602.626,1897.85
602.791,1896.75
602.957,1898.2
603.122,1895.7
603.288,1898.7
603.453,1897.2
603.618,1897.7
603.784,1899.55
603.949,1901.3
604.114,1900.15
604.28,1893.75
604.445,1893.25
604.61,1897.55
604.776,1898.55
604.941,1896.5
605.106,1897.45
605.272,1897.0
605.437,1901.5
605.602,1898.05
605.767,1899.5
605.933,1896.9
606.098,1895.7
606.263,1894.3
606.428,1899.8
606.593,1896.0
606.759,1893.35
606.924,1896.3
607.089,1895.4
607.254,1898.3
607.419,1899.05
607.585,1890.9
607.75,1894.0
607.915,1895.5
608.08,1899.7
608.245,1894.25
608.41,1895.45
608.575,1896.2
608.74,1896.0
608.906,1894.7
609.071,1897.85
609.236,1897.85
609.401,1897.55
609.566,1892.5
609.731,1890.85
609.896,1898.85
610.061,1896.75
610.226,1894.0
610.391,1893.05
610.556,1899.0
610.721,1893.65
610.886,1898.45
611.051,1899.95
611.216,1894.7
611.381,1895.35
611.546,1895.7
611.711,1900.6
611.876,1895.65
612.041,1896.85
612.206,1893.55
612.371,1893.4
612.536,1893.55
612.7,1896.45
612.865,1898.45
613.03,1897.1
613.195,1893.2
613.36,1895.6
613.525,1894.1
613.69,1895.7
613.855,1895.45
614.019,1897.7
614.184,1891.45
614.349,1891.4
614.514,1890.5
614.679,1893.1
614.843,1893.2
615.008,1893.7
615.173,1890.85
615.338,1893.7
615.503,1891.5
615.667,1896.1
615.832,1890.25
615.997,1893.65
616.161,1891.8
616.326,1898.8
616.491,1889.15
616.656,1893.1
616.82,1890.85
616.985,1895.05
617.15,1893.5
617.314,1890.6
617.479,1893.7
617.644,1894.6
617.808,1891.9
617.973,1890.65
618.137,1894.3
618.302,1892.0
618.467,1895.25
618.631,1894.55
618.796,1891.4
618.96,1891.25
619.125,1894.15
619.289,1892.5
619.454,1894.0
619.619,1896.3
619.783,1891.45
619.948,1892.75
620.112,1893.25
620.277,1895.7
620.441,1893.35
620.606,1894.2
620.77,1891.3
620.935,1893.6
621.099,1894.45
621.263,1890.15
621.428,1898.2
621.592,1895.65
621.757,1892.95
621.921,1895.5
622.086,1895.9
622.25,1897.45
622.414,1893.4
622.579,1897.2
622.743,1894.95
622.907,1893.45
623.072,1894.25
623.236,1895.1
623.401,1888.55
623.565,1891.2
623.729,1893.3
623.893,1893.95
624.058,1889.4
624.222,1891.7
624.386,1893.0
624.551,1890.65
624.715,1892.95
624.879,1890.3
625.043,1890.35
625.208,1893.6
625.372,1892.3
625.536,1889.8
625.7,1890.35
625.864,1894.05
626.029,1891.25
626.193,1893.35
626.357,1893.35
626.521,1905.0
626.685,1911.2
626.849,1918.0
627.014,1934.75
627.178,1941.6
627.342,1933.7
627.506,1931.2
627.67,1924.45
627.834,1916.6
627.998,1919.5
628.162,1926.6
628.326,1936.45
628.49,1946.45
628.654,1940.35
628.818,1921.4
628.983,1913.35
629.147,1915.95
629.311,1915.8
629.475,1913.9
629.639,1901.25
629.803,1907.5
629.966,1902.2
630.13,1909.1
630.294,1905.75
630.458,1908.4
630.622,1900.05
630.786,1897.75
630.95,1893.5
631.114,1893.45
631.278,1889.3
631.442,1891.95
631.606,1893.15
631.77,1888.25
631.933,1889.9
632.097,1888.35
632.261,1890.5
632.425,1887.4
632.589,1885.75
632.753,1889.15
632.916,1887.45
633.08,1888.55
633.244,1885.4
633.408,1886.3
633.572,1888.0
633.735,1889.9
633.899,1887.1
634.063,1884.25
634.227,1888.2
634.39,1890.4
634.554,1885.1
634.718,1886.8
634.881,1887.0
635.045,1884.25
635.209,1886.05
635.372,1890.0
635.536,1886.8
635.7,1882.95
635.863,1883.65
636.027,1885.2
636.191,1885.75
636.354,1887.8
636.518,1886.5
636.681,1886.7
636.845,1887.25
637.009,1883.45
637.172,1886.15
637.336,1883.55
637.499,1884.55
637.663,1883.95
637.826,1885.75
637.99,1885.55
638.153,1885.85
638.317,1886.1
638.48,1883.35
638.644,1885.95
638.807,1882.6
638.971,1881.9
639.134,1882.4
639.298,1883.0
639.461,1882.0
639.625,1884.1
639.788,1884.5
639.951,1880.55
640.115,1882.75
640.278,1882.85
640.441,1881.3
640.605,1881.5
640.768,1884.25
640.932,1881.4
641.095,1883.55
641.258,1880.55
641.422,1880.35
641.585,1883.25
641.748,1885.2
641.911,1883.8
642.075,1881.7
642.238,1882.15
642.401,1884.5
642.565,1882.95
642.728,1884.45
642.891,1882.55
643.054,1882.6
643.217,1881.5
643.381,1878.8
643.544,1884.15
643.707,1880.8
643.87,1885.1
644.033,1882.2
644.197,1881.85
644.36,1880.2
644.523,1882.2
644.686,1886.3
644.849,1881.7
645.012,1877.5
645.175,1878.2
645.338,1879.05
645.501,1880.85
645.664,1878.5
645.828,1880.7
645.991,1881.9
646.154,1880.45
646.317,1882.4
646.48,1881.2
646.643,1879.8
646.806,1880.75
646.969,1879.9
647.132,1878.2
647.295,1882.5
647.458,1878.55
647.621,1879.25
647.783,1879.1
647.946,1876.9
648.109,1879.4
648.272,1879.6
648.435,1878.9
648.598,1880.15
648.761,1877.3
648.924,1878.05
649.087,1877.35
649.25,1877.25
649.412,1882.65
649.575,1880.8
649.738,1878.9
649.901,1879.1
650.064,1877.3
650.226,1877.05
650.389,1880.0
650.552,1878.7
650.715,1880.85
650.878,1875.85
651.04,1876.8
651.203,1877.6
651.366,1878.9
651.528,1877.15
651.691,1877.1
651.854,1878.5
652.017,1878.85
652.179,1875.6
652.342,1877.3
652.505,1878.35
652.667,1879.3
652.83,1875.8
652.992,1877.2
653.155,1877.15
653.318,1877.5
653.48,1877.85
653.643,1877.4
653.805,1873.25
653.968,1875.5
654.131,1873.85
654.293,1874.85
654.456,1874.5
654.618,1875.15
654.781,1877.35
654.943,1875.7
655.106,1873.2
655.268,1878.25
655.431,1875.55
655.593,1874.75
655.756,1874.35
655.918,1876.5
656.081,1875.4
656.243,1875.2
656.405,1874.8
656.568,1875.5
656.73,1874.85
656.893,1872.4
657.055,1871.7
657.217,1872.35
657.38,1874.8
657.542,1872.3
657.704,1870.4
657.867,1874.45
658.029,1872.2
658.191,1872.1
658.354,1870.1
658.516,1874.65
658.678,1870.95
658.84,1869.75
659.003,1873.5
659.165,1871.55
659.327,1870.5
659.489,1872.25
659.652,1866.85
659.814,1872.9
659.976,1872.25
660.138,1871.05
660.3,1871.25
660.463,1869.7
660.625,1870.65
660.787,1870.05
660.949,1870.55
661.03,1871.1