File: spectra/VLFR_09-PET_bio_Raman_2b44f570.csv
nm,Intensity
528.65,1847.3
528.819,1849.7
528.987,1851.85
529.155,1848.9
529.324,1848.35
529.492,1850.05
529.66,1849.1
529.829,1849.5
529.997,1849.85
530.165,1849.75
530.334,1849.3
530.502,1848.6
530.67,1847.8
530.839,1848.75
531.007,1850.15
531.175,1850.2
531.344,1851.5
531.512,1854.35
531.68,1880.85
531.848,2373.0
532.017,3318.6
532.185,2902.45
532.353,1935.25
532.521,1852.15
532.69,1852.15
532.858,1852.45
533.026,1854.7
533.194,1857.7
533.363,1865.2
533.531,1946.85
533.699,2491.8
533.867,3529.3
534.036,4234.55
534.204,4429.1
534.372,4311.85
534.54,4279.5
534.708,4295.3
534.877,4279.9
535.045,4261.15
535.213,4276.4
535.381,4253.95
535.549,4272.4
535.717,4182.0
535.886,4134.1
536.054,4140.2
536.222,4089.05
536.39,4148.25
536.558,4137.05
536.726,4094.8
536.894,4131.0
537.062,4157.15
537.231,4198.5
537.399,4212.6
537.567,4305.9
537.735,4253.0
537.903,4272.45
538.071,4243.8
538.239,4337.9
538.407,4352.0
538.575,4323.15
538.743,4359.95
538.911,4385.6
539.079,4410.65
539.247,4382.5
539.415,4489.7
539.583,4491.95
539.751,4524.6
539.919,4608.2
540.087,4578.2
540.255,4559.05
540.423,4544.65
540.591,4581.1
540.759,4570.85
540.927,4626.2
541.095,4644.6
541.263,4568.85
541.431,4612.55
541.599,4720.15
541.767,4618.35
541.935,4674.45
542.103,4691.6
542.271,4726.7
542.439,4790.8
542.607,4734.6
542.775,4793.35
542.943,4931.5
543.111,4841.9
543.279,4841.35
543.446,4811.8
543.614,4814.85
543.782,4850.4
543.95,4902.65
544.118,4968.3
544.286,4902.6
544.454,5026.6
544.622,4984.35
544.789,4918.2
544.957,5086.05
545.125,5072.4
545.293,5063.75
545.461,4999.1
545.629,5173.9
545.796,5092.9
545.964,5123.55
546.132,5177.2
546.3,5137.5
546.468,5190.85
546.635,5109.1
546.803,5288.25
546.971,5248.4
547.139,5296.6
547.306,5273.55
547.474,5223.2
547.642,5250.55
547.81,5373.0
547.977,5381.2
548.145,5435.0
548.313,5461.0
548.481,5438.85
548.648,5485.7
548.816,5506.35
548.984,5462.55
549.151,5517.25
549.319,5532.8
549.487,5444.6
549.655,5505.2
549.822,5482.55
549.99,5616.45
550.158,5450.8
550.325,5522.5
550.493,5801.55
550.66,5958.1
550.828,5743.0
550.996,5715.85
551.163,5675.55
551.331,5793.8
551.499,5715.55
551.666,5775.5
551.834,5772.1
552.001,5936.8
552.169,5824.45
552.337,5759.45
552.504,5786.45
552.672,5767.6
552.839,5971.5
553.007,5942.55
553.174,5895.7
553.342,5872.0
553.509,5793.75
553.677,5885.7
553.844,6003.5
554.012,5992.4
554.179,6007.4
554.347,6014.75
554.514,5917.25
554.682,5969.3
554.849,6131.2
555.017,6061.45
555.184,6013.55
555.352,6136.25
555.519,6242.35
555.687,6159.55
555.854,6248.2
556.022,6187.95
556.189,6298.1
556.357,6258.7
556.524,6181.7
556.691,6283.4
556.859,6335.55
557.026,6312.85
557.194,6470.35
557.361,6707.5
557.528,6775.95
557.696,6855.2
557.863,6620.85
558.031,6480.8
558.198,6529.65
558.365,6424.5
558.533,6408.75
558.7,6549.65
558.867,6464.85
559.035,6563.2
559.202,6475.6
559.369,6439.7
559.537,6527.05
559.704,6504.95
559.871,6546.35
560.038,6520.05
560.206,6657.3
560.373,6554.85
560.54,6560.15
560.708,6640.8
560.875,6706.3
561.042,6673.25
561.209,6711.55
561.377,6787.75
561.544,6772.15
561.711,6842.7
561.878,6822.6
562.045,6973.85
562.213,6849.25
562.38,6892.6
562.547,7054.45
562.714,6873.05
562.881,6897.95
563.049,7040.6
563.216,6873.1
563.383,7000.85
563.55,6955.45
563.717,6911.55
563.884,6959.95
564.052,6984.0
564.219,6989.25
564.386,7253.8
564.553,7205.2
564.72,7339.9
564.887,7340.2
565.054,7464.2
565.221,7523.3
565.388,7502.0
565.556,7498.9
565.723,7470.45
565.89,7525.5
566.057,7541.05
566.224,7431.45
566.391,7385.55
566.558,7348.65
566.725,7392.65
566.892,7339.15
567.059,7338.55
567.226,7476.0
567.393,7469.3
567.56,7427.15
567.727,7673.85
567.894,7605.75
568.061,7612.8
568.228,7728.4
568.395,7588.5
568.562,7580.15
568.729,7609.25
568.896,7553.75
569.063,7615.9
569.23,7729.65
569.396,7716.4
569.563,7616.45
569.73,7882.75
569.897,7827.25
570.064,7684.85
570.231,7841.1
570.398,7964.6
570.565,7946.8
570.732,8197.4
570.898,8339.6
571.065,8594.5
571.232,8686.0
571.399,8741.45
571.566,8673.45
571.733,8530.05
571.9,8333.35
572.066,8219.55
572.233,8276.9
572.4,8017.85
572.567,8001.15
572.734,8369.75
572.9,8113.6
573.067,8001.05
573.234,8074.1
573.401,8091.25
573.567,8107.0
573.734,7939.3
573.901,8095.45
574.068,8223.55
574.234,8050.45
574.401,8032.9
574.568,8241.1
574.734,8267.8
574.901,8113.2
575.068,8284.05
575.235,8421.8
575.401,8475.25
575.568,8475.1
575.735,8158.9
575.901,8315.9
576.068,8239.5
576.235,8420.3
576.401,8426.9
576.568,8650.35
576.734,8568.2
576.901,8362.2
577.068,8496.5
577.234,8455.5
577.401,8310.45
577.567,8534.55
577.734,8333.9
577.901,8486.45
578.067,8399.9
578.234,8245.5
578.4,8325.8
578.567,8417.7
578.733,8512.6
578.9,8399.95
579.066,8587.65
579.233,8532.05
579.399,8461.3
579.566,8546.9
579.732,8555.95
579.899,8513.9
580.065,8515.95
580.232,8519.15
580.398,8667.85
580.565,8824.35
580.731,8809.95
580.898,8591.2
581.064,8640.6
581.231,8887.25
581.397,8806.75
581.563,9079.05
581.73,9533.65
581.896,10418.8
582.063,11771.4
582.229,11707.6
582.395,10020.8
582.562,9119.7
582.728,8892.4
582.895,8716.9
583.061,8866.25
583.227,8802.25
583.394,8806.0
583.56,8843.8
583.726,8787.15
583.893,8837.4
584.059,8755.9
584.225,8744.6
584.391,8866.8
584.558,8831.15
584.724,8768.0
584.89,8781.2
585.057,8925.2
585.223,8935.7
585.389,9315.7
585.555,9502.05
585.722,10161.0
585.888,10462.3
586.054,10478.4
586.22,10275.3
586.386,9606.35
586.553,9364.25
586.719,9248.15
586.885,9247.05
587.051,8752.7
587.217,8948.9
587.384,9147.75
587.55,8772.0
587.716,9117.55
587.882,9019.85
588.048,8957.75
588.214,9015.2
588.38,9098.1
588.546,9038.45
588.713,8930.4
588.879,9076.6
589.045,8828.85
589.211,8894.15
589.377,8874.5
589.543,8937.15
589.709,8878.95
589.875,8873.3
590.041,8921.1
590.207,9082.6
590.373,8877.4
590.539,9061.0
590.705,8904.75
590.871,8904.15
591.037,8922.15
591.203,8989.35
591.369,9161.5
591.535,9071.2
591.701,8950.25
591.867,9197.9
592.033,9142.9
592.199,9179.8
592.365,9037.95
592.531,9159.75
592.697,9083.05
592.863,9024.95
593.029,9092.35
593.195,9114.35
593.361,9187.4
593.526,9135.35
593.692,9047.2
593.858,9117.0
594.024,9080.3
594.19,9141.75
594.356,9085.75
594.522,9163.25
594.687,9182.65
594.853,9148.6
595.019,9123.1
595.185,9256.55
595.351,9305.7
595.516,9402.6
595.682,9220.3
595.848,9249.1
596.014,9183.25
596.18,9419.25
596.345,9358.9
596.511,9301.35
596.677,9317.65
596.843,9323.7
597.008,9379.0
597.174,9242.85
597.34,9258.45
597.505,9601.55
597.671,9349.3
597.837,9267.8
598.002,9356.25
598.168,9454.1
598.334,9420.2
598.499,9436.8
598.665,9359.0
598.831,9332.0
598.996,9376.05
599.162,9547.2
599.328,9666.8
599.493,9379.1
599.659,9638.55
599.824,9570.05
599.99,9461.2
600.156,9509.85
600.321,9557.2
600.487,9517.65
600.652,9665.7
600.818,9618.05
600.983,9638.05
601.149,9511.3
601.314,9690.1
601.48,9713.95
601.645,9518.15
601.811,9757.2
601.976,9591.3
602.142,9708.5
602.307,9647.75
602.473,9702.95
602.638,9575.0
602.804,9894.65
602.969,9819.9
603.135,9703.3
603.3,9880.35
603.466,9781.1
603.631,9736.4
603.796,9933.1
603.962,9704.05
604.127,9818.25
604.293,9846.2
604.458,9862.15
604.623,9750.2
604.789,9948.15
604.954,10117.1
605.119,9769.75
605.285,9981.45
605.45,9927.95
605.615,9985.0
605.781,9999.3
605.946,9812.8
606.111,9911.3
606.277,9943.1
606.442,10164.8
606.607,10217.9
606.772,10142.1
606.938,9990.9
607.103,10129.5
607.268,10011.0
607.433,10304.1
607.599,10387.2
607.764,10122.3
607.929,10017.0
608.094,10258.3
608.259,10366.8
608.425,10285.3
608.59,10249.2
608.755,10122.9
608.92,10314.5
609.085,10369.7
609.25,10351.2
609.415,10322.1
609.581,10387.9
609.746,10249.3
609.911,10488.7
610.076,10550.9
610.241,10519.6
610.406,10584.5
610.571,10419.5
610.736,10609.5
610.901,10562.3
611.066,10634.0
611.231,10804.3
611.396,10691.5
611.561,10712.8
611.727,10723.9
611.892,10564.9
612.057,10471.1
612.222,10868.7
612.386,10869.0
612.551,10776.5
612.716,10820.3
612.881,10677.0
613.046,10800.5
613.211,10683.8
613.376,10989.2
613.541,10913.7
613.706,10819.3
613.871,10919.0
614.036,11277.0
614.201,10888.9
614.366,11337.3
614.531,10951.5
614.695,10977.3
614.86,10956.4
615.025,11407.2
615.19,11068.9
615.355,11378.3
615.52,11130.8
615.684,11351.1
615.849,11426.4
616.014,11389.6
616.179,11131.3
616.344,11227.3
616.508,11650.4
616.673,11470.8
616.838,11234.8
617.003,11506.5
617.168,11549.8
617.332,11571.3
617.497,11413.2
617.662,11546.5
617.826,11552.5
617.991,11913.0
618.156,11924.7
618.32,11610.7
618.485,11857.8
618.65,11590.0
618.814,11879.2
618.979,12055.5
619.144,11684.4
619.308,11712.0
619.473,11970.3
619.638,11902.7
619.802,12029.0
619.967,12155.0
620.131,12122.0
620.296,12408.3
620.461,12148.5
620.625,12050.0
620.79,12133.1
620.954,12093.3
621.119,12287.3
621.283,12249.8
621.448,12333.5
621.612,12268.1
621.777,12233.6
621.941,12310.8
622.106,12247.4
622.27,12610.4
622.435,12453.7
622.599,12496.4
622.764,12480.3
622.928,12392.0
623.093,12371.8
623.257,12828.9
623.422,12596.8
623.586,12580.6
623.75,12517.0
623.915,12628.4
624.079,12676.7
624.244,12839.4
624.408,12999.7
624.572,12998.4
624.737,12793.9
624.901,12797.8
625.065,12927.5
625.23,12697.0
625.394,12847.8
625.558,13014.6
625.723,12774.3
625.887,13042.3
626.051,13026.5
626.215,13006.2
626.38,12852.5
626.544,13188.1
626.708,13130.0
626.872,12913.8
627.037,13257.8
627.201,13129.8
627.365,13196.1
627.529,13434.6
627.693,13168.6
627.858,13284.9
628.022,13141.1
628.186,13510.7
628.35,13431.3
628.514,13140.7
628.678,13394.0
628.843,13503.0
629.007,13567.3
629.171,13801.8
629.335,13445.5
629.499,14222.0
629.663,13928.6
629.827,13381.7
629.991,13522.7
630.155,13610.5
630.319,13640.0
630.483,14050.9
630.647,13384.5
630.812,13907.8
630.976,13916.2
631.14,13907.8
631.304,13857.0
631.468,14142.8
631.632,14238.3
631.796,14209.0
631.959,14284.5
632.123,14041.7
632.287,14369.6
632.451,14448.0
632.615,14129.3
632.779,14423.3
632.943,14620.3
633.107,13788.3
633.271,14409.3
633.435,14795.8
633.599,14456.5
633.763,14090.8
633.926,14246.8
634.09,14035.0
634.254,14236.1
634.418,14294.9
634.582,14471.3
634.746,14166.3
634.909,14229.7
635.073,14380.7
635.237,14177.3
635.401,14358.3
635.564,13866.2
635.728,14269.3
635.892,14570.8
636.056,14800.5
636.219,14997.3
636.383,15042.3
636.547,15012.5
636.711,14880.0
636.874,15072.2
637.038,14889.7
637.202,14533.7
637.365,14430.3
637.529,14305.5
637.693,14149.5
637.856,14695.6
638.02,14259.8
638.184,14157.0
638.347,14814.8
638.511,14530.8
638.674,14496.3
638.838,14387.7
639.002,14391.7
639.165,14406.3
639.329,14565.5
639.492,14350.8
639.656,14253.3
639.819,14282.5
639.983,14364.5
640.146,14656.9
640.31,14601.3
640.473,14601.4
640.637,14155.3
640.8,14177.6
640.964,14047.8
641.127,14215.3
641.291,14599.2
641.454,14270.8
641.618,14373.6
641.781,14381.8
641.944,14603.2
642.108,14187.3
642.271,14129.2
642.435,14233.8
642.598,15234.8
642.761,14631.2
642.925,14207.5
643.088,14349.5
643.251,14469.4
643.415,14097.5
643.578,14631.1
643.741,14372.3
643.905,14911.7
644.068,14570.3
644.231,14079.0
644.394,14579.5
644.558,14346.9
644.721,14361.8
644.884,14237.3
645.047,14427.6
645.211,14309.1
645.374,14534.6
645.537,14154.0
645.7,14578.7
645.863,14354.2
646.027,14161.3
646.19,14378.1
646.353,14225.0
646.516,14324.4
646.679,14179.2
646.842,15030.3
647.005,14209.1
647.169,13956.5
647.332,14464.4
647.495,14236.0
647.658,14447.3
647.821,13989.2
647.984,14428.8
648.147,14506.5
648.31,14313.0
648.473,13848.6
648.636,13846.7
648.799,14304.9
648.962,14189.5
649.125,13956.3
649.288,14042.2
649.451,13955.0
649.614,13833.8
649.777,14141.0
649.94,13843.1
650.103,14435.2
650.266,13545.4
650.429,14301.7
650.592,13875.9
650.755,14020.0
650.918,13658.3
651.08,14045.3
651.243,13628.0
651.406,13939.5
651.569,13853.3
651.732,14154.7
651.895,13860.4
652.058,13666.0
652.22,13609.0
652.383,13528.6
652.546,13646.5
652.709,13798.4
652.872,13965.8
653.034,13691.3
653.197,13404.2
653.36,13201.8
653.523,13373.2
653.685,13367.5
653.848,13562.9
654.011,13374.5
654.173,13145.4
654.336,13204.0
654.499,13131.2
654.662,12991.7
654.824,13140.1
654.987,13263.1
655.149,13253.0
655.312,13177.7
655.475,12892.3
655.637,12977.0
655.8,13608.9
655.963,13412.9
656.125,13295.1
656.288,13067.0
656.45,12991.2
656.613,13217.0
656.775,12728.8
656.938,12680.8
657.1,12883.8
657.263,12937.8
657.425,12870.8
657.588,12605.0
657.75,12550.0
657.913,13230.1
658.075,12630.2
658.238,12409.0
658.4,12393.2
658.563,12511.2
658.725,12569.5
658.888,12709.0
659.05,12103.6
659.212,12007.5
659.375,12022.4
659.537,12327.6
659.7,12480.4
659.862,12548.9
660.024,12013.3
660.187,12573.7
660.349,12309.1
660.511,11932.5
660.674,12106.9
660.836,11748.0
660.998,11863.0
661.079,11572.8