File: spectra/VLFR_06-PET_bio_Raman_494e72ec.csv
nm,Intensity
528.637,1840.0
528.806,1837.3
528.974,1839.4
529.143,1840.5
529.311,1839.3
529.48,1837.8
529.648,1838.2
529.816,1840.3
529.985,1837.5
530.153,1840.8
530.322,1838.7
530.49,1839.7
530.659,1839.8
530.827,1839.0
530.995,1840.1
531.164,1842.1
531.332,1844.3
531.5,1846.4
531.669,1881.7
531.837,2395.5
532.006,4270.3
532.174,3970.4
532.342,2019.2
532.511,1846.9
532.679,1846.4
532.847,1847.5
533.016,1851.8
533.184,1861.9
533.352,1902.7
533.521,2320.7
533.689,4717.9
533.857,8434.2
534.025,10300.2
534.194,9895.6
534.362,9271.4
534.53,8333.0
534.699,8037.1
534.867,7241.7
535.035,6531.1
535.203,6066.5
535.372,5483.7
535.54,4873.5
535.708,4370.9
535.876,4023.1
536.045,3746.0
536.213,3500.9
536.381,3379.9
536.549,3241.8
536.717,3150.1
536.886,3111.5
537.054,3071.2
537.222,3039.0
537.39,2986.3
537.558,2945.7
537.726,2946.1
537.895,2951.4
538.063,2928.5
538.231,2985.3
538.399,2989.6
538.567,2984.1
538.735,2942.6
538.903,2932.1
539.072,2975.2
539.24,2973.2
539.408,3069.8
539.576,3155.3
539.744,3205.7
539.912,3194.0
540.08,3098.9
540.248,2988.9
540.416,2870.0
540.584,2825.7
540.752,2800.9
540.92,2751.9
541.088,2729.0
541.256,2684.6
541.425,2691.9
541.593,2714.3
541.761,2697.7
541.929,2709.0
542.097,2686.9
542.265,2713.0
542.433,2693.0
542.601,2700.5
542.769,2723.1
542.937,2679.9
543.104,2704.0
543.272,2723.7
543.44,2690.0
543.608,2732.4
543.776,2766.7
543.944,2757.3
544.112,2827.0
544.28,2764.7
544.448,2788.7
544.616,2797.0
544.784,2787.5
544.952,2773.7
545.12,2778.5
545.288,2805.0
545.455,2808.0
545.623,2835.2
545.791,2837.3
545.959,2848.8
546.127,2870.3
546.295,2837.0
546.463,2844.8
546.63,2829.5
546.798,2849.3
546.966,2871.5
547.134,2842.2
547.302,2830.9
547.47,2876.0
547.637,2842.1
547.805,2849.2
547.973,2879.4
548.141,2877.6
548.308,2902.7
548.476,2881.7
548.644,2898.3
548.812,2905.1
548.98,2895.4
549.147,2874.8
549.315,2904.7
549.483,2932.0
549.65,2913.8
549.818,2932.1
549.986,2997.9
550.154,2954.0
550.321,3165.1
550.489,3896.2
550.657,4483.7
550.824,3682.5
550.992,3120.5
551.16,3055.7
551.327,3039.6
551.495,3090.9
551.663,3072.7
551.83,3065.6
551.998,3051.8
552.166,3090.5
552.333,3122.1
552.501,3148.4
552.668,3454.4
552.836,3644.4
553.004,3418.8
553.171,3165.6
553.339,3117.4
553.506,3099.1
553.674,3131.1
553.842,3174.9
554.009,3144.1
554.177,3150.8
554.344,3187.3
554.512,3177.8
554.679,3201.9
554.847,3197.0
555.014,3271.4
555.182,3308.0
555.349,3497.8
555.517,3755.4
555.684,3903.9
555.852,3851.7
556.019,3805.7
556.187,3856.8
556.354,3982.3
556.522,3948.0
556.689,3960.3
556.857,4045.2
557.024,4249.5
557.192,4628.5
557.359,5258.0
557.526,5492.3
557.694,5249.7
557.861,4464.6
558.029,4231.2
558.196,4198.1
558.363,4198.5
558.531,4130.4
558.698,4058.3
558.866,3972.2
559.033,3809.5
559.2,3604.0
559.368,3527.7
559.535,3539.4
559.702,3516.6
559.87,3492.8
560.037,3513.9
560.204,3512.1
560.372,3492.5
560.539,3524.9
560.706,3573.8
560.873,3539.8
561.041,3595.3
561.208,3638.6
561.375,3646.0
561.543,3698.5
561.71,3781.8
561.877,3921.9
562.044,4174.2
562.211,4441.4
562.379,4437.1
562.546,4370.1
562.713,4141.4
562.88,4072.5
563.048,3995.9
563.215,3962.1
563.382,3958.9
563.549,3897.9
563.716,3893.5
563.883,3832.4
564.051,3814.1
564.218,3882.8
564.385,3960.5
564.552,4008.2
564.719,4145.4
564.886,4386.4
565.053,4619.4
565.221,4782.2
565.388,5000.2
565.555,5201.5
565.722,5282.1
565.889,5285.5
566.056,5020.8
566.223,4676.3
566.39,4430.7
566.557,4151.4
566.724,4103.9
566.891,4047.6
567.058,4100.1
567.225,4137.2
567.392,4401.5
567.559,4707.9
567.726,4827.2
567.893,4532.4
568.06,4223.3
568.227,4203.0
568.394,4053.9
568.561,4085.1
568.728,4073.2
568.895,4057.4
569.062,4145.5
569.229,4086.6
569.396,4191.3
569.563,4236.2
569.73,4385.9
569.897,4499.8
570.064,4562.6
570.231,4753.1
570.398,5072.5
570.564,5482.2
570.731,6013.1
570.898,6430.9
571.065,6808.2
571.232,7493.7
571.399,7313.8
571.566,6650.2
571.732,6067.0
571.899,5799.5
572.066,5441.6
572.233,5050.7
572.4,4752.4
572.566,4575.4
572.733,4502.4
572.9,4444.3
573.067,4404.1
573.234,4406.8
573.4,4392.1
573.567,4389.8
573.734,4439.0
573.901,4643.4
574.067,4670.7
574.234,4592.5
574.401,4532.7
574.568,4540.0
574.734,4498.8
574.901,4533.4
575.068,4789.8
575.234,4939.5
575.401,4980.7
575.568,4721.8
575.734,4566.2
575.901,4658.6
576.068,4722.1
576.234,4890.9
576.401,5069.9
576.568,5022.2
576.734,4971.1
576.901,5027.3
577.067,4852.4
577.234,4662.7
577.401,4709.9
577.567,4632.5
577.734,4503.6
577.9,4525.5
578.067,4530.1
578.233,4556.0
578.4,4598.3
578.567,4612.0
578.733,4618.3
578.9,4628.4
579.066,4576.9
579.233,4629.4
579.399,4717.3
579.566,4660.5
579.732,4643.6
579.899,4660.6
580.065,4695.6
580.231,4735.5
580.398,4823.2
580.564,4816.7
580.731,4915.1
580.897,5014.1
581.064,5016.9
581.23,5055.8
581.397,5375.6
581.563,5982.9
581.729,7663.9
581.896,11335.8
582.062,15522.5
582.228,15179.8
582.395,9506.4
582.561,6144.8
582.728,5236.4
582.894,5213.8
583.06,5009.1
583.227,4893.6
583.393,4951.0
583.559,4940.7
583.726,4957.2
583.892,4921.3
584.058,4970.1
584.224,4943.9
584.391,5067.9
584.557,5136.8
584.723,5134.7
584.889,5304.8
585.056,5435.6
585.222,5918.4
585.388,6918.2
585.554,8674.1
585.721,10335.2
585.887,11273.0
586.053,11356.2
586.219,10093.8
586.385,8974.3
586.552,7343.3
586.718,6229.2
586.884,5694.1
587.05,5389.8
587.216,5192.5
587.382,5212.9
587.549,5136.5
587.715,5133.4
587.881,5139.3
588.047,5016.5
588.213,4983.8
588.379,5178.0
588.545,5104.5
588.711,5092.7
588.877,5144.7
589.043,5037.1
589.209,5014.2
589.375,4969.3
589.542,5067.6
589.708,4962.2
589.874,4991.7
590.04,5059.8
590.206,5000.8
590.372,5037.1
590.538,5120.8
590.704,5029.1
590.87,5021.4
591.036,5023.6
591.201,5129.7
591.367,5104.0
591.533,5054.3
591.699,5067.9
591.865,4993.6
592.031,5126.0
592.197,5222.0
592.363,5169.7
592.529,5022.6
592.695,5106.6
592.861,5097.8
593.027,5131.1
593.192,5123.3
593.358,5071.5
593.524,5120.2
593.69,5105.1
593.856,5123.3
594.022,5150.1
594.187,5129.7
594.353,5118.0
594.519,5219.6
594.685,5162.6
594.851,5089.1
595.016,5217.4
595.182,5228.6
595.348,5140.4
595.514,5116.7
595.679,5278.6
595.845,5253.9
596.011,5222.0
596.177,5139.1
596.342,5238.7
596.508,5373.3
596.674,5195.2
596.84,5261.1
597.005,5171.5
597.171,5155.9
597.337,5167.7
597.502,5184.6
597.668,5323.0
597.833,5240.0
597.999,5281.6
598.165,5313.2
598.33,5280.9
598.496,5179.0
598.662,5244.4
598.827,5287.7
598.993,5320.9
599.158,5287.3
599.324,5182.7
599.489,5280.6
599.655,5391.6
599.821,5296.3
599.986,5210.9
600.152,5333.4
600.317,5392.4
600.483,5210.6
600.648,5241.5
600.814,5399.7
600.979,5304.7
601.145,5289.9
601.31,5339.6
601.476,5345.6
601.641,5248.9
601.807,5334.8
601.972,5311.2
602.137,5320.8
602.303,5315.2
602.468,5299.6
602.634,5310.2
602.799,5377.1
602.964,5457.6
603.13,5300.0
603.295,5362.9
603.461,5355.8
603.626,5402.0
603.791,5363.1
603.957,5379.9
604.122,5369.1
604.287,5326.7
604.453,5307.2
604.618,5384.5
604.783,5343.1
604.949,5382.5
605.114,5327.0
605.279,5363.2
605.444,5387.7
605.61,5366.9
605.775,5375.8
605.94,5363.4
606.105,5391.7
606.271,5453.1
606.436,5359.7
606.601,5370.5
606.766,5421.7
606.931,5498.5
607.097,5371.5
607.262,5404.4
607.427,5363.2
607.592,5396.4
607.757,5454.6
607.922,5429.7
608.088,5339.2
608.253,5448.0
608.418,5372.7
608.583,5427.5
608.748,5337.7
608.913,5446.4
609.078,5415.1
609.243,5429.0
609.408,5375.4
609.573,5467.7
609.738,5422.3
609.903,5482.2
610.068,5433.0
610.233,5445.5
610.399,5485.1
610.564,5427.4
610.729,5537.9
610.894,5480.3
611.058,5496.5
611.223,5405.8
611.388,5438.5
611.553,5565.2
611.718,5554.9
611.883,5460.2
612.048,5433.6
612.213,5443.1
612.378,5502.6
612.543,5445.5
612.708,5431.8
612.873,5544.6
613.038,5510.9
613.202,5470.7
613.367,5527.1
613.532,5489.1
613.697,5550.2
613.862,5529.2
614.027,5435.9
614.192,5481.2
614.356,5485.0
614.521,5573.4
614.686,5635.8
614.851,5540.6
615.016,5571.0
615.18,5424.8
615.345,5553.5
615.51,5588.6
615.675,5578.0
615.839,5571.2
616.004,5515.4
616.169,5579.3
616.333,5599.2
616.498,5650.3
616.663,5609.6
616.827,5463.8
616.992,5584.2
617.157,5600.2
617.321,5694.5
617.486,5656.3
617.651,5720.8
617.815,5740.2
617.98,5612.6
618.145,5680.0
618.309,5714.9
618.474,5737.1
618.638,5697.8
618.803,5672.3
618.968,5663.2
619.132,5672.6
619.297,5774.1
619.461,5634.7
619.626,5647.6
619.79,5573.8
619.955,5714.3
620.119,5724.6
620.284,5586.2
620.448,5621.3
620.613,5680.7
620.777,5696.0
620.942,5721.9
621.106,5597.7
621.271,5675.1
621.435,5628.5
621.599,5700.1
621.764,5751.5
621.928,5650.3
622.093,5782.3
622.257,5678.8
622.421,5685.0
622.586,5668.3
622.75,5775.0
622.915,5729.6
623.079,5789.8
623.243,5880.2
623.408,5765.1
623.572,5674.6
623.736,5781.4
623.9,5820.5
624.065,5813.0
624.229,5979.1
624.393,5820.8
624.558,5814.6
624.722,5901.9
624.886,5910.9
625.05,5946.9
625.215,5922.5
625.379,5924.1
625.543,5782.7
625.707,5834.6
625.871,5977.3
626.036,5756.0
626.2,5753.3
626.364,5916.6
626.528,5804.4
626.692,5877.9
626.856,5922.9
627.02,5729.6
627.185,5935.7
627.349,6051.2
627.513,6032.2
627.677,5854.3
627.841,5938.2
628.005,6137.0
628.169,6201.4
628.333,6122.2
628.497,6188.0
628.661,6208.0
628.825,6337.3
628.989,6502.6
629.153,6474.5
629.317,6365.1
629.481,6355.0
629.645,6189.1
629.809,6406.7
629.973,6297.5
630.137,6400.3
630.301,6238.3
630.465,6238.6
630.629,6317.1
630.793,6619.4
630.957,6891.2
631.121,7335.6
631.285,7616.5
631.449,8019.9
631.612,8171.0
631.776,8243.5
631.94,8119.1
632.104,7969.0
632.268,7529.8
632.432,7457.6
632.596,7277.1
632.759,7162.5
632.923,7113.5
633.087,7147.1
633.251,7148.6
633.414,7039.7
633.578,6985.6
633.742,6949.5
633.906,6883.6
634.069,6850.3
634.233,6601.8
634.397,6447.7
634.561,6592.1
634.724,6677.6
634.888,6410.5
635.052,6566.0
635.215,6638.1
635.379,6724.8
635.543,6882.3
635.706,7132.8
635.87,7353.5
636.034,7785.0
636.197,8270.3
636.361,8616.4
636.524,8743.4
636.688,8596.6
636.852,8041.3
637.015,7444.3
637.179,7016.4
637.342,6939.3
637.506,6972.3
637.669,6837.2
637.833,6647.7
637.996,6506.8
638.16,6645.2
638.323,6500.1
638.487,6556.7
638.65,6450.7
638.814,6439.2
638.977,6635.9
639.141,6714.6
639.304,6496.2
639.468,6505.2
639.631,6534.2
639.794,6428.2
639.958,6515.2
640.121,6596.9
640.285,6569.2
640.448,6402.2
640.611,6427.1
640.775,6546.0
640.938,6443.0
641.101,6513.6
641.265,6412.0
641.428,6560.1
641.591,6768.7
641.755,6437.8
641.918,6539.6
642.081,6763.8
642.244,6641.9
642.408,6644.3
642.571,6718.6
642.734,6463.2
642.897,6381.0
643.061,6631.3
643.224,6445.6
643.387,6376.5
643.55,6461.6
643.713,6618.2
643.876,6534.4
644.04,6413.8
644.203,6488.0
644.366,6529.2
644.529,6390.3
644.692,6511.5
644.855,6569.1
645.018,6436.9
645.181,6565.1
645.345,6545.2
645.508,6452.2
645.671,6455.5
645.834,6600.6
645.997,6557.3
646.16,6358.8
646.323,6572.5
646.486,6424.7
646.649,6520.9
646.812,6485.4
646.975,6505.2
647.138,6458.4
647.301,6602.9
647.464,6562.3
647.627,6541.7
647.79,6499.0
647.953,6470.2
648.115,6409.0
648.278,6339.9
648.441,6292.9
648.604,6421.1
648.767,6550.8
648.93,6221.1
649.093,6357.8
649.256,6494.1
649.418,6490.4
649.581,6323.6
649.744,6338.9
649.907,6368.8
650.07,6277.0
650.233,6350.7
650.395,6277.5
650.558,6293.7
650.721,6378.5
650.884,6368.8
651.046,6298.8
651.209,6200.8
651.372,6265.7
651.534,6344.0
651.697,6342.6
651.86,6283.3
652.023,6398.1
652.185,6191.6
652.348,6192.5
652.511,6134.4
652.673,6288.6
652.836,6345.0
652.998,6117.7
653.161,6249.8
653.324,6188.6
653.486,6012.9
653.649,6289.9
653.811,6111.1
653.974,6178.9
654.137,6092.3
654.299,6001.4
654.462,5978.7
654.624,6261.2
654.787,6051.1
654.949,5962.0
655.112,5990.7
655.274,5990.1
655.437,6062.5
655.599,5924.6
655.761,5976.1
655.924,6012.3
656.086,5878.0
656.249,5948.6
656.411,5799.5
656.574,5992.2
656.736,5984.7
656.898,5874.1
657.061,5806.8
657.223,5885.7
657.385,5913.7
657.548,5721.7
657.71,5776.0
657.872,5909.2
658.035,5679.8
658.197,5771.6
658.359,5792.5
658.522,5668.9
658.684,5689.6
658.846,5797.0
659.008,5520.7
659.171,5722.5
659.333,5507.3
659.495,5665.4
659.657,5561.3
659.82,5443.0
659.982,5479.6
660.144,5456.9
660.306,5688.1
660.468,5544.3
660.63,5598.2
660.793,5609.2
660.955,5566.9
661.036,5529.3