File: spectra/VLFR_02-HDPE_bio_Raman_1330eac9.csv
nm,Intensity
528.65,1838.7
528.819,1838.45
528.987,1839.2
529.155,1838.65
529.324,1839.85
529.492,1840.0
529.66,1839.75
529.829,1839.55
529.997,1839.65
530.165,1840.45
530.334,1839.35
530.502,1840.6
530.67,1839.95
530.839,1840.15
531.007,1841.6
531.175,1843.35
531.344,1843.1
531.512,1848.9
531.68,1878.5
531.848,2481.95
532.017,5053.8
532.185,5000.0
532.353,2171.9
532.521,1845.8
532.69,1842.05
532.858,1840.1
533.026,1841.3
533.194,1841.15
533.363,1842.55
533.531,1856.3
533.699,1950.6
533.867,2146.4
534.036,2291.55
534.204,2316.75
534.372,2295.9
534.54,2306.6
534.708,2318.15
534.877,2347.35
535.045,2318.85
535.213,2290.75
535.381,2224.9
535.549,2180.0
535.717,2135.95
535.886,2116.95
536.054,2107.6
536.222,2089.4
536.39,2097.0
536.558,2084.85
536.726,2077.8
536.894,2067.15
537.062,2069.45
537.231,2079.0
537.399,2070.4
537.567,2077.7
537.735,2086.7
537.903,2080.9
538.071,2069.65
538.239,2065.8
538.407,2059.75
538.575,2057.15
538.743,2059.5
538.911,2051.95
539.079,2050.7
539.247,2030.9
539.415,2046.55
539.583,2034.0
539.751,2029.1
539.919,2032.3
540.087,2028.2
540.255,2020.65
540.423,2027.85
540.591,2030.5
540.759,2027.35
540.927,2026.55
541.095,2024.95
541.263,2019.3
541.431,2030.3
541.599,2032.35
541.767,2026.8
541.935,2021.25
542.103,2031.25
542.271,2030.25
542.439,2037.05
542.607,2042.9
542.775,2037.55
542.943,2028.5
543.111,2036.3
543.279,2030.4
543.446,2029.9
543.614,2035.3
543.782,2028.4
543.95,2044.75
544.118,2031.45
544.286,2033.15
544.454,2034.8
544.622,2033.7
544.789,2041.9
544.957,2038.9
545.125,2039.1
545.293,2033.65
545.461,2029.05
545.629,2038.55
545.796,2039.95
545.964,2044.85
546.132,2047.9
546.3,2049.1
546.468,2045.85
546.635,2046.9
546.803,2048.15
546.971,2047.75
547.139,2053.9
547.306,2058.4
547.474,2050.5
547.642,2050.05
547.81,2048.55
547.977,2058.05
548.145,2054.95
548.313,2055.0
548.481,2062.7
548.648,2051.25
548.816,2057.8
548.984,2056.0
549.151,2046.7
549.319,2054.8
549.487,2053.4
549.655,2052.8
549.822,2053.0
549.99,2063.45
550.158,2062.6
550.325,2055.95
550.493,2071.1
550.66,2073.55
550.828,2062.7
550.996,2065.95
551.163,2074.4
551.331,2069.3
551.499,2072.55
551.666,2078.3
551.834,2078.95
552.001,2069.1
552.169,2078.5
552.337,2071.15
552.504,2070.5
552.672,2073.85
552.839,2083.1
553.007,2081.1
553.174,2081.9
553.342,2097.15
553.509,2098.4
553.677,2108.0
553.844,2094.15
554.012,2103.3
554.179,2104.75
554.347,2103.7
554.514,2112.9
554.682,2107.95
554.849,2111.3
555.017,2110.65
555.184,2110.65
555.352,2118.8
555.519,2119.7
555.687,2128.45
555.854,2119.2
556.022,2126.65
556.189,2123.65
556.357,2126.6
556.524,2134.8
556.691,2139.25
556.859,2139.8
557.026,2148.5
557.194,2160.0
557.361,2146.5
557.528,2157.35
557.696,2171.9
557.863,2177.8
558.031,2173.75
558.198,2182.65
558.365,2187.4
558.533,2180.35
558.7,2193.0
558.867,2175.8
559.035,2168.45
559.202,2167.9
559.369,2177.7
559.537,2162.7
559.704,2167.05
559.871,2159.0
560.038,2160.7
560.206,2155.65
560.373,2161.3
560.54,2156.65
560.708,2162.4
560.875,2163.15
561.042,2169.0
561.209,2159.95
561.377,2172.8
561.544,2167.5
561.711,2178.25
561.878,2175.05
562.045,2182.25
562.213,2194.75
562.38,2187.65
562.547,2199.7
562.714,2201.35
562.881,2217.35
563.049,2224.55
563.216,2229.35
563.383,2251.75
563.55,2296.6
563.717,2504.7
563.884,3010.2
564.052,3323.25
564.219,2848.35
564.386,2456.45
564.553,2398.8
564.72,2388.9
564.887,2371.35
565.054,2342.15
565.221,2321.75
565.388,2297.4
565.556,2325.2
565.723,2402.7
565.89,2654.4
566.057,3168.1
566.224,3427.15
566.391,2807.75
566.558,2369.6
566.725,2283.9
566.892,2278.8
567.059,2260.95
567.226,2317.25
567.393,2410.9
567.56,2418.45
567.727,2299.5
567.894,2236.55
568.061,2237.6
568.228,2234.2
568.395,2231.2
568.562,2222.0
568.729,2225.0
568.896,2228.35
569.063,2235.45
569.23,2242.6
569.396,2251.35
569.563,2245.25
569.73,2239.55
569.897,2248.15
570.064,2249.3
570.231,2272.95
570.398,2297.6
570.565,2331.7
570.732,2350.15
570.898,2354.05
571.065,2401.5
571.232,2693.3
571.399,3540.6
571.566,4376.65
571.733,3448.3
571.9,2632.4
572.066,2470.75
572.233,2392.6
572.4,2365.75
572.567,2308.55
572.734,2276.95
572.9,2260.75
573.067,2265.3
573.234,2262.0
573.401,2272.2
573.567,2288.65
573.734,2315.9
573.901,2359.65
574.068,2360.6
574.234,2287.0
574.401,2264.55
574.568,2250.3
574.734,2250.65
574.901,2260.8
575.068,2294.15
575.235,2428.5
575.401,2754.15
575.568,3069.6
575.735,2913.65
575.901,2866.25
576.068,3170.75
576.235,3614.7
576.401,3646.65
576.568,3287.4
576.734,3131.2
576.901,3157.45
577.068,3136.2
577.234,2944.45
577.401,2704.25
577.567,2540.45
577.734,2423.4
577.901,2368.8
578.067,2342.95
578.234,2331.15
578.4,2297.0
578.567,2298.85
578.733,2297.4
578.9,2290.05
579.066,2297.25
579.233,2298.2
579.399,2293.2
579.566,2293.0
579.732,2292.3
579.899,2308.2
580.065,2293.05
580.232,2310.15
580.398,2300.25
580.565,2293.95
580.731,2298.4
580.898,2307.75
581.064,2303.5
581.231,2309.7
581.397,2287.6
581.563,2302.1
581.73,2318.7
581.896,2309.7
582.063,2309.05
582.229,2307.05
582.395,2300.7
582.562,2306.75
582.728,2312.8
582.895,2307.5
583.061,2303.05
583.227,2311.2
583.394,2307.8
583.56,2317.5
583.726,2324.95
583.893,2313.35
584.059,2316.25
584.225,2315.85
584.391,2311.75
584.558,2317.8
584.724,2323.15
584.89,2318.65
585.057,2329.2
585.223,2338.3
585.389,2328.3
585.555,2340.65
585.722,2351.25
585.888,2344.25
586.054,2356.3
586.22,2336.9
586.386,2356.0
586.553,2358.25
586.719,2367.25
586.885,2363.35
587.051,2372.6
587.217,2370.95
587.384,2399.45
587.55,2388.5
587.716,2393.1
587.882,2402.95
588.048,2416.1
588.214,2398.3
588.38,2427.7
588.546,2412.4
588.713,2413.95
588.879,2447.1
589.045,2432.6
589.211,2424.05
589.377,2434.5
589.543,2446.5
589.709,2472.9
589.875,2464.6
590.041,2445.8
590.207,2456.6
590.373,2465.1
590.539,2485.4
590.705,2492.9
590.871,2520.15
591.037,2502.2
591.203,2492.45
591.369,2502.4
591.535,2528.2
591.701,2507.35
591.867,2525.95
592.033,2529.4
592.199,2525.2
592.365,2513.15
592.531,2529.55
592.697,2560.75
592.863,2541.25
593.029,2556.05
593.195,2542.85
593.361,2551.75
593.526,2540.1
593.692,2517.35
593.858,2554.3
594.024,2544.3
594.19,2537.0
594.356,2556.0
594.522,2539.45
594.687,2552.35
594.853,2556.15
595.019,2537.7
595.185,2542.15
595.351,2542.55
595.516,2568.55
595.682,2570.45
595.848,2535.4
596.014,2530.35
596.18,2553.05
596.345,2571.4
596.511,2534.25
596.677,2538.45
596.843,2558.65
597.008,2532.15
597.174,2534.1
597.34,2542.8
597.505,2534.1
597.671,2524.55
597.837,2516.35
598.002,2523.05
598.168,2529.9
598.334,2515.85
598.499,2529.6
598.665,2514.6
598.831,2531.5
598.996,2535.55
599.162,2499.2
599.328,2536.0
599.493,2542.15
599.659,2524.1
599.824,2526.4
599.99,2537.05
600.156,2525.4
600.321,2510.2
600.487,2513.65
600.652,2507.55
600.818,2504.85
600.983,2516.6
601.149,2514.3
601.314,2515.15
601.48,2503.5
601.645,2529.15
601.811,2528.55
601.976,2547.65
602.142,2563.4
602.307,2532.45
602.473,2515.15
602.638,2520.9
602.804,2498.0
602.969,2476.55
603.135,2485.25
603.3,2502.15
603.466,2476.85
603.631,2497.85
603.796,2493.3
603.962,2482.5
604.127,2478.9
604.293,2471.2
604.458,2475.4
604.623,2471.7
604.789,2469.5
604.954,2484.6
605.119,2465.6
605.285,2452.6
605.45,2457.05
605.615,2433.55
605.781,2441.4
605.946,2455.1
606.111,2437.9
606.277,2440.75
606.442,2445.75
606.607,2426.5
606.772,2415.7
606.938,2424.45
607.103,2428.05
607.268,2424.1
607.433,2417.5
607.599,2415.0
607.764,2407.0
607.929,2411.65
608.094,2414.25
608.259,2406.75
608.425,2407.55
608.59,2418.35
608.755,2413.3
608.92,2417.35
609.085,2395.9
609.25,2399.0
609.415,2395.2
609.581,2395.15
609.746,2402.6
609.911,2405.45
610.076,2402.7
610.241,2407.9
610.406,2409.25
610.571,2411.4
610.736,2408.05
610.901,2432.5
611.066,2425.0
611.231,2423.55
611.396,2402.05
611.561,2394.25
611.727,2410.35
611.892,2377.55
612.057,2399.25
612.222,2394.25
612.386,2379.5
612.551,2377.7
612.716,2383.85
612.881,2383.1
613.046,2365.6
613.211,2379.85
613.376,2384.85
613.541,2374.85
613.706,2377.85
613.871,2388.5
614.036,2374.25
614.201,2389.25
614.366,2381.35
614.531,2384.9
614.695,2387.8
614.86,2385.25
615.025,2385.45
615.19,2379.3
615.355,2391.85
615.52,2397.55
615.684,2389.2
615.849,2385.1
616.014,2383.45
616.179,2398.85
616.344,2431.65
616.508,2410.35
616.673,2435.9
616.838,2462.65
617.003,2463.4
617.168,2503.5
617.332,2491.35
617.497,2507.6
617.662,2519.05
617.826,2501.25
617.991,2488.6
618.156,2512.25
618.32,2504.6
618.485,2495.65
618.65,2498.4
618.814,2488.2
618.979,2498.95
619.144,2505.4
619.308,2514.35
619.473,2569.7
619.638,2558.35
619.802,2581.0
619.967,2571.6
620.131,2546.0
620.296,2552.0
620.461,2561.95
620.625,2559.9
620.79,2587.75
620.954,2644.55
621.119,2679.4
621.283,2724.45
621.448,2791.4
621.612,2880.15
621.777,3010.05
621.941,3158.35
622.106,3270.35
622.27,3318.95
622.435,3256.9
622.599,3107.0
622.764,2906.95
622.928,2781.05
623.093,2702.75
623.257,2614.4
623.422,2572.7
623.586,2588.45
623.75,2578.65
623.915,2542.95
624.079,2525.05
624.244,2530.0
624.408,2552.95
624.572,2556.55
624.737,2554.75
624.901,2566.6
625.065,2570.0
625.23,2597.4
625.394,2634.15
625.558,2671.7
625.723,2711.9
625.887,2779.35
626.051,2918.4
626.215,3137.15
626.38,3558.15
626.544,4475.3
626.708,6243.75
626.872,8973.0
627.037,12468.8
627.201,14167.8
627.365,13163.0
627.529,11420.8
627.693,10129.0
627.858,9101.35
628.022,9277.05
628.186,10285.3
628.35,12458.3
628.514,14690.6
628.678,12835.5
628.843,9567.7
629.007,8392.7
629.171,7818.4
629.335,7466.85
629.499,6906.55
629.663,6467.2
629.827,5918.75
629.991,5695.05
630.155,5471.65
630.319,5452.6
630.483,5273.45
630.647,4882.8
630.812,4471.85
630.976,3891.45
631.14,3365.25
631.304,3046.6
631.468,2891.1
631.632,2762.5
631.796,2714.95
631.959,2643.2
632.123,2619.8
632.287,2586.65
632.451,2582.2
632.615,2557.8
632.779,2548.0
632.943,2534.15
633.107,2502.9
633.271,2499.6
633.435,2511.9
633.599,2464.6
633.763,2468.45
633.926,2452.45
634.09,2449.6
634.254,2431.35
634.418,2415.3
634.582,2410.35
634.746,2385.15
634.909,2390.5
635.073,2412.5
635.237,2391.25
635.401,2362.85
635.564,2380.25
635.728,2364.0
635.892,2367.1
636.056,2351.35
636.219,2365.25
636.383,2375.2
636.547,2372.6
636.711,2361.5
636.874,2350.1
637.038,2337.4
637.202,2315.65
637.365,2316.5
637.529,2323.75
637.693,2313.0
637.856,2306.55
638.02,2293.65
638.184,2294.3
638.347,2289.05
638.511,2306.6
638.674,2299.35
638.838,2306.4
639.002,2270.45
639.165,2280.15
639.329,2297.65
639.492,2294.45
639.656,2284.7
639.819,2284.15
639.983,2292.65
640.146,2297.8
640.31,2290.5
640.473,2282.35
640.637,2286.6
640.8,2286.2
640.964,2285.65
641.127,2290.85
641.291,2285.35
641.454,2286.25
641.618,2285.3
641.781,2301.6
641.944,2284.7
642.108,2289.2
642.271,2289.7
642.435,2280.5
642.598,2300.35
642.761,2287.8
642.925,2287.3
643.088,2289.2
643.251,2276.15
643.415,2300.05
643.578,2275.7
643.741,2305.3
643.905,2298.6
644.068,2284.1
644.231,2287.95
644.394,2291.65
644.558,2297.0
644.721,2291.1
644.884,2291.65
645.047,2300.65
645.211,2281.1
645.374,2290.2
645.537,2279.6
645.7,2288.95
645.863,2272.25
646.027,2264.65
646.19,2282.55
646.353,2292.25
646.516,2281.55
646.679,2289.7
646.842,2265.5
647.005,2275.25
647.169,2283.6
647.332,2267.75
647.495,2276.35
647.658,2275.7
647.821,2261.25
647.984,2265.55
648.147,2273.35
648.31,2258.1
648.473,2262.35
648.636,2263.6
648.799,2246.15
648.962,2260.95
649.125,2244.6
649.288,2234.95
649.451,2239.35
649.614,2243.8
649.777,2258.55
649.94,2239.15
650.103,2230.95
650.266,2234.6
650.429,2219.6
650.592,2227.85
650.755,2224.3
650.918,2217.8
651.08,2216.3
651.243,2214.35
651.406,2230.55
651.569,2220.05
651.732,2202.0
651.895,2223.45
652.058,2215.95
652.22,2214.8
652.383,2204.05
652.546,2194.55
652.709,2201.0
652.872,2199.5
653.034,2190.1
653.197,2175.1
653.36,2176.3
653.523,2180.05
653.685,2197.2
653.848,2177.1
654.011,2186.35
654.173,2173.1
654.336,2168.8
654.499,2171.15
654.662,2174.35
654.824,2167.45
654.987,2156.4
655.149,2162.35
655.312,2160.35
655.475,2162.2
655.637,2153.95
655.8,2138.25
655.963,2151.85
656.125,2159.95
656.288,2153.3
656.45,2128.45
656.613,2145.8
656.775,2137.9
656.938,2147.95
657.1,2143.45
657.263,2147.65
657.425,2142.85
657.588,2141.65
657.75,2128.35
657.913,2131.2
658.075,2129.8
658.238,2122.95
658.4,2128.35
658.563,2122.4
658.725,2121.0
658.888,2119.15
659.05,2106.7
659.212,2117.15
659.375,2099.5
659.537,2121.4
659.7,2110.3
659.862,2128.6
660.024,2128.3
660.187,2125.95
660.349,2115.05
660.511,2114.7
660.674,2112.4
660.836,2101.5
660.998,2090.0
661.079,2100.35