File: spectra/VLFR_01-LDPE_bio_Raman_090b7fb9.csv
nm,Intensity
528.635,1836.2
528.803,1835.6
528.972,1836.0
529.14,1835.6
529.308,1834.7
529.477,1834.5
529.645,1835.4
529.814,1836.4
529.982,1836.1
530.151,1835.0
530.319,1836.9
530.487,1836.4
530.656,1838.4
530.824,1836.2
530.993,1838.2
531.161,1837.1
531.329,1837.2
531.498,1846.6
531.666,1873.4
531.835,2359.4
532.003,4275.6
532.171,3706.8
532.34,2016.9
532.508,1839.7
532.676,1837.6
532.845,1835.4
533.013,1838.7
533.181,1838.4
533.35,1840.9
533.518,1868.0
533.686,2020.5
533.854,2263.9
534.023,2401.6
534.191,2409.4
534.359,2377.6
534.528,2366.8
534.696,2337.7
534.864,2321.3
535.032,2300.6
535.201,2268.0
535.369,2233.9
535.537,2200.1
535.705,2172.7
535.874,2157.1
536.042,2133.8
536.21,2124.2
536.378,2114.3
536.546,2122.7
536.715,2110.5
536.883,2104.5
537.051,2095.8
537.219,2109.9
537.387,2107.7
537.556,2116.8
537.724,2112.7
537.892,2106.5
538.06,2101.2
538.228,2078.3
538.396,2077.4
538.565,2078.7
538.733,2074.9
538.901,2050.7
539.069,2063.9
539.237,2047.1
539.405,2054.5
539.573,2040.0
539.741,2038.3
539.909,2028.7
540.077,2033.9
540.246,2022.3
540.414,2034.9
540.582,2028.1
540.75,2029.3
540.918,2014.4
541.086,2021.7
541.254,2021.6
541.422,2023.2
541.59,2019.6
541.758,2023.9
541.926,2018.1
542.094,2030.4
542.262,2028.1
542.43,2026.6
542.598,2031.0
542.766,2029.4
542.934,2037.5
543.102,2031.7
543.27,2041.5
543.438,2026.4
543.606,2037.7
543.774,2049.6
543.942,2040.9
544.11,2044.8
544.278,2040.5
544.445,2043.4
544.613,2030.5
544.781,2041.0
544.949,2039.0
545.117,2041.9
545.285,2036.5
545.453,2046.8
545.621,2044.9
545.789,2039.2
545.957,2039.6
546.124,2047.7
546.292,2045.3
546.46,2051.6
546.628,2039.9
546.796,2046.2
546.964,2031.6
547.131,2042.0
547.299,2036.0
547.467,2036.2
547.635,2035.8
547.803,2034.0
547.97,2024.9
548.138,2013.9
548.306,2023.9
548.474,2018.6
548.642,2024.4
548.809,2019.2
548.977,2009.3
549.145,2012.5
549.313,2008.2
549.48,2013.1
549.648,2003.5
549.816,2001.6
549.983,1998.2
550.151,2014.6
550.319,2009.4
550.487,2006.1
550.654,1996.5
550.822,2005.1
550.99,2008.1
551.157,2007.0
551.325,2002.8
551.493,2005.4
551.66,2009.1
551.828,2009.5
551.996,2005.4
552.163,2001.9
552.331,2010.8
552.499,2017.7
552.666,2016.5
552.834,2007.6
553.001,2031.0
553.169,2036.4
553.337,2039.5
553.504,2056.7
553.672,2053.8
553.839,2038.1
554.007,2051.8
554.174,2055.1
554.342,2060.0
554.509,2063.7
554.677,2062.7
554.845,2073.4
555.012,2076.5
555.18,2079.5
555.347,2071.5
555.515,2077.2
555.682,2090.4
555.85,2096.1
556.017,2104.3
556.185,2102.4
556.352,2109.7
556.52,2106.0
556.687,2098.3
556.854,2123.5
557.022,2136.6
557.189,2137.1
557.357,2146.6
557.524,2144.4
557.692,2167.7
557.859,2168.7
558.026,2169.1
558.194,2184.1
558.361,2188.2
558.529,2182.7
558.696,2179.5
558.863,2162.2
559.031,2157.2
559.198,2131.9
559.365,2134.1
559.533,2133.4
559.7,2126.1
559.867,2123.6
560.035,2132.2
560.202,2104.5
560.369,2114.5
560.537,2116.5
560.704,2125.4
560.871,2130.0
561.039,2123.0
561.206,2125.5
561.373,2134.2
561.54,2135.7
561.708,2145.6
561.875,2143.9
562.042,2161.9
562.209,2155.4
562.377,2166.0
562.544,2185.4
562.711,2191.2
562.878,2199.0
563.046,2212.4
563.213,2231.1
563.38,2259.5
563.547,2306.3
563.714,2487.3
563.881,2878.6
564.049,3065.4
564.216,2768.9
564.383,2504.0
564.55,2444.4
564.717,2444.4
564.884,2393.1
565.052,2349.7
565.219,2316.8
565.386,2330.1
565.553,2337.2
565.72,2437.6
565.887,2682.5
566.054,3045.8
566.221,3007.4
566.388,2605.0
566.555,2384.0
566.722,2327.7
566.889,2280.8
567.056,2289.7
567.224,2303.7
567.391,2360.6
567.558,2339.1
567.725,2274.8
567.892,2253.8
568.059,2249.7
568.226,2235.8
568.393,2258.2
568.56,2261.6
568.727,2258.3
568.893,2251.6
569.06,2272.6
569.227,2286.2
569.394,2293.6
569.561,2293.1
569.728,2276.6
569.895,2301.8
570.062,2326.0
570.229,2323.8
570.396,2346.3
570.563,2375.9
570.73,2420.5
570.897,2450.8
571.063,2489.4
571.23,2772.2
571.397,3439.8
571.564,3865.9
571.731,3242.7
571.898,2833.4
572.064,2754.0
572.231,2649.4
572.398,2560.5
572.565,2545.1
572.732,2487.1
572.899,2493.3
573.065,2484.2
573.232,2494.9
573.399,2504.9
573.566,2507.2
573.732,2558.0
573.899,2615.1
574.066,2602.5
574.233,2582.1
574.399,2534.0
574.566,2582.5
574.733,2579.4
574.9,2618.3
575.066,2664.2
575.233,2732.6
575.4,2998.4
575.566,3285.2
575.733,3311.7
575.9,3323.4
576.066,3765.6
576.233,4188.5
576.4,4081.4
576.566,3844.9
576.733,3781.3
576.899,3853.8
577.066,3733.2
577.233,3587.7
577.399,3450.8
577.566,3268.3
577.732,3217.1
577.899,3278.3
578.066,3228.9
578.232,3261.2
578.399,3372.4
578.565,3355.5
578.732,3355.7
578.898,3415.1
579.065,3452.9
579.231,3579.7
579.398,3570.5
579.564,3529.9
579.731,3680.6
579.897,3678.0
580.064,3746.8
580.23,3727.2
580.397,3816.9
580.563,3788.8
580.73,3797.8
580.896,3944.5
581.063,4028.7
581.229,3837.2
581.396,3884.4
581.562,3995.9
581.728,4007.9
581.895,4023.6
582.061,4005.9
582.228,4001.9
582.394,4062.2
582.56,4104.0
582.727,3986.3
582.893,4054.8
583.059,4172.4
583.226,4032.5
583.392,4074.5
583.558,4051.1
583.725,4087.1
583.891,4042.0
584.057,4059.1
584.224,4092.1
584.39,4015.9
584.556,4076.7
584.722,4069.6
584.889,3984.4
585.055,3964.1
585.221,4012.2
585.387,3900.3
585.554,3936.4
585.72,4008.3
585.886,3936.4
586.052,3952.8
586.219,3939.0
586.385,4010.9
586.551,3895.2
586.717,3997.9
586.883,4091.7
587.049,4004.9
587.216,3885.4
587.382,4038.1
587.548,4072.0
587.714,4060.8
587.88,3965.6
588.046,4072.2
588.212,4050.0
588.379,4039.6
588.545,4040.3
588.711,4125.5
588.877,4076.4
589.043,4121.5
589.209,4078.1
589.375,4065.8
589.541,4184.6
589.707,4199.0
589.873,4096.1
590.039,4095.4
590.205,4083.0
590.371,4123.2
590.537,4169.6
590.703,4199.1
590.869,4171.6
591.035,4191.2
591.201,4219.6
591.367,4199.7
591.533,4161.9
591.699,4260.0
591.865,4250.8
592.031,4234.6
592.197,4279.3
592.363,4180.9
592.529,4207.5
592.695,4251.2
592.86,4218.0
593.026,4198.3
593.192,4221.9
593.358,4250.7
593.524,4254.6
593.69,4279.7
593.856,4221.7
594.022,4302.6
594.187,4181.5
594.353,4302.0
594.519,4250.9
594.685,4340.9
594.851,4379.3
595.016,4296.9
595.182,4338.1
595.348,4308.4
595.514,4462.3
595.679,4415.2
595.845,4366.9
596.011,4449.3
596.177,4460.8
596.342,4447.0
596.508,4455.2
596.674,4466.5
596.84,4501.2
597.005,4569.9
597.171,4592.2
597.337,4600.0
597.502,4580.4
597.668,4666.1
597.834,4672.2
597.999,4691.3
598.165,4698.2
598.331,4710.7
598.496,4760.5
598.662,4787.0
598.827,4782.6
598.993,4781.8
599.159,4858.3
599.324,4858.3
599.49,4856.3
599.655,4919.6
599.821,4930.5
599.987,4881.4
600.152,4898.1
600.318,4942.5
600.483,4968.0
600.649,4922.8
600.814,4971.7
600.98,4953.4
601.145,4929.3
601.311,4927.4
601.476,4874.9
601.642,4859.8
601.807,4891.3
601.973,4830.8
602.138,4807.8
602.303,4849.2
602.469,4803.4
602.634,4786.3
602.8,4776.8
602.965,4636.6
603.13,4730.1
603.296,4743.0
603.461,4559.9
603.627,4601.9
603.792,4569.4
603.957,4504.7
604.123,4457.8
604.288,4451.8
604.453,4407.2
604.619,4341.3
604.784,4326.9
604.949,4301.1
605.115,4279.6
605.28,4215.2
605.445,4246.3
605.61,4195.5
605.776,4082.2
605.941,4125.3
606.106,4069.7
606.272,4087.1
606.437,4016.3
606.602,3936.5
606.767,3930.7
606.932,3917.0
607.098,3862.9
607.263,3910.6
607.428,3802.8
607.593,3814.1
607.758,3803.1
607.923,3743.4
608.089,3752.0
608.254,3701.0
608.419,3665.7
608.584,3659.9
608.749,3665.3
608.914,3591.1
609.079,3563.4
609.244,3595.1
609.41,3584.5
609.575,3532.7
609.74,3596.2
609.905,3499.9
610.07,3483.0
610.235,3510.9
610.4,3488.2
610.565,3406.2
610.73,3449.7
610.895,3413.5
611.06,3488.3
611.225,3365.6
611.39,3379.6
611.555,3351.2
611.72,3364.5
611.885,3353.0
612.05,3347.3
612.215,3268.6
612.38,3319.6
612.545,3272.0
612.709,3254.4
612.874,3244.1
613.039,3235.9
613.204,3195.4
613.369,3225.1
613.534,3243.4
613.699,3163.8
613.864,3175.9
614.028,3170.4
614.193,3145.1
614.358,3184.9
614.523,3167.2
614.688,3129.7
614.853,3120.0
615.017,3143.8
615.182,3111.1
615.347,3135.0
615.512,3088.8
615.676,3081.2
615.841,3060.6
616.006,3056.3
616.171,3058.0
616.335,3036.3
616.5,3084.4
616.665,3048.7
616.829,3071.5
616.994,3069.9
617.159,3050.8
617.324,3061.1
617.488,3067.1
617.653,3060.6
617.818,3059.8
617.982,3024.9
618.147,3035.8
618.311,3018.3
618.476,3031.2
618.641,3032.4
618.805,3027.5
618.97,3059.9
619.134,3007.6
619.299,3066.9
619.463,3072.2
619.628,3063.7
619.793,3039.9
619.957,3053.0
620.122,3037.2
620.286,3040.8
620.451,3031.3
620.615,3014.7
620.78,3090.0
620.944,3090.1
621.109,3130.3
621.273,3134.1
621.438,3124.5
621.602,3226.1
621.766,3303.7
621.931,3323.2
622.095,3371.7
622.26,3397.3
622.424,3419.8
622.588,3349.2
622.753,3247.5
622.917,3100.6
623.082,3112.8
623.246,3055.5
623.41,3040.5
623.575,3039.7
623.739,3018.2
623.903,2990.0
624.068,3020.6
624.232,3018.2
624.396,3023.2
624.56,3034.9
624.725,3029.5
624.889,3018.5
625.053,3050.2
625.218,3056.3
625.382,3103.9
625.546,3113.9
625.71,3166.3
625.874,3233.7
626.039,3269.3
626.203,3365.9
626.367,3642.4
626.531,4095.8
626.695,5198.7
626.86,6850.5
627.024,8699.5
627.188,9754.6
627.352,9365.6
627.516,8277.7
627.68,7483.6
627.844,7153.1
628.008,7219.8
628.172,7602.8
628.337,9032.4
628.501,10294.1
628.665,9584.6
628.829,8240.8
628.993,7586.1
629.157,7392.4
629.321,6880.5
629.485,6635.2
629.649,6270.4
629.813,5910.1
629.977,5753.0
630.141,5708.9
630.305,5597.1
630.469,5471.7
630.633,5159.5
630.797,4917.3
630.961,4336.5
631.124,3899.7
631.288,3754.0
631.452,3595.2
631.616,3475.1
631.78,3399.2
631.944,3349.4
632.108,3293.1
632.272,3230.6
632.436,3229.2
632.599,3143.9
632.763,3104.7
632.927,3178.4
633.091,3124.7
633.255,3125.4
633.418,3092.5
633.582,3056.6
633.746,3083.4
633.91,3039.8
634.074,3015.0
634.237,3048.7
634.401,3022.6
634.565,3000.8
634.728,2985.0
634.892,2999.3
635.056,2997.5
635.22,3004.1
635.383,2972.5
635.547,2959.6
635.711,2938.2
635.874,2965.7
636.038,2938.2
636.202,2899.2
636.365,2929.2
636.529,2947.0
636.692,2934.7
636.856,2895.2
637.02,2889.8
637.183,2911.7
637.347,2860.7
637.51,2831.9
637.674,2851.0
637.837,2877.5
638.001,2857.2
638.164,2882.2
638.328,2872.5
638.491,2831.2
638.655,2830.6
638.818,2812.7
638.982,2863.8
639.145,2824.5
639.309,2847.8
639.472,2801.6
639.636,2843.5
639.799,2827.9
639.963,2818.7
640.126,2812.2
640.289,2814.3
640.453,2794.8
640.616,2760.8
640.78,2788.2
640.943,2828.7
641.106,2803.3
641.27,2815.7
641.433,2794.2
641.596,2826.4
641.76,2797.9
641.923,2792.0
642.086,2824.4
642.249,2816.5
642.413,2782.2
642.576,2828.1
642.739,2826.4
642.903,2775.5
643.066,2785.3
643.229,2769.5
643.392,2806.5
643.555,2758.9
643.719,2823.5
643.882,2820.2
644.045,2812.8
644.208,2814.1
644.371,2755.0
644.534,2774.1
644.698,2792.8
644.861,2805.9
645.024,2776.4
645.187,2763.4
645.35,2777.4
645.513,2754.0
645.676,2793.4
645.839,2759.6
646.002,2717.2
646.165,2749.6
646.329,2762.7
646.492,2763.5
646.655,2803.2
646.818,2754.9
646.981,2723.5
647.144,2779.7
647.307,2720.9
647.47,2789.4
647.633,2730.0
647.796,2681.3
647.958,2742.1
648.121,2761.1
648.284,2761.5
648.447,2731.6
648.61,2738.6
648.773,2718.0
648.936,2733.6
649.099,2715.1
649.262,2705.6
649.425,2697.8
649.587,2712.9
649.75,2736.5
649.913,2727.2
650.076,2702.6
650.239,2705.2
650.402,2689.6
650.564,2675.9
650.727,2695.2
650.89,2721.5
651.053,2701.7
651.215,2726.8
651.378,2696.5
651.541,2737.9
651.704,2666.1
651.866,2721.9
652.029,2692.5
652.192,2702.2
652.354,2738.1
652.517,2699.7
652.68,2703.7
652.842,2718.2
653.005,2685.8
653.168,2709.4
653.33,2683.8
653.493,2674.1
653.656,2670.5
653.818,2677.7
653.981,2691.2
654.143,2677.4
654.306,2683.0
654.468,2676.5
654.631,2692.0
654.794,2635.9
654.956,2639.0
655.119,2661.6
655.281,2670.7
655.444,2666.0
655.606,2652.2
655.769,2605.2
655.931,2665.8
656.093,2639.8
656.256,2625.5
656.418,2639.2
656.581,2630.3
656.743,2591.0
656.906,2576.7
657.068,2553.5
657.23,2553.7
657.393,2575.7
657.555,2591.0
657.718,2570.1
657.88,2532.8
658.042,2539.2
658.205,2559.2
658.367,2511.6
658.529,2511.1
658.691,2511.2
658.854,2514.4
659.016,2500.4
659.178,2480.7
659.341,2463.8
659.503,2473.3
659.665,2473.4
659.827,2460.0
659.989,2447.1
660.152,2440.8
660.314,2408.3
660.476,2402.8
660.638,2414.4
660.8,2412.5
660.963,2410.8
661.044,2413.4