File: spectra/VLFR_01-LDPE_nobio_Raman_59dc1f12.csv
nm,Intensity
526.486,829.4
526.622,829.7
526.759,831.4
526.896,829.9
527.033,829.8
527.169,830.2
527.306,830.3
527.443,829.2
527.579,829.9
527.716,831.5
527.853,830.6
527.989,830.1
528.126,830.7
528.263,830.7
528.399,829.2
528.536,830.7
528.672,829.9
528.809,830.8
528.946,829.1
529.082,831.0
529.219,831.0
529.355,830.0
529.492,828.8
529.628,829.5
529.765,830.2
529.901,829.8
530.038,829.8
530.174,829.9
530.311,830.0
530.447,830.0
530.584,830.2
530.72,829.7
530.857,829.1
530.993,828.7
531.13,830.6
531.266,830.4
531.403,829.0
531.539,829.5
531.676,831.6
531.812,830.6
531.948,830.4
532.085,844.6
532.221,860.5
532.358,838.6
532.494,829.0
532.63,829.5
532.767,830.9
532.903,829.6
533.039,830.8
533.176,830.0
533.312,830.6
533.448,830.4
533.585,830.2
533.721,834.5
533.857,856.3
533.993,894.8
534.13,917.8
534.266,916.4
534.402,912.5
534.539,907.6
534.675,904.5
534.811,904.7
534.947,898.9
535.083,891.9
535.22,891.0
535.356,884.3
535.492,882.5
535.628,881.8
535.764,877.9
535.901,875.8
536.037,876.2
536.173,873.4
536.309,873.6
536.445,869.5
536.581,870.2
536.717,871.3
536.854,870.3
536.99,869.3
537.126,865.0
537.262,869.5
537.398,866.7
537.534,867.5
537.67,868.2
537.806,869.1
537.942,868.1
538.078,868.2
538.214,868.7
538.35,867.7
538.486,863.3
538.622,864.9
538.758,865.3
538.894,865.7
539.03,863.2
539.166,865.2
539.302,865.9
539.438,863.8
539.574,860.8
539.71,860.4
539.846,860.1
539.982,859.6
540.118,860.2
540.254,856.7
540.39,857.3
540.526,857.1
540.662,858.6
540.798,860.1
540.933,857.0
541.069,857.1
541.205,857.9
541.341,854.0
541.477,857.0
541.613,856.3
541.749,857.4
541.884,857.0
542.02,857.3
542.156,857.5
542.292,856.2
542.428,857.4
542.563,857.0
542.699,855.2
542.835,855.3
542.971,858.3
543.106,856.9
543.242,854.9
543.378,854.6
543.514,852.6
543.649,855.4
543.785,855.4
543.921,859.7
544.057,856.0
544.192,855.4
544.328,856.2
544.464,854.4
544.599,854.6
544.735,855.9
544.871,851.7
545.006,852.1
545.142,853.1
545.278,851.1
545.413,854.6
545.549,853.6
545.684,852.8
545.82,852.3
545.956,852.7
546.091,852.8
546.227,854.1
546.362,854.2
546.498,852.1
546.634,854.0
546.769,850.9
546.905,853.2
547.04,855.7
547.176,851.3
547.311,855.2
547.447,851.1
547.582,853.5
547.718,853.1
547.853,852.9
547.989,852.3
548.124,851.2
548.26,852.3
548.395,850.8
548.531,854.0
548.666,851.2
548.802,850.6
548.937,849.9
549.072,852.8
549.208,850.6
549.343,850.1
549.479,852.3
549.614,851.4
549.75,849.7
549.885,849.7
550.02,849.6
550.156,849.7
550.291,850.9
550.426,851.3
550.562,852.6
550.697,854.4
550.832,851.5
550.968,850.3
551.103,853.0
551.238,849.9
551.374,849.7
551.509,853.4
551.644,851.0
551.78,852.8
551.915,851.1
552.05,851.6
552.185,850.1
552.321,851.6
552.456,851.6
552.591,852.4
552.726,851.7
552.862,851.5
552.997,850.7
553.132,852.3
553.267,852.6
553.403,854.9
553.538,854.9
553.673,851.6
553.808,854.0
553.943,855.5
554.078,852.6
554.214,853.6
554.349,856.5
554.484,852.8
554.619,856.0
554.754,853.7
554.889,855.4
555.024,854.6
555.16,854.3
555.295,854.7
555.43,853.0
555.565,854.3
555.7,854.6
555.835,855.0
555.97,857.5
556.105,860.2
556.24,857.1
556.375,857.3
556.51,857.2
556.645,857.4
556.78,858.1
556.915,859.4
557.05,857.6
557.185,857.9
557.32,859.6
557.455,861.4
557.59,862.1
557.725,862.7
557.86,862.6
557.995,860.6
558.13,861.8
558.265,861.7
558.4,863.1
558.535,864.5
558.67,864.0
558.805,863.6
558.94,864.4
559.075,860.6
559.21,860.5
559.345,859.4
559.479,860.7
559.614,858.7
559.749,859.2
559.884,859.4
560.019,859.7
560.154,858.7
560.289,858.3
560.424,858.9
560.558,857.0
560.693,860.3
560.828,857.2
560.963,859.9
561.098,860.3
561.232,860.4
561.367,859.1
561.502,858.9
561.637,859.3
561.772,857.8
561.906,857.6
562.041,860.8
562.176,860.3
562.311,859.7
562.445,862.6
562.58,861.3
562.715,863.4
562.85,864.9
562.984,864.3
563.119,866.5
563.254,867.7
563.388,864.9
563.523,870.0
563.658,872.5
563.792,879.0
563.927,911.8
564.062,946.2
564.196,929.5
564.331,895.3
564.466,884.2
564.6,885.8
564.735,887.0
564.87,881.1
565.004,881.8
565.139,876.6
565.273,875.4
565.408,869.6
565.543,871.5
565.677,870.3
565.812,878.6
565.946,889.8
566.081,915.5
566.215,934.6
566.35,910.1
566.485,884.9
566.619,874.6
566.754,870.7
566.888,872.1
567.023,868.6
567.157,869.1
567.292,870.5
567.426,874.7
567.561,880.6
567.695,872.4
567.83,865.2
567.964,866.4
568.099,866.4
568.233,864.8
568.368,864.9
568.502,866.6
568.636,866.8
568.771,865.7
568.905,866.2
569.04,868.1
569.174,866.8
569.309,867.2
569.443,866.7
569.577,864.4
569.712,866.9
569.846,867.2
569.98,867.2
570.115,866.5
570.249,869.1
570.384,871.1
570.518,871.8
570.652,873.3
570.787,877.6
570.921,877.9
571.055,880.6
571.19,882.1
571.324,894.0
571.458,943.9
571.592,1015.8
571.727,970.9
571.861,920.9
571.995,902.7
572.13,898.7
572.264,892.6
572.398,888.5
572.532,881.2
572.667,877.6
572.801,876.2
572.935,874.0
573.069,873.5
573.204,875.9
573.338,875.7
573.472,872.7
573.606,877.3
573.74,873.5
573.875,877.5
574.009,885.3
574.143,879.7
574.277,874.8
574.411,874.0
574.545,872.3
574.68,871.0
574.814,871.7
574.948,872.9
575.082,872.7
575.216,876.9
575.35,879.3
575.484,897.5
575.619,909.8
575.753,910.6
575.887,907.7
576.021,927.2
576.155,966.0
576.289,1000.8
576.423,1002.8
576.557,973.1
576.691,956.7
576.825,958.6
576.959,956.2
577.093,951.9
577.227,945.2
577.361,924.6
577.495,910.4
577.629,896.4
577.763,892.9
577.897,885.4
578.031,888.8
578.165,885.2
578.299,883.9
578.433,881.2
578.567,883.1
578.701,879.6
578.835,882.9
578.969,885.8
579.103,881.4
579.237,882.8
579.371,886.1
579.505,883.4
579.639,884.7
579.773,887.0
579.907,885.2
580.041,887.1
580.175,885.2
580.309,886.2
580.442,888.9
580.576,884.8
580.71,890.3
580.844,889.4
580.978,888.2
581.112,888.8
581.246,891.1
581.38,890.1
581.513,890.7
581.647,891.3
581.781,892.1
581.915,890.4
582.049,890.3
582.183,894.8
582.316,895.6
582.45,895.5
582.584,897.2
582.718,896.7
582.852,897.9
582.985,897.9
583.119,896.3
583.253,898.4
583.387,902.2
583.52,900.0
583.654,901.5
583.788,900.4
583.922,903.5
584.055,904.9
584.189,904.4
584.323,903.5
584.456,903.0
584.59,906.1
584.724,908.1
584.858,906.7
584.991,908.3
585.125,909.7
585.259,910.6
585.392,908.4
585.526,917.1
585.66,911.6
585.793,916.4
585.927,917.1
586.061,922.8
586.194,925.6
586.328,917.9
586.462,923.0
586.595,921.6
586.729,922.8
586.862,926.2
586.996,927.5
587.13,927.8
587.263,931.8
587.397,931.5
587.53,929.6
587.664,937.2
587.797,936.6
587.931,937.3
588.065,936.2
588.198,939.6
588.332,938.4
588.465,942.5
588.599,942.3
588.732,941.2
588.866,947.5
588.999,949.2
589.133,948.1
589.266,948.8
589.4,950.7
589.533,951.8
589.667,952.0
589.8,952.0
589.934,956.4
590.067,959.8
590.201,960.0
590.334,961.0
590.468,963.9
590.601,968.1
590.735,969.0
590.868,970.0
591.001,971.6
591.135,972.5
591.268,972.2
591.402,970.8
591.535,977.5
591.669,980.1
591.802,981.3
591.935,978.2
592.069,982.9
592.202,981.9
592.335,981.1
592.469,989.4
592.602,981.5
592.736,985.5
592.869,990.7
593.002,994.7
593.136,991.9
593.269,999.9
593.402,996.8
593.536,1002.6
593.669,1002.9
593.802,1002.2
593.936,1007.8
594.069,1007.3
594.202,1014.8
594.336,1016.4
594.469,1012.3
594.602,1024.5
594.735,1023.1
594.869,1026.5
595.002,1028.2
595.135,1031.6
595.268,1035.6
595.402,1040.7
595.535,1044.1
595.668,1045.9
595.801,1047.6
595.935,1055.4
596.068,1051.8
596.201,1059.5
596.334,1060.3
596.468,1067.6
596.601,1073.5
596.734,1070.4
596.867,1079.9
597.0,1083.0
597.133,1077.3
597.267,1091.0
597.4,1093.9
597.533,1094.8
597.666,1097.7
597.799,1098.3
597.932,1110.1
598.066,1117.5
598.199,1117.2
598.332,1117.8
598.465,1124.4
598.598,1130.2
598.731,1130.2
598.864,1125.8
598.998,1137.2
599.131,1138.5
599.264,1143.7
599.397,1145.6
599.53,1145.9
599.663,1146.7
599.796,1148.4
599.929,1150.5
600.062,1151.3
600.195,1163.7
600.328,1149.2
600.461,1158.6
600.594,1154.4
600.727,1154.6
600.86,1158.7
600.994,1158.0
601.127,1157.0
601.26,1150.2
601.393,1154.4
601.526,1154.0
601.659,1153.2
601.792,1152.7
601.925,1154.2
602.058,1154.6
602.191,1158.0
602.324,1156.0
602.457,1152.2
602.589,1153.0
602.722,1143.7
602.855,1146.2
602.988,1141.0
603.121,1147.3
603.254,1149.9
603.387,1138.6
603.52,1142.2
603.653,1134.5
603.786,1129.1
603.919,1133.2
604.052,1130.8
604.185,1118.3
604.318,1119.6
604.451,1111.0
604.583,1109.6
604.716,1109.5
604.849,1107.1
604.982,1101.5
605.115,1099.4
605.248,1091.9
605.381,1087.0
605.514,1084.9
605.646,1080.9
605.779,1079.4
605.912,1071.7
606.045,1076.0
606.178,1069.7
606.311,1069.3
606.443,1058.6
606.576,1062.1
606.709,1061.7
606.842,1056.3
606.975,1054.6
607.107,1049.4
607.24,1048.8
607.373,1051.3
607.506,1048.9
607.639,1044.1
607.771,1047.0
607.904,1042.5
608.037,1036.0
608.17,1037.0
608.302,1031.7
608.435,1039.2
608.568,1032.4
608.701,1031.8
608.833,1031.0
608.966,1030.5
609.099,1025.4
609.232,1026.4
609.364,1020.3
609.497,1018.0
609.63,1022.5
609.762,1022.0
609.895,1015.7
610.028,1010.5
610.161,1014.3
610.293,1005.0
610.426,1013.9
610.559,1008.4
610.691,1007.5
610.824,1005.2
610.957,1009.2
611.089,1002.2
611.222,1004.1
611.355,1002.6
611.487,1002.4
611.62,1002.0
611.752,999.2
611.885,1003.0
612.018,999.4
612.15,994.4
612.283,997.5
612.416,1002.8
612.548,997.1
612.681,993.4
612.813,993.4
612.946,998.4
613.078,995.9
613.211,996.0
613.344,993.4
613.476,986.5
613.609,990.0
613.741,990.5
613.874,988.3
614.006,985.6
614.139,983.6
614.272,985.9
614.404,987.2
614.537,986.8
614.669,983.6
614.802,979.2
614.934,986.2
615.067,979.5
615.199,977.3
615.332,981.7
615.464,977.0
615.597,975.4
615.729,982.1
615.862,974.7
615.994,975.4
616.127,973.4
616.259,974.4
616.392,974.1
616.524,974.5
616.657,971.7
616.789,974.3
616.922,974.7
617.054,977.1
617.186,974.3
617.319,976.0
617.451,973.2
617.584,971.3
617.716,973.4
617.849,970.7
617.981,970.7
618.113,975.7
618.246,973.5
618.378,969.9
618.511,967.6
618.643,970.8
618.775,971.1
618.908,967.7
619.04,968.9
619.173,965.6
619.305,959.2
619.437,969.0
619.57,969.2
619.702,964.4
619.834,963.5
619.967,968.5
620.099,965.4
620.231,964.2
620.364,962.5
620.496,964.7
620.628,959.7
620.761,965.8
620.893,965.8
621.025,964.5
621.158,967.8
621.29,972.6
621.422,972.3
621.555,978.1
621.687,979.9
621.819,983.7
621.952,993.0
622.084,998.6
622.216,1003.9
622.348,1006.9
622.481,1009.0
622.613,997.7
622.745,988.8
622.878,980.4
623.01,972.5
623.142,963.6
623.274,962.4
623.407,963.7
623.539,959.9
623.671,958.3
623.803,958.6
623.935,956.1
624.068,955.6
624.2,955.9
624.332,951.1
624.464,950.7
624.597,954.5
624.729,952.1
624.861,949.3
624.993,954.2
625.125,952.1
625.258,950.6
625.39,959.3
625.522,951.2
625.654,953.8
625.786,956.7
625.918,960.6
626.051,966.8
626.183,970.1
626.315,985.6
626.447,1002.6
626.579,1032.5
626.711,1095.5
626.844,1198.1
626.976,1379.7
627.108,1602.5
627.24,1712.6
627.372,1711.7
627.504,1616.7
627.636,1524.6
627.768,1451.3
627.901,1400.2
628.033,1375.1
628.165,1393.5
628.297,1431.7
628.429,1566.8
628.561,1768.8
628.693,1724.4
628.825,1527.3
628.957,1430.1
629.089,1396.2
629.221,1382.7
629.354,1358.4
629.486,1329.1
629.618,1295.2
629.75,1260.1
629.882,1239.8
630.014,1224.3
630.146,1211.9
630.278,1200.2
630.41,1204.3
630.542,1193.8
630.674,1169.9
630.806,1149.0
630.938,1109.4
631.07,1066.2
631.202,1025.4
631.334,1001.4
631.466,986.1
631.598,975.3
631.73,976.9
631.862,967.9
631.994,956.6
632.126,954.0
632.258,949.7
632.39,949.8
632.522,939.9
632.654,938.5
632.786,935.6
632.918,934.0
633.05,940.6
633.182,933.4
633.314,932.3
633.446,932.7
633.578,928.7
633.71,930.2
633.842,926.2
633.974,928.5
634.106,926.9
634.237,926.8
634.369,926.2
634.501,925.4
634.633,925.6
634.765,919.9
634.897,926.1
635.029,923.0
635.161,924.7
635.293,923.0
635.425,923.8
635.557,924.2
635.689,922.0
635.82,921.7
635.952,923.3
636.084,924.2
636.216,920.8
636.348,920.7
636.48,924.8
636.612,921.7
636.744,922.8
636.875,922.5
637.007,925.1
637.139,923.1
637.271,919.7
637.403,924.5
637.535,919.7
637.667,925.3
637.798,920.2
637.93,920.5
638.062,924.8
638.194,922.8
638.326,922.8
638.458,922.5
638.589,925.0
638.721,923.2
638.853,923.0
638.985,923.9
639.117,925.5
639.248,923.3
639.38,922.4
639.512,922.6
639.644,924.3
639.776,928.3
639.907,923.7
640.039,927.2
640.171,926.2
640.303,927.1
640.435,930.8
640.566,927.9
640.698,925.4
640.83,929.2
640.962,926.9
641.093,930.7
641.225,934.3
641.357,933.8
641.489,931.9
641.62,933.8
641.752,932.5
641.884,935.9
642.016,930.6
642.147,935.7
642.279,933.3
642.411,935.9
642.543,935.1
642.674,937.8
642.806,936.9
642.938,927.6
643.069,930.5
643.201,935.1
643.333,935.8
643.465,934.1
643.596,936.8
643.728,938.2
643.86,938.5
643.991,935.8
644.123,936.8
644.255,938.9
644.386,940.2
644.518,940.6
644.65,940.3
644.781,940.1
644.913,938.0
645.045,940.9
645.176,937.3
645.308,937.7
645.44,943.0
645.571,939.4
645.703,941.7
645.835,945.0
645.966,947.8
646.098,947.4
646.23,944.8
646.361,945.3
646.493,946.4
646.625,946.9
646.756,944.8
646.888,949.8
647.019,948.2
647.151,950.0
647.283,945.6
647.414,948.0
647.546,952.2
647.678,952.2
647.809,949.6
647.941,949.6
648.072,949.9
648.204,951.3
648.336,957.2
648.467,954.1
648.599,952.1
648.73,954.2
648.862,955.3
648.993,957.9
649.125,956.2
649.257,956.0
649.388,957.4
649.52,957.9
649.651,954.7
649.783,958.5
649.914,959.5
650.046,960.6
650.178,960.2
650.309,956.2
650.441,959.3
650.572,959.7
650.704,963.4
650.835,963.3
650.967,963.4
651.098,961.6
651.23,962.3
651.361,965.4
651.493,965.8
651.625,963.9
651.756,967.2
651.888,964.7
652.019,969.2
652.151,963.5
652.282,968.8
652.414,968.1
652.545,970.7
652.677,970.2
652.808,972.4
652.94,972.9
653.071,975.0
653.203,972.1
653.334,977.0
653.466,979.4
653.597,972.2
653.729,972.5
653.86,976.5
653.992,977.4
654.123,977.6
654.255,975.4
654.386,979.5
654.518,971.0
654.649,972.3
654.78,976.6
654.912,972.9
655.043,972.5
655.175,973.8
655.306,973.1
655.438,974.1
655.569,976.0
655.701,974.4
655.832,974.1
655.964,966.1
656.095,972.8
656.226,972.1
656.358,968.3
656.489,973.1
656.621,968.2
656.752,967.2
656.884,968.8
657.015,970.1
657.146,969.7
657.278,964.4
657.409,964.6
657.541,964.9
657.672,960.3
657.804,962.6
657.935,964.0
658.066,963.3
658.198,959.5
658.329,964.4
658.461,957.6
658.592,961.2
658.723,960.9
658.855,959.9
658.986,956.5
659.118,958.1
659.249,957.1
659.38,957.1
659.512,956.6
659.643,948.6
659.774,952.9
659.906,950.6
660.037,951.0
660.169,948.6
660.3,946.2
660.431,948.4
660.563,948.5
660.694,940.5
660.825,937.7
660.957,938.0
661.088,942.1
661.22,941.3
661.351,935.6
661.482,932.9
661.614,936.6
661.745,934.3
661.876,934.5
662.008,931.7
662.139,926.1
662.27,924.7
662.402,927.8
662.533,925.8
662.664,928.6
662.796,925.1
662.927,922.6
663.058,921.5