File: spectra/VLFR_09-PET_bio_Raman_3e271478.csv
nm,Intensity
528.65,1847.4
528.819,1848.95
528.987,1850.65
529.155,1849.45
529.324,1848.05
529.492,1847.55
529.66,1850.4
529.829,1848.55
529.997,1850.15
530.165,1848.15
530.334,1850.3
530.502,1848.75
530.67,1851.25
530.839,1847.25
531.007,1848.95
531.175,1849.7
531.344,1850.1
531.512,1854.85
531.68,1867.7
531.848,2149.0
532.017,3064.5
532.185,2681.05
532.353,1920.05
532.521,1850.8
532.69,1851.75
532.858,1850.35
533.026,1852.8
533.194,1854.9
533.363,1861.8
533.531,1941.7
533.699,2412.0
533.867,3202.0
534.036,3817.8
534.204,3990.2
534.372,3956.05
534.54,3897.9
534.708,3917.35
534.877,3989.25
535.045,3905.9
535.213,3973.95
535.381,3966.8
535.549,3957.55
535.717,3905.6
535.886,3947.85
536.054,3951.85
536.222,3883.05
536.39,3944.6
536.558,3922.95
536.726,3979.05
536.894,3962.1
537.062,3968.5
537.231,4008.4
537.399,4057.75
537.567,4144.8
537.735,4127.4
537.903,4120.3
538.071,4083.25
538.239,4134.65
538.407,4110.4
538.575,4132.6
538.743,4223.05
538.911,4194.95
539.079,4210.75
539.247,4222.65
539.415,4270.0
539.583,4246.7
539.751,4334.05
539.919,4339.0
540.087,4346.4
540.255,4420.85
540.423,4419.4
540.591,4405.4
540.759,4413.1
540.927,4344.85
541.095,4428.95
541.263,4412.8
541.431,4452.2
541.599,4490.4
541.767,4463.85
541.935,4493.6
542.103,4522.35
542.271,4547.05
542.439,4586.45
542.607,4565.95
542.775,4587.75
542.943,4719.0
543.111,4650.35
543.279,4592.45
543.446,4633.35
543.614,4656.9
543.782,4701.55
543.95,4664.4
544.118,4645.6
544.286,4687.85
544.454,4752.35
544.622,4703.85
544.789,4725.15
544.957,4881.25
545.125,4825.55
545.293,4783.55
545.461,4813.1
545.629,4882.8
545.796,4900.85
545.964,4906.25
546.132,4887.35
546.3,4976.35
546.468,4969.05
546.635,4946.25
546.803,4950.35
546.971,4984.3
547.139,4935.25
547.306,5023.6
547.474,5000.1
547.642,5047.8
547.81,5045.0
547.977,5151.35
548.145,5140.0
548.313,5172.25
548.481,5205.85
548.648,5211.35
548.816,5136.05
548.984,5188.3
549.151,5158.25
549.319,5257.8
549.487,5265.4
549.655,5190.0
549.822,5273.8
549.99,5308.3
550.158,5204.15
550.325,5289.25
550.493,5435.05
550.66,5562.95
550.828,5544.0
550.996,5359.15
551.163,5422.9
551.331,5433.5
551.499,5484.45
551.666,5465.9
551.834,5543.55
552.001,5619.0
552.169,5501.8
552.337,5530.55
552.504,5554.05
552.672,5593.05
552.839,5647.9
553.007,5563.9
553.174,5619.0
553.342,5548.35
553.509,5583.7
553.677,5556.15
553.844,5706.8
554.012,5651.85
554.179,5616.2
554.347,5706.8
554.514,5655.45
554.682,5719.0
554.849,5657.05
555.017,5816.7
555.184,5720.65
555.352,5779.25
555.519,5909.25
555.687,5845.65
555.854,5886.4
556.022,5852.35
556.189,5823.9
556.357,5895.95
556.524,5897.45
556.691,5920.8
556.859,6032.85
557.026,5899.75
557.194,6038.0
557.361,6174.25
557.528,6201.8
557.696,6248.0
557.863,6228.25
558.031,6013.3
558.198,5999.35
558.365,6134.5
558.533,6080.65
558.7,6101.8
558.867,6140.0
559.035,6101.85
559.202,6041.35
559.369,6100.4
559.537,6083.3
559.704,6065.5
559.871,6111.55
560.038,6228.7
560.206,6241.45
560.373,6223.25
560.54,6215.4
560.708,6276.1
560.875,6304.5
561.042,6295.95
561.209,6292.5
561.377,6336.8
561.544,6404.9
561.711,6519.6
561.878,6442.3
562.045,6454.0
562.213,6367.1
562.38,6394.8
562.547,6499.85
562.714,6501.9
562.881,6511.55
563.049,6609.8
563.216,6445.65
563.383,6576.85
563.55,6485.9
563.717,6474.2
563.884,6572.3
564.052,6724.55
564.219,6485.55
564.386,6728.6
564.553,6737.25
564.72,6763.4
564.887,6941.3
565.054,6823.25
565.221,6940.2
565.388,6923.0
565.556,6993.5
565.723,6978.15
565.89,6924.4
566.057,6967.15
566.224,6950.2
566.391,6840.8
566.558,6880.2
566.725,6810.85
566.892,6873.55
567.059,6793.6
567.226,7063.55
567.393,6938.95
567.56,6917.25
567.727,7083.3
567.894,7065.15
568.061,7096.65
568.228,7142.5
568.395,7008.95
568.562,7142.1
568.729,7034.7
568.896,7085.0
569.063,7051.85
569.23,7344.3
569.396,7173.95
569.563,7027.05
569.73,7270.25
569.897,7291.15
570.064,7203.85
570.231,7169.55
570.398,7419.4
570.565,7423.1
570.732,7505.25
570.898,7727.4
571.065,7691.2
571.232,7873.3
571.399,7851.3
571.566,7886.25
571.733,7809.6
571.9,7583.9
572.066,7647.35
572.233,7602.85
572.4,7504.25
572.567,7619.8
572.734,7546.6
572.9,7575.0
573.067,7595.65
573.234,7552.4
573.401,7570.45
573.567,7472.6
573.734,7498.6
573.901,7673.5
574.068,7591.05
574.234,7568.8
574.401,7560.8
574.568,7510.9
574.734,7685.55
574.901,7614.7
575.068,7795.35
575.235,7681.9
575.401,7785.5
575.568,7869.85
575.735,7723.1
575.901,7845.15
576.068,7672.55
576.235,7877.9
576.401,7824.3
576.568,7938.3
576.734,7881.4
576.901,7830.25
577.068,7983.15
577.234,7976.15
577.401,7889.95
577.567,7802.9
577.734,7790.8
577.901,7889.65
578.067,7831.7
578.234,7782.5
578.4,7913.7
578.567,7812.75
578.733,7788.85
578.9,7943.3
579.066,8088.25
579.233,7926.7
579.399,7893.25
579.566,7870.45
579.732,7921.2
579.899,7994.65
580.065,8073.65
580.232,7945.8
580.398,8234.2
580.565,8131.85
580.731,7967.2
580.898,8064.15
581.064,8187.1
581.231,8359.0
581.397,8119.1
581.563,8313.1
581.73,8546.3
581.896,9313.1
582.063,9975.65
582.229,9834.9
582.395,8998.6
582.562,8344.7
582.728,8379.1
582.895,8013.6
583.061,8188.95
583.227,8161.5
583.394,8157.05
583.56,8129.85
583.726,8121.2
583.893,8449.15
584.059,8145.45
584.225,8051.65
584.391,8256.75
584.558,8191.55
584.724,8137.95
584.89,8168.15
585.057,8209.65
585.223,8301.6
585.389,8411.55
585.555,8678.55
585.722,8978.45
585.888,9275.2
586.054,9182.2
586.22,9216.95
586.386,8769.4
586.553,8565.05
586.719,8477.4
586.885,8459.55
587.051,8197.75
587.217,8250.85
587.384,8417.4
587.55,8181.6
587.716,8404.15
587.882,8355.7
588.048,8408.65
588.214,8259.7
588.38,8367.95
588.546,8217.65
588.713,8554.6
588.879,8322.45
589.045,8342.25
589.211,8143.05
589.377,8270.9
589.543,8417.0
589.709,8163.3
589.875,8270.2
590.041,8278.65
590.207,8380.2
590.373,8289.65
590.539,8317.8
590.705,8354.25
590.871,8216.5
591.037,8367.8
591.203,8465.2
591.369,8401.45
591.535,8453.7
591.701,8270.15
591.867,8313.1
592.033,8594.95
592.199,8336.9
592.365,8398.75
592.531,8411.95
592.697,8287.2
592.863,8526.55
593.029,8345.8
593.195,8402.35
593.361,8389.05
593.526,8497.9
593.692,8193.85
593.858,8381.55
594.024,8511.6
594.19,8376.0
594.356,8403.9
594.522,8437.5
594.687,8446.4
594.853,8592.0
595.019,8563.5
595.185,8550.0
595.351,8542.15
595.516,8372.0
595.682,8486.1
595.848,8404.1
596.014,8657.9
596.18,8575.25
596.345,8453.2
596.511,8540.95
596.677,8736.2
596.843,8703.95
597.008,8529.4
597.174,8466.9
597.34,8558.35
597.505,8682.9
597.671,8440.45
597.837,8644.75
598.002,8474.7
598.168,8716.05
598.334,8579.25
598.499,8526.05
598.665,8716.3
598.831,8527.45
598.996,8697.0
599.162,8693.2
599.328,8848.15
599.493,8581.2
599.659,8605.45
599.824,8696.95
599.99,8741.85
600.156,8680.25
600.321,8748.85
600.487,8651.25
600.652,8819.8
600.818,8680.3
600.983,8825.15
601.149,8863.7
601.314,8704.45
601.48,8741.2
601.645,8789.95
601.811,8768.05
601.976,8923.6
602.142,8720.7
602.307,8904.35
602.473,8865.2
602.638,8824.9
602.804,8717.95
602.969,8944.5
603.135,8969.15
603.3,8886.8
603.466,8837.8
603.631,8841.35
603.796,8993.5
603.962,8944.4
604.127,8920.95
604.293,8863.95
604.458,9025.7
604.623,9164.0
604.789,8851.55
604.954,8841.55
605.119,8831.75
605.285,9109.65
605.45,9063.35
605.615,8865.35
605.781,9152.25
605.946,8992.0
606.111,8946.9
606.277,9324.85
606.442,9073.75
606.607,8939.45
606.772,9239.1
606.938,9064.6
607.103,9187.15
607.268,9183.5
607.433,9064.55
607.599,9211.45
607.764,9189.6
607.929,9229.3
608.094,9316.2
608.259,9112.0
608.425,9179.0
608.59,9511.3
608.755,9136.45
608.92,9309.2
609.085,9444.8
609.25,9350.1
609.415,9132.65
609.581,9318.1
609.746,9521.1
609.911,9439.2
610.076,9320.75
610.241,9433.3
610.406,9699.35
610.571,9355.9
610.736,9553.45
610.901,9592.45
611.066,9579.5
611.231,9598.3
611.396,9533.6
611.561,9712.1
611.727,9662.35
611.892,9515.25
612.057,9516.55
612.222,9789.85
612.386,9947.2
612.551,9708.85
612.716,9718.5
612.881,9603.55
613.046,9615.7
613.211,9511.7
613.376,9961.2
613.541,10024.8
613.706,9777.1
613.871,9723.65
614.036,9757.6
614.201,9760.15
614.366,10257.9
614.531,9995.3
614.695,10115.0
614.86,9877.2
615.025,10056.8
615.19,10002.6
615.355,10052.4
615.52,9912.65
615.684,9979.1
615.849,10364.4
616.014,10083.7
616.179,9919.2
616.344,10088.3
616.508,10427.8
616.673,10268.0
616.838,10117.7
617.003,10261.2
617.168,10108.3
617.332,10383.7
617.497,10323.8
617.662,10291.0
617.826,10385.8
617.991,10624.2
618.156,10455.5
618.32,10511.3
618.485,10434.3
618.65,10649.0
618.814,10631.3
618.979,10615.1
619.144,10519.6
619.308,10705.0
619.473,10334.9
619.638,10811.0
619.802,10567.5
619.967,10799.5
620.131,10669.6
620.296,10809.0
620.461,10781.5
620.625,10740.0
620.79,10990.7
620.954,10782.5
621.119,10872.7
621.283,10779.7
621.448,10648.5
621.612,11156.6
621.777,10874.2
621.941,10836.0
622.106,10899.4
622.27,11304.9
622.435,11093.3
622.599,10745.7
622.764,11162.0
622.928,11017.3
623.093,11126.7
623.257,11392.7
623.422,11079.0
623.586,11234.7
623.75,10958.8
623.915,11343.6
624.079,11327.0
624.244,11158.5
624.408,11259.6
624.572,11403.4
624.737,11548.0
624.901,11296.0
625.065,11394.0
625.23,11258.3
625.394,11528.3
625.558,11425.7
625.723,11421.5
625.887,11439.2
626.051,11441.9
626.215,11464.2
626.38,11524.0
626.544,11472.9
626.708,11579.1
626.872,11474.7
627.037,11475.5
627.201,11660.8
627.365,11469.8
627.529,11499.8
627.693,11832.0
627.858,11827.6
628.022,11653.0
628.186,11477.5
628.35,11905.2
628.514,11577.6
628.678,12011.7
628.843,11798.3
629.007,11768.0
629.171,12138.8
629.335,12071.8
629.499,12013.5
629.663,12087.7
629.827,11837.8
629.991,12065.8
630.155,11662.2
630.319,12071.4
630.483,12026.5
630.647,11964.7
630.812,12304.5
630.976,12083.3
631.14,12156.8
631.304,12075.4
631.468,12169.2
631.632,12407.7
631.796,12198.3
631.959,12572.0
632.123,12352.4
632.287,12260.0
632.451,12511.0
632.615,12240.4
632.779,12197.0
632.943,12458.3
633.107,12250.3
633.271,12395.0
633.435,12404.7
633.599,12717.5
633.763,12413.8
633.926,12555.3
634.09,12241.8
634.254,12399.9
634.418,12184.9
634.582,12563.4
634.746,12329.0
634.909,12272.5
635.073,12318.5
635.237,12455.9
635.401,12552.7
635.564,12160.8
635.728,12201.0
635.892,12596.7
636.056,12632.8
636.219,12811.8
636.383,12493.3
636.547,13428.3
636.711,12710.6
636.874,12569.2
637.038,12728.1
637.202,12746.8
637.365,12203.5
637.529,12364.9
637.693,12183.9
637.856,12490.5
638.02,12512.7
638.184,12379.7
638.347,12626.2
638.511,12809.9
638.674,12533.4
638.838,12276.4
639.002,12301.8
639.165,12679.8
639.329,12375.8
639.492,12389.5
639.656,12243.8
639.819,12386.6
639.983,12341.9
640.146,12590.8
640.31,12425.3
640.473,12184.0
640.637,12067.7
640.8,12387.3
640.964,12499.5
641.127,12151.5
641.291,12180.3
641.454,12370.2
641.618,12364.5
641.781,12382.4
641.944,12285.8
642.108,12325.6
642.271,12392.7
642.435,12401.1
642.598,12472.3
642.761,12231.4
642.925,12263.7
643.088,12342.5
643.251,12297.4
643.415,11818.7
643.578,12477.8
643.741,12184.3
643.905,12316.1
644.068,12617.8
644.231,12588.5
644.394,12324.8
644.558,12384.0
644.721,12053.5
644.884,12106.1
645.047,11986.4
645.211,12205.8
645.374,12665.5
645.537,12222.4
645.7,12265.1
645.863,12233.6
646.027,12085.5
646.19,11856.8
646.353,12364.5
646.516,11998.4
646.679,12179.0
646.842,12336.1
647.005,12428.3
647.169,11627.5
647.332,12373.5
647.495,12177.3
647.658,11983.4
647.821,11854.1
647.984,12143.6
648.147,12126.2
648.31,11913.2
648.473,11615.0
648.636,12081.0
648.799,12095.1
648.962,11906.3
649.125,11686.3
649.288,11449.7
649.451,12035.9
649.614,11949.1
649.777,11445.3
649.94,12020.2
650.103,11874.1
650.266,11363.9
650.429,11741.1
650.592,11678.8
650.755,11711.1
650.918,11759.3
651.08,11789.5
651.243,11370.8
651.406,11778.4
651.569,12085.2
651.732,11280.5
651.895,11648.3
652.058,11597.4
652.22,11624.2
652.383,11374.7
652.546,11568.0
652.709,11672.7
652.872,11371.0
653.034,11200.6
653.197,11284.8
653.36,11328.7
653.523,11457.8
653.685,11392.3
653.848,11149.3
654.011,11054.4
654.173,10870.6
654.336,11299.0
654.499,11030.3
654.662,11185.2
654.824,10977.9
654.987,10996.1
655.149,11284.7
655.312,11152.7
655.475,10770.0
655.637,10717.8
655.8,11410.5
655.963,10955.3
656.125,10901.3
656.288,10712.7
656.45,10794.7
656.613,10806.2
656.775,10903.2
656.938,10793.1
657.1,10728.0
657.263,10918.1
657.425,10768.3
657.588,10591.8
657.75,10469.5
657.913,10653.8
658.075,10329.5
658.238,10462.5
658.4,10565.7
658.563,10719.8
658.725,10422.7
658.888,10331.5
659.05,10471.9
659.212,10411.8
659.375,10080.3
659.537,10083.9
659.7,10331.8
659.862,10381.6
660.024,10285.8
660.187,9986.05
660.349,10261.3
660.511,9860.5
660.674,10120.5
660.836,10068.4
660.998,9904.9
661.079,9679.3