File: spectra/VLFR_01-LDPE_nobio_Raman_b62990db.csv
nm,Intensity
526.486,827.9
526.622,828.2
526.759,830.6
526.896,829.4
527.033,829.2
527.169,829.2
527.306,828.9
527.443,829.7
527.579,829.3
527.716,829.1
527.853,828.4
527.989,829.6
528.126,827.5
528.263,828.8
528.399,830.4
528.536,829.7
528.672,829.2
528.809,829.9
528.946,828.9
529.082,829.7
529.219,829.7
529.355,827.4
529.492,829.4
529.628,830.1
529.765,829.1
529.901,829.1
530.038,829.5
530.174,830.4
530.311,829.0
530.447,828.7
530.584,828.3
530.72,829.0
530.857,829.5
530.993,829.1
531.13,830.3
531.266,830.1
531.403,830.1
531.539,828.1
531.676,829.2
531.812,829.0
531.948,832.4
532.085,859.3
532.221,885.8
532.358,847.5
532.494,830.6
532.63,829.2
532.767,829.1
532.903,829.6
533.039,828.9
533.176,830.5
533.312,828.6
533.448,829.2
533.585,827.5
533.721,830.9
533.857,839.0
533.993,852.1
534.13,862.8
534.266,865.8
534.402,863.8
534.539,863.1
534.675,863.0
534.811,860.4
534.947,860.3
535.083,855.7
535.22,855.8
535.356,856.3
535.492,854.1
535.628,851.1
535.764,852.0
535.901,851.4
536.037,853.4
536.173,848.6
536.309,851.6
536.445,850.1
536.581,849.0
536.717,849.4
536.854,849.2
536.99,848.8
537.126,845.5
537.262,847.9
537.398,848.6
537.534,848.0
537.67,846.8
537.806,847.7
537.942,848.3
538.078,848.0
538.214,848.2
538.35,847.3
538.486,845.6
538.622,846.7
538.758,846.6
538.894,846.9
539.03,846.0
539.166,843.9
539.302,844.1
539.438,846.1
539.574,845.8
539.71,845.1
539.846,843.6
539.982,844.8
540.118,843.7
540.254,844.2
540.39,845.7
540.526,843.8
540.662,842.8
540.798,842.2
540.933,845.3
541.069,843.4
541.205,844.7
541.341,844.1
541.477,845.0
541.613,844.0
541.749,844.5
541.884,844.5
542.02,844.4
542.156,844.2
542.292,841.1
542.428,845.1
542.563,843.5
542.699,843.3
542.835,842.6
542.971,842.5
543.106,843.5
543.242,843.1
543.378,842.6
543.514,843.7
543.649,842.5
543.785,842.8
543.921,842.3
544.057,842.1
544.192,843.0
544.328,842.8
544.464,841.9
544.599,841.3
544.735,842.5
544.871,842.8
545.006,842.1
545.142,844.5
545.278,843.4
545.413,843.8
545.549,844.1
545.684,842.1
545.82,843.6
545.956,840.4
546.091,841.0
546.227,841.6
546.362,840.9
546.498,841.9
546.634,841.7
546.769,842.6
546.905,842.2
547.04,840.1
547.176,841.5
547.311,842.9
547.447,842.1
547.582,841.0
547.718,843.9
547.853,841.9
547.989,841.5
548.124,840.4
548.26,840.8
548.395,841.3
548.531,839.6
548.666,841.1
548.802,843.0
548.937,843.3
549.072,841.5
549.208,840.3
549.343,840.4
549.479,841.3
549.614,839.7
549.75,841.9
549.885,840.5
550.02,840.8
550.156,838.4
550.291,841.2
550.426,842.6
550.562,839.7
550.697,840.4
550.832,841.4
550.968,841.6
551.103,839.4
551.238,840.7
551.374,840.7
551.509,839.3
551.644,841.0
551.78,839.6
551.915,842.4
552.05,841.8
552.185,841.2
552.321,841.3
552.456,841.5
552.591,842.4
552.726,838.6
552.862,839.8
552.997,840.7
553.132,842.1
553.267,843.1
553.403,841.7
553.538,843.1
553.673,843.3
553.808,841.9
553.943,842.7
554.078,842.1
554.214,842.7
554.349,842.5
554.484,843.0
554.619,841.4
554.754,841.5
554.889,842.7
555.024,843.8
555.16,841.2
555.295,842.4
555.43,843.6
555.565,842.2
555.7,842.8
555.835,843.0
555.97,843.7
556.105,843.6
556.24,844.4
556.375,844.7
556.51,843.6
556.645,842.7
556.78,844.0
556.915,845.0
557.05,843.6
557.185,846.5
557.32,844.8
557.455,845.3
557.59,846.2
557.725,846.6
557.86,845.5
557.995,849.1
558.13,846.8
558.265,846.7
558.4,847.9
558.535,846.0
558.67,845.0
558.805,845.6
558.94,847.1
559.075,844.7
559.21,845.0
559.345,846.5
559.479,846.7
559.614,845.2
559.749,845.6
559.884,842.7
560.019,844.3
560.154,845.5
560.289,844.4
560.424,844.9
560.558,845.0
560.693,844.6
560.828,842.7
560.963,844.5
561.098,844.4
561.232,844.5
561.367,842.7
561.502,845.6
561.637,845.9
561.772,845.8
561.906,845.1
562.041,845.3
562.176,845.5
562.311,845.4
562.445,848.9
562.58,848.6
562.715,844.6
562.85,845.4
562.984,846.6
563.119,848.4
563.254,849.6
563.388,848.2
563.523,849.7
563.658,851.8
563.792,855.7
563.927,868.5
564.062,883.3
564.196,878.9
564.331,861.4
564.466,857.1
564.6,856.2
564.735,857.6
564.87,856.0
565.004,853.7
565.139,853.7
565.273,852.3
565.408,850.6
565.543,852.4
565.677,854.2
565.812,853.5
565.946,862.9
566.081,876.3
566.215,886.4
566.35,873.0
566.485,861.2
566.619,853.5
566.754,851.2
566.888,850.8
567.023,851.4
567.157,849.8
567.292,853.0
567.426,852.0
567.561,853.1
567.695,851.0
567.83,848.7
567.964,849.7
568.099,849.4
568.233,852.4
568.368,847.8
568.502,850.4
568.636,850.7
568.771,849.1
568.905,847.3
569.04,850.7
569.174,852.4
569.309,852.0
569.443,852.1
569.577,852.4
569.712,850.9
569.846,850.7
569.98,851.3
570.115,853.4
570.249,851.9
570.384,854.2
570.518,853.7
570.652,855.7
570.787,855.0
570.921,853.5
571.055,855.4
571.19,856.7
571.324,863.8
571.458,884.5
571.592,912.5
571.727,898.8
571.861,876.3
571.995,869.7
572.13,863.7
572.264,860.7
572.398,863.0
572.532,857.6
572.667,859.9
572.801,857.4
572.935,857.6
573.069,857.9
573.204,855.9
573.338,855.2
573.472,857.5
573.606,859.5
573.74,858.9
573.875,860.1
574.009,860.4
574.143,862.9
574.277,859.0
574.411,860.6
574.545,858.9
574.68,858.0
574.814,858.2
574.948,861.0
575.082,860.6
575.216,860.4
575.35,863.5
575.484,871.8
575.619,882.2
575.753,877.0
575.887,878.4
576.021,885.7
576.155,895.5
576.289,913.7
576.423,909.8
576.557,898.1
576.691,895.4
576.825,894.3
576.959,900.7
577.093,893.2
577.227,890.4
577.361,884.1
577.495,880.1
577.629,874.2
577.763,877.9
577.897,871.8
578.031,873.0
578.165,870.0
578.299,873.0
578.433,870.7
578.567,870.1
578.701,875.6
578.835,876.1
578.969,872.7
579.103,877.2
579.237,876.2
579.371,876.6
579.505,874.9
579.639,877.6
579.773,875.0
579.907,878.6
580.041,875.2
580.175,879.2
580.309,883.3
580.442,881.1
580.576,883.0
580.71,882.4
580.844,886.1
580.978,883.6
581.112,884.2
581.246,885.6
581.38,885.2
581.513,886.9
581.647,889.7
581.781,891.1
581.915,887.3
582.049,887.6
582.183,892.5
582.316,889.7
582.45,889.4
582.584,894.3
582.718,894.4
582.852,898.1
582.985,898.9
583.119,894.9
583.253,899.3
583.387,899.0
583.52,901.7
583.654,900.0
583.788,900.8
583.922,904.7
584.055,906.6
584.189,906.1
584.323,911.1
584.456,910.7
584.59,910.4
584.724,913.3
584.858,912.1
584.991,915.1
585.125,915.2
585.259,916.7
585.392,921.7
585.526,926.0
585.66,921.0
585.793,925.7
585.927,926.9
586.061,933.6
586.194,932.6
586.328,932.9
586.462,934.7
586.595,938.2
586.729,936.1
586.862,940.8
586.996,936.5
587.13,948.9
587.263,945.5
587.397,951.9
587.53,949.9
587.664,955.7
587.797,952.7
587.931,959.9
588.065,953.8
588.198,956.6
588.332,960.6
588.465,965.8
588.599,965.0
588.732,969.4
588.866,967.4
588.999,971.0
589.133,972.9
589.266,978.1
589.4,975.3
589.533,983.9
589.667,983.9
589.8,983.1
589.934,989.3
590.067,988.1
590.201,993.6
590.334,992.6
590.468,992.4
590.601,997.1
590.735,998.6
590.868,998.9
591.001,1001.1
591.135,1003.5
591.268,1010.6
591.402,1005.3
591.535,1010.4
591.669,1008.9
591.802,1010.2
591.935,1014.0
592.069,1017.7
592.202,1016.7
592.335,1012.8
592.469,1022.6
592.602,1013.9
592.736,1021.6
592.869,1026.2
593.002,1017.2
593.136,1030.1
593.269,1027.7
593.402,1032.6
593.536,1030.3
593.669,1032.4
593.802,1036.4
593.936,1037.4
594.069,1041.5
594.202,1041.9
594.336,1037.4
594.469,1053.3
594.602,1047.4
594.735,1052.6
594.869,1048.0
595.002,1048.0
595.135,1061.2
595.268,1052.9
595.402,1060.0
595.535,1061.6
595.668,1060.1
595.801,1065.1
595.935,1071.8
596.068,1069.9
596.201,1074.7
596.334,1075.3
596.468,1076.1
596.601,1073.5
596.734,1079.1
596.867,1092.1
597.0,1095.3
597.133,1091.7
597.267,1094.0
597.4,1096.6
597.533,1101.4
597.666,1105.8
597.799,1102.2
597.932,1103.3
598.066,1116.0
598.199,1113.9
598.332,1117.2
598.465,1116.9
598.598,1121.7
598.731,1124.0
598.864,1134.0
598.998,1135.6
599.131,1133.7
599.264,1137.2
599.397,1131.2
599.53,1135.1
599.663,1137.5
599.796,1133.9
599.929,1141.2
600.062,1140.3
600.195,1147.4
600.328,1144.4
600.461,1147.6
600.594,1139.2
600.727,1142.4
600.86,1138.8
600.994,1146.3
601.127,1142.5
601.26,1142.4
601.393,1141.4
601.526,1137.7
601.659,1144.2
601.792,1146.6
601.925,1142.1
602.058,1140.9
602.191,1137.3
602.324,1136.4
602.457,1136.5
602.589,1130.9
602.722,1125.8
602.855,1124.2
602.988,1119.9
603.121,1128.9
603.254,1121.3
603.387,1118.7
603.52,1111.7
603.653,1116.6
603.786,1118.1
603.919,1115.4
604.052,1110.4
604.185,1109.2
604.318,1100.2
604.451,1100.0
604.583,1094.4
604.716,1085.6
604.849,1091.9
604.982,1084.6
605.115,1080.5
605.248,1108.0
605.381,1079.6
605.514,1071.3
605.646,1066.7
605.779,1067.5
605.912,1058.5
606.045,1056.0
606.178,1056.5
606.311,1056.6
606.443,1050.9
606.576,1048.9
606.709,1048.1
606.842,1042.3
606.975,1036.9
607.107,1045.6
607.24,1035.0
607.373,1040.4
607.506,1033.1
607.639,1028.1
607.771,1031.9
607.904,1028.2
608.037,1029.5
608.17,1027.6
608.302,1020.5
608.435,1019.5
608.568,1020.1
608.701,1017.5
608.833,1014.2
608.966,1016.1
609.099,1019.3
609.232,1010.5
609.364,1007.2
609.497,1009.6
609.63,1010.9
609.762,1004.8
609.895,1007.9
610.028,1001.0
610.161,1000.0
610.293,1000.0
610.426,1000.3
610.559,1000.8
610.691,994.3
610.824,995.7
610.957,996.2
611.089,992.9
611.222,992.2
611.355,992.0
611.487,986.8
611.62,991.6
611.752,988.6
611.885,986.4
612.018,985.6
612.15,986.8
612.283,985.2
612.416,988.2
612.548,983.9
612.681,980.1
612.813,982.3
612.946,982.7
613.078,981.9
613.211,980.5
613.344,981.8
613.476,976.4
613.609,980.1
613.741,978.8
613.874,979.9
614.006,978.9
614.139,977.6
614.272,972.7
614.404,969.3
614.537,971.6
614.669,971.3
614.802,968.1
614.934,969.8
615.067,969.4
615.199,971.0
615.332,965.7
615.464,962.2
615.597,965.8
615.729,961.0
615.862,963.8
615.994,959.1
616.127,965.6
616.259,958.8
616.392,956.0
616.524,952.7
616.657,954.3
616.789,959.7
616.922,959.2
617.054,960.0
617.186,955.7
617.319,951.4
617.451,957.7
617.584,950.0
617.716,955.2
617.849,951.4
617.981,951.4
618.113,954.8
618.246,950.8
618.378,950.8
618.511,952.5
618.643,952.8
618.775,945.0
618.908,946.8
619.04,948.0
619.173,948.2
619.305,948.4
619.437,945.4
619.57,950.2
619.702,945.1
619.834,947.8
619.967,945.1
620.099,943.4
620.231,941.6
620.364,943.3
620.496,941.1
620.628,942.8
620.761,940.9
620.893,937.6
621.025,942.7
621.158,945.7
621.29,945.8
621.422,946.2
621.555,945.4
621.687,947.8
621.819,944.6
621.952,946.8
622.084,945.5
622.216,948.0
622.348,951.2
622.481,947.0
622.613,951.0
622.745,947.3
622.878,941.7
623.01,944.0
623.142,935.0
623.274,940.0
623.407,933.6
623.539,935.1
623.671,934.6
623.803,933.4
623.935,931.8
624.068,932.4
624.2,934.7
624.332,930.2
624.464,930.5
624.597,932.8
624.729,930.2
624.861,927.0
624.993,932.0
625.125,928.9
625.258,929.8
625.39,928.6
625.522,928.2
625.654,930.2
625.786,934.8
625.918,928.5
626.051,935.1
626.183,935.8
626.315,936.6
626.447,941.5
626.579,952.4
626.711,971.4
626.844,1005.4
626.976,1059.9
627.108,1136.3
627.24,1183.8
627.372,1173.1
627.504,1153.3
627.636,1119.4
627.768,1094.7
627.901,1077.3
628.033,1069.4
628.165,1075.6
628.297,1085.2
628.429,1132.5
628.561,1208.7
628.693,1195.8
628.825,1134.1
628.957,1102.4
629.089,1090.2
629.221,1085.9
629.354,1078.4
629.486,1068.4
629.618,1051.0
629.75,1045.9
629.882,1026.2
630.014,1025.7
630.146,1023.0
630.278,1026.1
630.41,1021.2
630.542,1017.8
630.674,1011.5
630.806,1002.3
630.938,987.3
631.07,970.0
631.202,954.1
631.334,947.4
631.466,940.0
631.598,936.5
631.73,934.4
631.862,935.9
631.994,933.3
632.126,924.5
632.258,922.8
632.39,926.6
632.522,921.2
632.654,922.4
632.786,921.4
632.918,919.7
633.05,919.9
633.182,917.9
633.314,916.8
633.446,916.6
633.578,915.1
633.71,917.3
633.842,917.4
633.974,917.0
634.106,917.4
634.237,920.6
634.369,921.1
634.501,918.8
634.633,916.5
634.765,916.3
634.897,916.4
635.029,919.2
635.161,920.6
635.293,917.4
635.425,920.2
635.557,919.0
635.689,920.9
635.82,919.5
635.952,919.6
636.084,916.7
636.216,919.6
636.348,923.8
636.48,919.7
636.612,923.3
636.744,923.2
636.875,924.5
637.007,921.1
637.139,919.6
637.271,924.6
637.403,921.0
637.535,920.4
637.667,921.4
637.798,920.5
637.93,923.6
638.062,924.8
638.194,923.4
638.326,925.1
638.458,923.4
638.589,926.9
638.721,926.8
638.853,930.1
638.985,927.8
639.117,924.9
639.248,928.8
639.38,927.9
639.512,927.8
639.644,925.2
639.776,927.4
639.907,926.7
640.039,932.0
640.171,928.2
640.303,927.2
640.435,930.2
640.566,933.7
640.698,935.1
640.83,935.1
640.962,931.3
641.093,934.7
641.225,939.4
641.357,933.0
641.489,935.1
641.62,934.8
641.752,933.7
641.884,941.4
642.016,932.8
642.147,936.8
642.279,939.4
642.411,941.1
642.543,939.7
642.674,935.3
642.806,937.2
642.938,940.2
643.069,936.9
643.201,938.7
643.333,937.7
643.465,941.1
643.596,940.9
643.728,940.6
643.86,941.8
643.991,941.9
644.123,945.4
644.255,941.3
644.386,942.6
644.518,943.4
644.65,941.3
644.781,943.1
644.913,941.6
645.045,942.3
645.176,942.3
645.308,943.8
645.44,944.8
645.571,944.8
645.703,949.2
645.835,943.2
645.966,946.8
646.098,943.9
646.23,946.6
646.361,949.6
646.493,944.7
646.625,945.3
646.756,949.5
646.888,949.1
647.019,949.4
647.151,943.7
647.283,946.9
647.414,947.0
647.546,945.3
647.678,949.6
647.809,948.8
647.941,948.8
648.072,945.2
648.204,949.5
648.336,954.0
648.467,946.3
648.599,948.6
648.73,949.3
648.862,947.8
648.993,950.4
649.125,951.6
649.257,949.4
649.388,950.5
649.52,949.8
649.651,951.5
649.783,949.7
649.914,950.9
650.046,949.0
650.178,950.8
650.309,949.9
650.441,951.4
650.572,949.9
650.704,952.4
650.835,953.5
650.967,952.5
651.098,950.0
651.23,953.5
651.361,956.1
651.493,955.6
651.625,953.9
651.756,951.9
651.888,953.4
652.019,956.9
652.151,954.0
652.282,955.5
652.414,950.5
652.545,956.7
652.677,958.8
652.808,957.2
652.94,954.6
653.071,950.6
653.203,955.5
653.334,956.0
653.466,954.8
653.597,955.5
653.729,954.8
653.86,958.3
653.992,963.2
654.123,956.1
654.255,955.9
654.386,954.6
654.518,955.8
654.649,957.1
654.78,954.5
654.912,958.0
655.043,952.9
655.175,952.8
655.306,957.8
655.438,954.9
655.569,954.7
655.701,953.3
655.832,951.5
655.964,954.3
656.095,954.6
656.226,947.0
656.358,949.4
656.489,949.3
656.621,949.2
656.752,952.1
656.884,949.8
657.015,949.7
657.146,947.1
657.278,948.7
657.409,949.7
657.541,947.5
657.672,949.2
657.804,944.3
657.935,945.9
658.066,944.6
658.198,944.2
658.329,945.1
658.461,944.0
658.592,938.9
658.723,938.1
658.855,937.0
658.986,937.4
659.118,940.1
659.249,938.8
659.38,939.0
659.512,934.4
659.643,932.2
659.774,933.4
659.906,937.5
660.037,930.6
660.169,930.2
660.3,932.1
660.431,928.7
660.563,931.3
660.694,927.7
660.825,924.9
660.957,925.0
661.088,928.1
661.22,923.3
661.351,919.5
661.482,914.6
661.614,919.9
661.745,919.1
661.876,918.4
662.008,918.8
662.139,914.4
662.27,914.8
662.402,914.7
662.533,916.7
662.664,911.9
662.796,912.5
662.927,911.2
663.058,910.7