File: spectra/VLFR_06-PET_nobio_Raman_7100bd7c.csv
nm,Intensity
528.65,1841.4
528.819,1840.67
528.987,1841.37
529.155,1841.2
529.324,1841.1
529.492,1840.97
529.66,1841.0
529.829,1840.77
529.997,1840.9
530.165,1841.73
530.334,1840.57
530.502,1843.27
530.67,1841.37
530.839,1841.5
531.007,1841.1
531.175,1842.7
531.344,1844.17
531.512,1848.33
531.68,1867.33
531.848,2235.57
532.017,3485.63
532.185,2955.53
532.353,1915.23
532.521,1845.37
532.69,1844.43
532.858,1845.33
533.026,1847.5
533.194,1849.87
533.363,1868.67
533.531,2038.53
533.699,3033.77
533.867,4846.53
534.036,5889.37
534.204,5837.4
534.372,5278.33
534.54,4965.03
534.708,4712.8
534.877,4431.6
535.045,4056.6
535.213,3808.4
535.381,3577.8
535.549,3365.17
535.717,3110.57
535.886,2929.1
536.054,2793.2
536.222,2699.4
536.39,2639.43
536.558,2581.5
536.726,2542.57
536.894,2507.5
537.062,2482.57
537.231,2467.13
537.399,2467.77
537.567,2467.3
537.735,2453.97
537.903,2434.93
538.071,2444.3
538.239,2468.33
538.407,2469.43
538.575,2459.13
538.743,2459.47
538.911,2465.87
539.079,2476.2
539.247,2479.97
539.415,2527.67
539.583,2552.9
539.751,2575.57
539.919,2585.83
540.087,2539.87
540.255,2501.23
540.423,2446.9
540.591,2418.07
540.759,2386.33
540.927,2378.7
541.095,2363.8
541.263,2358.07
541.431,2337.6
541.599,2335.6
541.767,2339.87
541.935,2348.07
542.103,2361.67
542.271,2347.4
542.439,2350.37
542.607,2357.93
542.775,2358.07
542.943,2356.87
543.111,2352.43
543.279,2340.63
543.446,2337.13
543.614,2346.43
543.782,2385.03
543.95,2379.73
544.118,2377.53
544.286,2348.1
544.454,2361.27
544.622,2362.8
544.789,2374.43
544.957,2356.6
545.125,2367.1
545.293,2373.43
545.461,2354.93
545.629,2365.0
545.796,2371.7
545.964,2369.53
546.132,2362.77
546.3,2368.33
546.468,2372.3
546.635,2377.77
546.803,2374.9
546.971,2383.8
547.139,2375.97
547.306,2363.27
547.474,2379.43
547.642,2394.1
547.81,2382.6
547.977,2387.77
548.145,2383.27
548.313,2392.1
548.481,2380.63
548.648,2383.73
548.816,2386.8
548.984,2378.5
549.151,2385.1
549.319,2376.87
549.487,2372.37
549.655,2369.23
549.822,2369.5
549.99,2384.07
550.158,2401.03
550.325,2473.73
550.493,2777.73
550.66,3074.93
550.828,2718.2
550.996,2428.63
551.163,2399.67
551.331,2405.37
551.499,2393.43
551.666,2393.67
551.834,2402.83
552.001,2394.27
552.169,2430.67
552.337,2421.43
552.504,2447.0
552.672,2585.0
552.839,2650.2
553.007,2541.4
553.174,2444.03
553.342,2419.67
553.509,2402.9
553.677,2424.53
553.844,2426.37
554.012,2412.3
554.179,2411.47
554.347,2428.67
554.514,2414.83
554.682,2423.03
554.849,2445.03
555.017,2443.83
555.184,2479.07
555.352,2568.13
555.519,2703.77
555.687,2738.2
555.854,2694.53
556.022,2709.63
556.189,2737.37
556.357,2728.8
556.524,2760.5
556.691,2769.77
556.859,2785.17
557.026,2835.4
557.194,3056.5
557.361,3343.07
557.528,3521.43
557.696,3320.33
557.863,3020.87
558.031,2853.63
558.198,2826.03
558.365,2871.23
558.533,2819.8
558.7,2762.73
558.867,2681.6
559.035,2649.33
559.202,2579.6
559.369,2531.0
559.537,2517.1
559.704,2512.07
559.871,2488.63
560.038,2509.53
560.206,2502.37
560.373,2497.1
560.54,2486.87
560.708,2516.3
560.875,2527.47
561.042,2544.13
561.209,2556.17
561.377,2551.0
561.544,2552.0
561.711,2587.97
561.878,2606.7
562.045,2627.17
562.213,2648.3
562.38,2626.27
562.547,2666.17
562.714,2683.87
562.881,2699.4
563.049,2694.63
563.216,2683.13
563.383,2658.8
563.55,2656.1
563.717,2633.37
563.884,2620.8
564.052,2633.13
564.219,2631.0
564.386,2647.03
564.553,2702.43
564.72,2777.2
564.887,2882.3
565.054,2954.83
565.221,3032.73
565.388,3161.5
565.556,3291.8
565.723,3328.03
565.89,3295.97
566.057,3174.7
566.224,2980.2
566.391,2851.93
566.558,2771.27
566.725,2715.8
566.892,2677.6
567.059,2710.4
567.226,2734.77
567.393,2866.33
567.56,3032.77
567.727,3074.1
567.894,2941.23
568.061,2772.73
568.228,2744.7
568.395,2717.93
568.562,2703.43
568.729,2713.33
568.896,2737.53
569.063,2702.33
569.23,2716.1
569.396,2771.5
569.563,2828.43
569.73,2847.1
569.897,2875.23
570.064,2953.4
570.231,3036.07
570.398,3196.03
570.565,3444.67
570.732,3591.7
570.898,3886.37
571.065,4130.77
571.232,4276.73
571.399,4318.47
571.566,4031.83
571.733,3734.53
571.9,3597.33
572.066,3402.4
572.233,3190.77
572.4,3057.4
572.567,2966.4
572.734,2918.4
572.9,2885.77
573.067,2867.37
573.234,2849.2
573.401,2874.07
573.567,2879.83
573.734,2918.13
573.901,2975.53
574.068,3006.47
574.234,2959.33
574.401,2919.7
574.568,2882.67
574.734,2946.77
574.901,2986.57
575.068,3038.53
575.235,3110.1
575.401,3116.7
575.568,3028.17
575.735,2952.0
575.901,2997.67
576.068,3010.17
576.235,3115.6
576.401,3155.37
576.568,3177.6
576.734,3141.1
576.901,3130.47
577.068,3078.83
577.234,2999.43
577.401,2976.87
577.567,2954.67
577.734,2920.47
577.901,2950.07
578.067,2907.07
578.234,2960.63
578.4,2965.77
578.567,2958.6
578.733,2959.47
578.9,2950.8
579.066,2948.5
579.233,2982.47
579.399,2985.2
579.566,2967.57
579.732,2954.97
579.899,3008.63
580.065,3017.7
580.232,2999.93
580.398,3031.2
580.565,3065.63
580.731,3100.97
580.898,3153.03
581.064,3137.0
581.231,3175.9
581.397,3319.0
581.563,3639.2
581.73,4375.5
581.896,6043.13
582.063,8084.23
582.229,7724.27
582.395,5215.03
582.562,3603.3
582.728,3293.33
582.895,3177.53
583.061,3135.43
583.227,3130.5
583.394,3116.63
583.56,3089.67
583.726,3093.03
583.893,3101.37
584.059,3118.87
584.225,3151.4
584.391,3167.2
584.558,3154.67
584.724,3171.5
584.89,3251.03
585.057,3318.3
585.223,3544.7
585.389,4023.5
585.555,4838.4
585.722,5717.23
585.888,6006.07
586.054,5912.07
586.22,5501.3
586.386,4924.27
586.553,4186.67
586.719,3690.6
586.885,3428.1
587.051,3307.9
587.217,3228.7
587.384,3193.67
587.55,3163.8
587.716,3181.4
587.882,3176.7
588.048,3178.87
588.214,3141.37
588.38,3153.33
588.546,3166.27
588.713,3154.8
588.879,3124.37
589.045,3145.13
589.211,3114.4
589.377,3132.77
589.543,3161.3
589.709,3101.6
589.875,3106.13
590.041,3159.4
590.207,3092.33
590.373,3125.4
590.539,3134.93
590.705,3096.13
590.871,3119.27
591.037,3141.93
591.203,3115.73
591.369,3127.7
591.535,3164.03
591.701,3160.33
591.867,3157.47
592.033,3122.7
592.199,3146.93
592.365,3119.4
592.531,3169.23
592.697,3137.43
592.863,3155.03
593.029,3162.73
593.195,3167.9
593.361,3140.47
593.526,3124.1
593.692,3164.7
593.858,3134.97
594.024,3150.23
594.19,3140.77
594.356,3145.03
594.522,3228.07
594.687,3150.07
594.853,3168.37
595.019,3168.53
595.185,3159.77
595.351,3168.97
595.516,3146.2
595.682,3172.43
595.848,3178.0
596.014,3190.33
596.18,3177.87
596.345,3179.37
596.511,3177.0
596.677,3179.4
596.843,3180.4
597.008,3167.4
597.174,3224.83
597.34,3178.6
597.505,3191.07
597.671,3175.53
597.837,3188.03
598.002,3194.3
598.168,3185.83
598.334,3222.13
598.499,3159.17
598.665,3171.3
598.831,3228.13
598.996,3205.93
599.162,3199.2
599.328,3202.7
599.493,3198.1
599.659,3203.1
599.824,3217.6
599.99,3185.2
600.156,3208.3
600.321,3234.0
600.487,3181.5
600.652,3208.2
600.818,3220.97
600.983,3211.47
601.149,3200.7
601.314,3234.57
601.48,3226.27
601.645,3234.5
601.811,3209.53
601.976,3214.4
602.142,3241.87
602.307,3221.53
602.473,3211.23
602.638,3224.97
602.804,3226.73
602.969,3218.13
603.135,3242.73
603.3,3221.2
603.466,3237.0
603.631,3238.5
603.796,3247.7
603.962,3252.3
604.127,3287.47
604.293,3220.57
604.458,3238.03
604.623,3207.33
604.789,3243.87
604.954,3240.73
605.119,3213.27
605.285,3227.23
605.45,3249.27
605.615,3236.73
605.781,3228.03
605.946,3238.03
606.111,3243.93
606.277,3270.3
606.442,3222.5
606.607,3262.4
606.772,3274.6
606.938,3276.3
607.103,3233.7
607.268,3243.97
607.433,3269.5
607.599,3270.6
607.764,3271.83
607.929,3241.0
608.094,3262.23
608.259,3264.73
608.425,3284.93
608.59,3255.33
608.755,3277.17
608.92,3263.73
609.085,3252.23
609.25,3277.73
609.415,3261.93
609.581,3260.83
609.746,3279.87
609.911,3271.07
610.076,3298.83
610.241,3264.47
610.406,3272.77
610.571,3311.67
610.736,3317.7
610.901,3278.33
611.066,3289.43
611.231,3276.23
611.396,3279.53
611.561,3293.27
611.727,3275.27
611.892,3299.07
612.057,3277.57
612.222,3300.93
612.386,3290.83
612.551,3282.07
612.716,3292.73
612.881,3274.57
613.046,3320.27
613.211,3277.83
613.376,3323.77
613.541,3319.73
613.706,3331.5
613.871,3291.03
614.036,3320.4
614.201,3341.77
614.366,3291.9
614.531,3355.93
614.695,3340.47
614.86,3306.0
615.025,3312.13
615.19,3330.13
615.355,3362.4
615.52,3312.43
615.684,3337.37
615.849,3338.3
616.014,3341.0
616.179,3326.23
616.344,3350.37
616.508,3356.6
616.673,3386.33
616.838,3353.3
617.003,3371.63
617.168,3384.53
617.332,3381.87
617.497,3381.2
617.662,3397.97
617.826,3420.7
617.991,3396.47
618.156,3427.1
618.32,3401.23
618.485,3427.6
618.65,3413.4
618.814,3422.63
618.979,3423.87
619.144,3440.8
619.308,3389.63
619.473,3399.17
619.638,3380.2
619.802,3383.53
619.967,3382.23
620.131,3397.73
620.296,3413.43
620.461,3387.1
620.625,3420.7
620.79,3377.8
620.954,3389.23
621.119,3450.1
621.283,3406.43
621.448,3425.27
621.612,3392.63
621.777,3434.37
621.941,3368.17
622.106,3418.33
622.27,3431.97
622.435,3389.67
622.599,3456.33
622.764,3427.67
622.928,3421.57
623.093,3453.3
623.257,3422.53
623.422,3456.67
623.586,3382.37
623.75,3476.03
623.915,3436.9
624.079,3475.2
624.244,3471.4
624.408,3500.7
624.572,3461.47
624.737,3488.67
624.901,3501.03
625.065,3557.9
625.23,3488.3
625.394,3448.27
625.558,3451.47
625.723,3502.73
625.887,3507.3
626.051,3504.1
626.215,3472.97
626.38,3451.07
626.544,3487.57
626.708,3482.87
626.872,3491.23
627.037,3490.07
627.201,3483.27
627.365,3492.8
627.529,3524.4
627.693,3545.63
627.858,3530.4
628.022,3572.63
628.186,3563.97
628.35,3651.4
628.514,3621.7
628.678,3691.07
628.843,3678.6
629.007,3668.23
629.171,3706.23
629.335,3718.37
629.499,3747.17
629.663,3701.7
629.827,3640.37
629.991,3619.67
630.155,3625.53
630.319,3674.77
630.483,3659.17
630.647,3727.4
630.812,3836.0
630.976,3936.6
631.14,4066.13
631.304,4351.03
631.468,4501.43
631.632,4543.9
631.796,4637.93
631.959,4505.0
632.123,4393.33
632.287,4230.87
632.451,4179.6
632.615,4049.0
632.779,4057.17
632.943,4062.2
633.107,4090.8
633.271,4002.27
633.435,3962.63
633.599,3961.8
633.763,3896.63
633.926,3826.73
634.09,3867.6
634.254,3787.9
634.418,3719.8
634.582,3722.77
634.746,3743.07
634.909,3785.57
635.073,3741.33
635.237,3764.53
635.401,3824.87
635.564,3808.17
635.728,3938.9
635.892,4127.37
636.056,4287.43
636.219,4510.2
636.383,4632.07
636.547,4762.57
636.711,4616.83
636.874,4331.43
637.038,4174.3
637.202,4002.23
637.365,3875.3
637.529,3820.37
637.693,3833.63
637.856,3761.57
638.02,3751.47
638.184,3739.3
638.347,3686.03
638.511,3731.57
638.674,3707.83
638.838,3708.4
639.002,3723.5
639.165,3731.9
639.329,3734.97
639.492,3628.03
639.656,3700.8
639.819,3654.6
639.983,3713.77
640.146,3706.3
640.31,3683.4
640.473,3676.63
640.637,3628.5
640.8,3661.73
640.964,3654.3
641.127,3689.27
641.291,3656.93
641.454,3675.6
641.618,3665.07
641.781,3735.77
641.944,3659.7
642.108,3745.37
642.271,3746.13
642.435,3724.67
642.598,3690.2
642.761,3667.57
642.925,3690.43
643.088,3657.6
643.251,3671.83
643.415,3636.53
643.578,3653.47
643.741,3668.33
643.905,3684.67
644.068,3665.73
644.231,3642.97
644.394,3642.93
644.558,3657.3
644.721,3626.87
644.884,3724.0
645.047,3646.53
645.211,3629.7
645.374,3689.23
645.537,3664.57
645.7,3656.0
645.863,3623.9
646.027,3602.37
646.19,3690.67
646.353,3691.5
646.516,3640.9
646.679,3587.83
646.842,3685.57
647.005,3683.73
647.169,3624.5
647.332,3629.6
647.495,3657.1
647.658,3713.03
647.821,3601.77
647.984,3680.37
648.147,3605.47
648.31,3609.23
648.473,3582.1
648.636,3660.53
648.799,3604.23
648.962,3607.53
649.125,3622.63
649.288,3621.23
649.451,3578.87
649.614,3600.7
649.777,3610.53
649.94,3592.67
650.103,3599.53
650.266,3608.03
650.429,3529.2
650.592,3674.5
650.755,3619.07
650.918,3560.37
651.08,3607.63
651.243,3592.37
651.406,3594.87
651.569,3610.43
651.732,3536.8
651.895,3568.6
652.058,3579.0
652.22,3508.43
652.383,3543.1
652.546,3505.2
652.709,3521.27
652.872,3558.8
653.034,3565.57
653.197,3538.2
653.36,3506.5
653.523,3531.57
653.685,3520.83
653.848,3549.33
654.011,3496.3
654.173,3404.57
654.336,3492.9
654.499,3539.07
654.662,3472.47
654.824,3479.17
654.987,3517.8
655.149,3456.77
655.312,3488.83
655.475,3497.67
655.637,3419.9
655.8,3474.4
655.963,3523.23
656.125,3389.97
656.288,3438.07
656.45,3467.17
656.613,3436.67
656.775,3463.3
656.938,3381.03
657.1,3378.7
657.263,3418.27
657.425,3441.63
657.588,3404.37
657.75,3384.8
657.913,3378.13
658.075,3351.43
658.238,3316.67
658.4,3371.6
658.563,3347.1
658.725,3388.9
658.888,3347.67
659.05,3351.83
659.212,3323.27
659.375,3328.5
659.537,3316.27
659.7,3340.27
659.862,3280.4
660.024,3298.87
660.187,3276.57
660.349,3323.5
660.511,3299.43
660.674,3226.57
660.836,3283.2
660.998,3263.43
661.079,3287.83