File: spectra/VLFR_02-HDPE_bio_Raman_c1bb3e59.csv
nm,Intensity
528.629,1854.6
528.797,1853.2
528.965,1852.25
529.134,1852.45
529.302,1853.8
529.471,1852.7
529.639,1853.15
529.808,1853.4
529.976,1853.75
530.145,1852.35
530.313,1853.6
530.481,1853.75
530.65,1852.8
530.818,1853.8
530.987,1851.9
531.155,1852.85
531.323,1855.6
531.492,1855.7
531.66,1874.3
531.829,2117.0
531.997,2788.8
532.165,2554.1
532.334,1912.4
532.502,1853.4
532.67,1854.45
532.839,1854.0
533.007,1853.7
533.175,1853.45
533.344,1853.0
533.512,1854.05
533.68,1857.7
533.848,1865.8
534.017,1871.0
534.185,1871.4
534.353,1871.25
534.522,1873.75
534.69,1876.15
534.858,1873.0
535.026,1873.65
535.195,1872.15
535.363,1869.95
535.531,1872.9
535.699,1872.75
535.868,1871.05
536.036,1873.3
536.204,1871.4
536.372,1872.0
536.54,1871.9
536.709,1872.2
536.877,1874.45
537.045,1873.4
537.213,1874.05
537.381,1874.0
537.55,1875.6
537.718,1875.1
537.886,1877.95
538.054,1872.4
538.222,1873.45
538.39,1873.75
538.558,1873.15
538.727,1877.25
538.895,1874.7
539.063,1876.9
539.231,1876.3
539.399,1875.85
539.567,1873.8
539.735,1878.4
539.903,1878.15
540.071,1876.15
540.239,1878.55
540.408,1877.6
540.576,1878.05
540.744,1876.7
540.912,1876.55
541.08,1877.95
541.248,1878.7
541.416,1876.25
541.584,1875.6
541.752,1876.55
541.92,1878.4
542.088,1878.15
542.256,1882.1
542.424,1877.75
542.592,1879.4
542.76,1877.45
542.928,1877.9
543.096,1880.2
543.264,1878.75
543.432,1878.6
543.6,1879.2
543.768,1877.6
543.936,1880.15
544.104,1877.15
544.271,1881.6
544.439,1881.85
544.607,1879.55
544.775,1878.4
544.943,1882.4
545.111,1882.7
545.279,1882.45
545.447,1883.15
545.615,1878.95
545.783,1878.15
545.95,1883.95
546.118,1881.1
546.286,1878.7
546.454,1881.15
546.622,1879.8
546.79,1882.4
546.957,1882.15
547.125,1880.55
547.293,1881.6
547.461,1883.6
547.629,1881.8
547.797,1881.8
547.964,1885.15
548.132,1884.4
548.3,1881.5
548.468,1883.8
548.635,1885.7
548.803,1884.95
548.971,1888.35
549.139,1886.05
549.306,1885.35
549.474,1882.65
549.642,1883.55
549.81,1884.35
549.977,1883.45
550.145,1884.0
550.313,1889.55
550.48,1887.05
550.648,1888.0
550.816,1885.05
550.983,1884.1
551.151,1885.55
551.319,1885.4
551.486,1886.85
551.654,1885.3
551.822,1887.9
551.989,1887.5
552.157,1888.8
552.325,1886.35
552.492,1889.75
552.66,1885.35
552.828,1887.4
552.995,1888.8
553.163,1882.5
553.33,1887.55
553.498,1889.7
553.665,1887.5
553.833,1887.25
554.001,1888.3
554.168,1891.3
554.336,1888.85
554.503,1889.05
554.671,1894.75
554.838,1891.3
555.006,1888.5
555.173,1891.25
555.341,1890.3
555.508,1889.9
555.676,1887.9
555.843,1891.9
556.011,1892.05
556.178,1887.05
556.346,1894.45
556.513,1889.7
556.681,1894.1
556.848,1892.6
557.016,1891.0
557.183,1893.25
557.35,1891.8
557.518,1892.9
557.685,1891.2
557.853,1893.15
558.02,1888.85
558.188,1895.0
558.355,1890.3
558.522,1892.75
558.69,1893.5
558.857,1893.15
559.024,1895.25
559.192,1894.4
559.359,1895.45
559.526,1892.1
559.694,1894.1
559.861,1895.25
560.028,1894.15
560.196,1896.8
560.363,1896.35
560.53,1892.8
560.698,1895.25
560.865,1895.15
561.032,1893.5
561.2,1895.05
561.367,1896.95
561.534,1894.05
561.701,1895.2
561.869,1895.85
562.036,1895.6
562.203,1901.1
562.37,1902.25
562.538,1897.05
562.705,1894.0
562.872,1895.7
563.039,1899.0
563.206,1897.0
563.374,1895.25
563.541,1899.45
563.708,1898.2
563.875,1896.95
564.042,1898.45
564.209,1895.6
564.376,1898.3
564.544,1899.5
564.711,1895.45
564.878,1895.75
565.045,1897.75
565.212,1901.5
565.379,1899.25
565.546,1897.2
565.713,1901.2
565.881,1902.1
566.048,1899.4
566.215,1902.9
566.382,1901.25
566.549,1897.65
566.716,1900.45
566.883,1899.0
567.05,1898.75
567.217,1903.1
567.384,1899.7
567.551,1898.95
567.718,1898.2
567.885,1901.3
568.052,1901.45
568.219,1901.05
568.386,1902.05
568.553,1902.6
568.72,1904.0
568.887,1900.9
569.054,1900.25
569.221,1901.3
569.388,1902.0
569.555,1904.8
569.722,1900.0
569.888,1903.75
570.055,1902.0
570.222,1902.7
570.389,1900.15
570.556,1902.4
570.723,1902.25
570.89,1901.25
571.057,1904.5
571.224,1905.7
571.39,1904.55
571.557,1908.0
571.724,1904.2
571.891,1903.15
572.058,1902.85
572.225,1903.4
572.391,1903.0
572.558,1905.7
572.725,1909.35
572.892,1904.9
573.059,1904.15
573.225,1904.35
573.392,1907.05
573.559,1909.05
573.726,1904.75
573.892,1901.9
574.059,1906.55
574.226,1901.8
574.393,1902.75
574.559,1906.4
574.726,1908.5
574.893,1905.2
575.059,1905.15
575.226,1905.25
575.393,1906.9
575.559,1906.5
575.726,1905.25
575.893,1907.75
576.059,1905.5
576.226,1911.7
576.393,1909.6
576.559,1907.95
576.726,1905.2
576.893,1903.05
577.059,1912.0
577.226,1910.8
577.392,1904.45
577.559,1908.25
577.726,1906.25
577.892,1907.25
578.059,1907.6
578.225,1905.75
578.392,1905.55
578.558,1910.35
578.725,1904.9
578.891,1904.05
579.058,1911.2
579.224,1908.3
579.391,1906.75
579.557,1909.65
579.724,1909.1
579.89,1910.95
580.057,1906.5
580.223,1907.95
580.39,1910.8
580.556,1911.85
580.723,1907.45
580.889,1908.25
581.056,1907.6
581.222,1907.9
581.388,1910.5
581.555,1910.35
581.721,1911.1
581.888,1910.0
582.054,1908.15
582.22,1910.45
582.387,1914.05
582.553,1908.6
582.719,1905.95
582.886,1906.9
583.052,1909.35
583.219,1909.65
583.385,1908.55
583.551,1911.85
583.717,1906.45
583.884,1911.2
584.05,1911.05
584.216,1912.0
584.383,1907.3
584.549,1908.3
584.715,1910.65
584.881,1910.15
585.048,1910.8
585.214,1909.25
585.38,1909.45
585.546,1906.5
585.713,1909.95
585.879,1910.2
586.045,1912.0
586.211,1905.05
586.377,1909.55
586.544,1909.6
586.71,1911.1
586.876,1911.2
587.042,1911.75
587.208,1908.7
587.374,1912.65
587.541,1910.45
587.707,1910.85
587.873,1908.75
588.039,1910.1
588.205,1908.3
588.371,1909.1
588.537,1911.3
588.703,1912.85
588.869,1912.45
589.035,1907.25
589.201,1908.4
589.368,1910.15
589.534,1912.2
589.7,1907.25
589.866,1910.9
590.032,1912.25
590.198,1906.25
590.364,1911.3
590.53,1909.75
590.696,1912.75
590.862,1911.35
591.028,1913.0
591.194,1914.05
591.36,1913.2
591.525,1910.5
591.691,1913.55
591.857,1908.65
592.023,1911.3
592.189,1914.3
592.355,1911.9
592.521,1912.05
592.687,1914.9
592.853,1906.15
593.019,1912.3
593.185,1912.3
593.35,1908.5
593.516,1911.95
593.682,1907.6
593.848,1910.0
594.014,1911.8
594.18,1910.05
594.345,1913.9
594.511,1907.8
594.677,1914.75
594.843,1910.35
595.009,1914.7
595.174,1908.25
595.34,1912.15
595.506,1914.05
595.672,1916.45
595.837,1914.15
596.003,1908.0
596.169,1913.45
596.335,1914.7
596.5,1914.35
596.666,1916.05
596.832,1913.45
596.997,1913.7
597.163,1914.85
597.329,1912.2
597.494,1913.1
597.66,1917.9
597.826,1914.2
597.991,1916.05
598.157,1915.85
598.323,1914.0
598.488,1915.0
598.654,1914.55
598.819,1915.4
598.985,1914.25
599.151,1911.3
599.316,1915.95
599.482,1918.5
599.647,1915.0
599.813,1909.6
599.978,1908.3
600.144,1913.0
600.309,1919.95
600.475,1912.55
600.641,1911.5
600.806,1915.25
600.972,1914.85
601.137,1912.65
601.302,1912.4
601.468,1911.7
601.633,1917.0
601.799,1918.3
601.964,1916.95
602.13,1912.15
602.295,1916.0
602.461,1909.4
602.626,1913.45
602.791,1915.8
602.957,1912.9
603.122,1913.7
603.288,1913.6
603.453,1916.1
603.618,1918.6
603.784,1913.1
603.949,1917.55
604.114,1913.65
604.28,1914.8
604.445,1911.65
604.61,1915.2
604.776,1915.35
604.941,1913.75
605.106,1910.45
605.272,1913.65
605.437,1918.15
605.602,1913.1
605.767,1920.0
605.933,1914.65
606.098,1913.0
606.263,1912.7
606.428,1914.75
606.593,1917.35
606.759,1917.15
606.924,1914.2
607.089,1914.3
607.254,1919.0
607.419,1914.5
607.585,1912.3
607.75,1917.8
607.915,1914.4
608.08,1909.55
608.245,1916.3
608.41,1915.6
608.575,1916.45
608.74,1916.8
608.906,1917.3
609.071,1913.55
609.236,1914.2
609.401,1911.8
609.566,1910.9
609.731,1911.75
609.896,1912.3
610.061,1916.15
610.226,1911.4
610.391,1914.8
610.556,1918.5
610.721,1918.3
610.886,1912.3
611.051,1916.15
611.216,1919.15
611.381,1913.25
611.546,1915.15
611.711,1917.7
611.876,1910.4
612.041,1909.9
612.206,1913.65
612.371,1914.35
612.536,1915.15
612.7,1915.25
612.865,1914.5
613.03,1915.7
613.195,1909.0
613.36,1911.3
613.525,1914.95
613.69,1910.8
613.855,1914.45
614.019,1914.5
614.184,1912.8
614.349,1913.0
614.514,1913.05
614.679,1912.9
614.843,1915.4
615.008,1916.35
615.173,1912.75
615.338,1912.85
615.503,1910.55
615.667,1916.45
615.832,1915.4
615.997,1909.45
616.161,1910.3
616.326,1916.4
616.491,1914.3
616.656,1915.2
616.82,1913.6
616.985,1909.85
617.15,1913.15
617.314,1911.55
617.479,1907.2
617.644,1911.35
617.808,1915.45
617.973,1910.6
618.137,1910.8
618.302,1913.05
618.467,1911.35
618.631,1910.1
618.796,1911.6
618.96,1909.45
619.125,1912.9
619.289,1914.5
619.454,1912.35
619.619,1911.2
619.783,1913.65
619.948,1911.75
620.112,1911.65
620.277,1911.95
620.441,1911.35
620.606,1911.2
620.77,1910.9
620.935,1911.6
621.099,1911.15
621.263,1910.2
621.428,1911.75
621.592,1915.35
621.757,1911.4
621.921,1910.85
622.086,1910.45
622.25,1911.85
622.414,1908.0
622.579,1914.75
622.743,1907.75
622.907,1908.2
623.072,1913.2
623.236,1914.25
623.401,1906.95
623.565,1911.1
623.729,1913.8
623.893,1911.35
624.058,1910.3
624.222,1912.7
624.386,1908.85
624.551,1909.25
624.715,1915.15
624.879,1910.5
625.043,1908.55
625.208,1913.05
625.372,1908.4
625.536,1909.45
625.7,1910.7
625.864,1911.25
626.029,1912.45
626.193,1908.05
626.357,1906.1
626.521,1911.3
626.685,1914.95
626.849,1911.5
627.014,1915.25
627.178,1917.6
627.342,1911.35
627.506,1913.8
627.67,1914.35
627.834,1910.0
627.998,1915.85
628.162,1911.85
628.326,1913.55
628.49,1917.75
628.654,1916.7
628.818,1910.35
628.983,1909.75
629.147,1911.25
629.311,1911.55
629.475,1910.6
629.639,1911.4
629.803,1913.7
629.966,1910.05
630.13,1908.85
630.294,1910.5
630.458,1909.45
630.622,1906.35
630.786,1908.85
630.95,1908.5
631.114,1911.65
631.278,1908.3
631.442,1905.45
631.606,1908.1
631.77,1906.1
631.933,1908.45
632.097,1910.05
632.261,1909.9
632.425,1906.15
632.589,1903.65
632.753,1909.75
632.916,1905.15
633.08,1904.2
633.244,1907.55
633.408,1905.2
633.572,1910.0
633.735,1903.35
633.899,1905.1
634.063,1908.8
634.227,1908.05
634.39,1908.15
634.554,1900.55
634.718,1904.5
634.881,1909.4
635.045,1906.8
635.209,1905.05
635.372,1903.4
635.536,1905.1
635.7,1901.6
635.863,1901.65
636.027,1905.1
636.191,1903.7
636.354,1905.9
636.518,1904.2
636.681,1905.45
636.845,1903.5
637.009,1904.7
637.172,1902.25
637.336,1904.15
637.499,1902.25
637.663,1905.4
637.826,1899.4
637.99,1903.5
638.153,1905.2
638.317,1900.25
638.48,1901.65
638.644,1905.6
638.807,1900.1
638.971,1902.65
639.134,1901.45
639.298,1903.1
639.461,1903.05
639.625,1901.55
639.788,1904.5
639.951,1898.35
640.115,1898.8
640.278,1904.7
640.441,1902.65
640.605,1898.4
640.768,1897.1
640.932,1901.45
641.095,1902.9
641.258,1899.95
641.422,1901.5
641.585,1901.1
641.748,1900.25
641.911,1897.65
642.075,1899.05
642.238,1901.1
642.401,1899.45
642.565,1895.2
642.728,1900.0
642.891,1896.55
643.054,1899.25
643.217,1898.4
643.381,1894.3
643.544,1896.65
643.707,1897.65
643.87,1897.2
644.033,1897.7
644.197,1897.45
644.36,1898.25
644.523,1901.25
644.686,1904.3
644.849,1899.3
645.012,1895.05
645.175,1896.15
645.338,1895.55
645.501,1898.15
645.664,1895.2
645.828,1899.1
645.991,1898.95
646.154,1898.7
646.317,1893.0
646.48,1896.85
646.643,1895.9
646.806,1896.35
646.969,1901.5
647.132,1896.75
647.295,1900.15
647.458,1896.7
647.621,1896.45
647.783,1895.0
647.946,1895.6
648.109,1898.0
648.272,1895.5
648.435,1898.5
648.598,1900.25
648.761,1892.75
648.924,1900.6
649.087,1894.65
649.25,1894.9
649.412,1897.75
649.575,1897.5
649.738,1898.15
649.901,1895.6
650.064,1898.7
650.226,1894.95
650.389,1896.95
650.552,1896.85
650.715,1897.85
650.878,1894.5
651.04,1891.5
651.203,1895.7
651.366,1894.25
651.528,1891.45
651.691,1895.9
651.854,1891.8
652.017,1894.15
652.179,1890.9
652.342,1895.35
652.505,1895.55
652.667,1892.25
652.83,1891.7
652.992,1895.3
653.155,1890.6
653.318,1892.2
653.48,1891.0
653.643,1889.15
653.805,1892.65
653.968,1893.1
654.131,1891.9
654.293,1892.6
654.456,1890.85
654.618,1891.8
654.781,1890.15
654.943,1890.4
655.106,1889.0
655.268,1888.75
655.431,1893.25
655.593,1890.2
655.756,1892.55
655.918,1888.3
656.081,1892.25
656.243,1891.05
656.405,1889.45
656.568,1888.2
656.73,1887.75
656.893,1889.65
657.055,1888.55
657.217,1888.5
657.38,1889.45
657.542,1887.8
657.704,1882.35
657.867,1887.75
658.029,1886.8
658.191,1888.05
658.354,1882.1
658.516,1888.65
658.678,1885.6
658.84,1886.05
659.003,1886.2
659.165,1883.3
659.327,1885.5
659.489,1882.2
659.652,1883.0
659.814,1884.8
659.976,1886.75
660.138,1883.25
660.3,1884.1
660.463,1884.0
660.625,1886.95
660.787,1884.45
660.949,1885.5
661.03,1883.9