File: spectra/VLFR_08-PLA_nobio_Raman_53e58490.csv
cm-1,Intensity
-123.878,1853.15
-117.855,1851.95
-111.836,1852.85
-105.821,1852.2
-99.8104,1853.25
-93.8036,1852.75
-87.8007,1852.65
-81.8019,1853.55
-75.807,1853.75
-69.8161,1853.6
-63.8293,1853.6
-57.8464,1852.85
-51.8675,1853.3
-45.8926,1854.2
-39.9216,1855.3
-33.9547,1854.05
-27.9917,1856.1
-22.0326,1860.2
-16.0776,1887.4
-10.1265,2304.65
-4.17932,3578.4
1.76388,3428.65
7.70313,1986.65
13.6384,1857.3
19.5698,1854.05
25.4972,1854.1
31.4207,1854.2
37.3403,1854.25
43.256,1858.4
49.1677,1880.4
55.0755,2024.15
60.9794,2296.55
66.8794,2465.9
72.7754,2494.2
78.6676,2486.2
84.5559,2494.3
90.4402,2483.65
96.3207,2468.35
102.197,2467.65
108.07,2482.55
113.939,2485.5
119.804,2504.4
125.665,2459.5
131.522,2448.3
137.375,2416.3
143.225,2451.75
149.07,2452.5
154.912,2454.0
160.75,2479.75
166.584,2443.6
172.414,2449.05
178.241,2460.55
184.063,2465.35
189.882,2469.6
195.697,2486.3
201.508,2470.2
207.315,2461.85
213.119,2459.4
218.918,2463.25
224.714,2465.75
230.506,2466.25
236.294,2474.1
242.078,2494.55
247.859,2482.5
253.636,2484.15
259.409,2469.0
265.178,2485.85
270.943,2478.6
276.705,2476.6
282.463,2503.85
288.217,2503.8
293.967,2527.35
299.713,2528.2
305.456,2519.85
311.195,2535.0
316.93,2539.4
322.662,2539.15
328.389,2527.55
334.113,2533.9
339.834,2534.1
345.55,2531.15
351.263,2541.4
356.972,2557.05
362.677,2563.1
368.379,2562.3
374.077,2579.9
379.771,2589.3
385.461,2592.35
391.148,2611.5
396.831,2649.6
402.51,2634.9
408.186,2627.6
413.858,2631.9
419.526,2603.0
425.19,2602.05
430.851,2599.35
436.508,2613.75
442.162,2625.75
447.811,2618.55
453.458,2621.55
459.1,2597.85
464.739,2629.7
470.374,2634.5
476.005,2637.8
481.633,2632.7
487.257,2648.85
492.878,2637.8
498.494,2642.85
504.107,2656.45
509.717,2676.55
515.323,2660.55
520.925,2658.15
526.524,2686.1
532.119,2678.45
537.71,2687.0
543.298,2685.1
548.882,2707.65
554.462,2722.35
560.039,2724.3
565.613,2729.7
571.182,2748.65
576.748,2728.85
582.311,2744.75
587.87,2732.45
593.425,2755.4
598.977,2742.5
604.525,2754.65
610.069,2723.85
615.61,2746.45
621.148,2756.6
626.682,2749.45
632.212,2777.7
637.739,2799.0
643.262,2780.7
648.781,2782.75
654.297,2801.5
659.81,2819.3
665.319,2808.1
670.824,2812.35
676.326,2849.45
681.824,2821.75
687.319,2822.05
692.81,2822.9
698.298,2829.65
703.782,2819.4
709.262,2830.6
714.739,2818.3
720.213,2810.5
725.683,2840.1
731.15,2846.65
736.613,2859.7
742.072,2866.6
747.528,2878.55
752.981,2847.2
758.43,2876.3
763.875,2852.2
769.317,2878.05
774.756,2874.3
780.191,2864.85
785.623,2854.25
791.051,2886.25
796.475,2869.15
801.897,2858.5
807.314,2877.7
812.729,2855.45
818.139,2877.3
823.547,2871.85
828.951,2867.4
834.351,2885.45
839.748,2890.2
845.142,2921.15
850.532,2919.35
855.918,2928.5
861.302,3027.1
866.681,3098.65
872.058,3169.45
877.431,3120.5
882.8,3037.15
888.166,2989.6
893.529,2953.35
898.888,2959.95
904.244,2964.8
909.596,2952.2
914.945,2981.2
920.291,2961.95
925.633,2972.25
930.972,2952.55
936.308,2959.75
941.64,2971.2
946.968,2971.1
952.294,2952.6
957.615,2980.35
962.934,2978.75
968.249,2997.15
973.561,2961.8
978.869,2968.2
984.174,2993.85
989.476,3002.35
994.774,3000.4
1000.07,3000.1
1005.36,3027.95
1010.65,3013.8
1015.93,3005.65
1021.22,3028.6
1026.49,3059.1
1031.77,3054.95
1037.04,3070.0
1042.31,3105.7
1047.57,3117.3
1052.83,3083.65
1058.09,3069.1
1063.35,3082.15
1068.6,3082.35
1073.85,3056.4
1079.09,3080.8
1084.33,3087.55
1089.57,3136.5
1094.81,3153.1
1100.04,3118.7
1105.27,3124.15
1110.49,3157.3
1115.71,3160.45
1120.93,3192.55
1126.15,3200.15
1131.36,3192.3
1136.57,3172.05
1141.77,3135.45
1146.98,3119.4
1152.18,3114.3
1157.37,3119.45
1162.56,3089.7
1167.75,3117.6
1172.94,3126.65
1178.12,3141.95
1183.3,3134.85
1188.48,3162.35
1193.65,3142.9
1198.82,3174.8
1203.99,3173.85
1209.15,3153.5
1214.31,3182.1
1219.46,3189.35
1224.62,3188.95
1229.77,3142.35
1234.92,3191.45
1240.06,3190.15
1245.2,3181.3
1250.34,3222.15
1255.47,3220.7
1260.6,3194.05
1265.73,3202.8
1270.85,3219.25
1275.97,3197.7
1281.09,3177.85
1286.21,3223.65
1291.32,3269.8
1296.43,3280.3
1301.53,3256.8
1306.63,3302.7
1311.73,3269.1
1316.83,3275.3
1321.92,3243.0
1327.01,3259.95
1332.1,3304.35
1337.18,3264.25
1342.26,3267.05
1347.34,3288.8
1352.41,3285.5
1357.48,3276.95
1362.55,3286.0
1367.61,3260.85
1372.67,3268.95
1377.73,3267.55
1382.78,3292.1
1387.84,3301.5
1392.88,3274.95
1397.93,3262.15
1402.97,3284.3
1408.01,3288.4
1413.05,3274.85
1418.08,3242.55
1423.11,3261.25
1428.14,3286.75
1433.16,3289.5
1438.18,3298.25
1443.2,3388.55
1448.21,3442.1
1453.22,3455.1
1458.23,3410.2
1463.23,3386.7
1468.23,3359.8
1473.23,3319.75
1478.23,3295.2
1483.22,3292.6
1488.21,3278.35
1493.2,3250.55
1498.18,3249.95
1503.16,3246.55
1508.14,3244.15
1513.11,3266.15
1518.08,3280.9
1523.05,3290.7
1528.01,3265.8
1532.97,3283.6
1537.93,3251.05
1542.89,3284.35
1547.84,3278.35
1552.79,3283.35
1557.73,3290.55
1562.68,3312.35
1567.62,3286.8
1572.56,3292.0
1577.49,3288.85
1582.42,3290.75
1587.35,3287.15
1592.27,3295.85
1597.19,3306.3
1602.11,3291.25
1607.03,3278.6
1611.94,3277.3
1616.85,3294.1
1621.76,3294.7
1626.66,3284.3
1631.56,3319.5
1636.46,3291.5
1641.36,3250.55
1646.25,3293.3
1651.14,3277.1
1656.02,3312.0
1660.9,3311.3
1665.78,3345.55
1670.66,3324.7
1675.54,3309.6
1680.41,3286.35
1685.27,3291.25
1690.14,3289.05
1695.0,3308.8
1699.86,3283.05
1704.71,3278.95
1709.57,3257.1
1714.42,3315.25
1719.26,3256.6
1724.11,3271.4
1728.95,3265.75
1733.79,3282.35
1738.62,3283.7
1743.46,3340.25
1748.28,3346.75
1753.11,3381.6
1757.93,3398.3
1762.75,3396.9
1767.57,3436.6
1772.39,3383.7
1777.2,3386.3
1782.01,3395.35
1786.81,3344.1
1791.62,3299.2
1796.41,3286.1
1801.21,3303.65
1806.01,3283.65
1810.8,3289.85
1815.59,3284.8
1820.37,3287.3
1825.15,3261.2
1829.93,3254.5
1834.71,3282.65
1839.48,3286.5
1844.25,3248.55
1849.02,3263.3
1853.79,3268.05
1858.55,3274.1
1863.31,3269.0
1868.06,3272.95
1872.82,3281.4
1877.57,3290.5
1882.31,3287.6
1887.06,3263.95
1891.8,3299.45
1896.54,3302.0
1901.28,3275.35
1906.01,3285.55
1910.74,3314.6
1915.47,3290.7
1920.19,3261.55
1924.91,3271.2
1929.63,3265.6
1934.35,3284.65
1939.06,3248.9
1943.77,3252.4
1948.48,3293.4
1953.19,3269.85
1957.89,3261.8
1962.59,3279.75
1967.28,3273.5
1971.98,3290.2
1976.67,3275.2
1981.35,3255.3
1986.04,3285.0
1990.72,3283.4
1995.4,3257.5
2000.08,3295.5
2004.75,3277.4
2009.42,3297.2
2014.09,3273.9
2018.75,3306.75
2023.42,3325.3
2028.08,3307.7
2032.73,3284.7
2037.39,3298.35
2042.04,3280.65
2046.69,3255.75
2051.33,3284.15
2055.97,3282.3
2060.61,3279.4
2065.25,3278.25
2069.88,3288.6
2074.52,3292.4
2079.15,3297.25
2083.77,3293.0
2088.39,3282.4
2093.01,3276.25
2097.63,3282.1
2102.25,3261.85
2106.86,3305.05
2111.47,3293.5
2116.08,3309.7
2120.68,3293.95
2125.28,3295.5
2129.88,3272.2
2134.47,3327.8
2139.07,3281.2
2143.66,3282.85
2148.24,3312.15
2152.83,3298.0
2157.41,3292.85
2161.99,3294.75
2166.57,3312.0
2171.14,3315.2
2175.71,3294.0
2180.28,3294.25
2184.84,3296.55
2189.41,3300.1
2193.97,3304.85
2198.52,3294.65
2203.08,3308.8
2207.63,3310.15
2212.18,3319.9
2216.73,3300.85
2221.27,3316.6
2225.81,3297.95
2230.35,3282.45
2234.89,3297.9
2239.42,3275.25
2243.95,3326.35
2248.48,3324.5
2253.0,3293.1
2257.52,3313.0
2262.04,3291.15
2266.56,3316.85
2271.07,3289.2
2275.58,3281.25
2280.09,3261.25
2284.6,3295.05
2289.1,3297.8
2293.6,3311.7
2298.1,3282.8
2302.6,3294.9
2307.09,3293.35
2311.58,3299.3
2316.07,3297.45
2320.55,3325.2
2325.03,3263.5
2329.51,3301.55
2333.99,3315.15
2338.46,3329.1
2342.93,3293.2
2347.4,3327.3
2351.87,3279.05
2356.33,3284.1
2360.79,3277.2
2365.25,3296.3
2369.71,3291.7
2374.16,3282.4
2378.61,3280.7
2383.06,3287.85
2387.5,3298.15
2391.94,3297.05
2396.38,3303.1
2400.82,3302.15
2405.26,3320.3
2409.69,3322.85
2414.12,3303.75
2418.54,3332.85
2422.97,3317.9
2427.39,3285.15
2431.81,3316.35
2436.22,3287.6
2440.64,3300.0
2445.05,3268.0
2449.46,3266.55
2453.86,3291.45
2458.27,3324.7
2462.67,3315.0
2467.06,3268.0
2471.46,3294.4
2475.85,3297.25
2480.24,3317.45
2484.63,3297.05
2489.02,3272.95
2493.4,3271.75
2497.78,3288.45
2502.16,3326.1
2506.53,3279.65
2510.9,3301.5
2515.27,3283.85
2519.64,3282.15
2524.0,3307.0
2528.37,3318.45
2532.73,3292.7
2537.08,3268.2
2541.44,3324.9
2545.79,3274.2
2550.14,3304.0
2554.48,3299.3
2558.83,3281.05
2563.17,3290.75
2567.51,3280.6
2571.85,3299.2
2576.18,3275.3
2580.51,3261.15
2584.84,3274.9
2589.17,3267.5
2593.49,3293.25
2597.81,3276.1
2602.13,3278.3
2606.45,3291.4
2610.76,3297.1
2615.07,3287.0
2619.38,3278.75
2623.69,3274.45
2627.99,3251.75
2632.29,3287.15
2636.59,3281.35
2640.89,3289.4
2645.18,3247.95
2649.47,3290.6
2653.76,3289.5
2658.05,3316.85
2662.33,3299.25
2666.61,3244.05
2670.89,3286.45
2675.17,3262.2
2679.44,3292.5
2683.71,3268.3
2687.98,3287.7
2692.25,3296.35
2696.51,3257.9
2700.77,3269.05
2705.03,3272.75
2709.29,3279.15
2713.54,3304.3
2717.79,3256.95
2722.04,3267.95
2726.29,3255.95
2730.53,3266.0
2734.77,3323.45
2739.01,3304.3
2743.25,3320.55
2747.48,3274.8
2751.71,3278.75
2755.94,3288.05
2760.17,3287.0
2764.39,3264.85
2768.61,3252.3
2772.83,3270.95
2777.05,3288.95
2781.27,3226.5
2785.48,3255.4
2789.69,3215.25
2793.89,3240.0
2798.1,3267.35
2802.3,3223.05
2806.5,3238.2
2810.7,3219.55
2814.89,3223.2
2819.09,3246.1
2823.28,3252.85
2827.46,3254.05
2831.65,3237.35
2835.83,3237.2
2840.01,3243.75
2844.19,3277.65
2848.37,3256.7
2852.54,3263.85
2856.71,3322.3
2860.88,3274.75
2865.05,3353.3
2869.21,3357.9
2873.37,3449.1
2877.53,3536.35
2881.69,3506.85
2885.84,3518.5
2889.99,3461.0
2894.14,3424.1
2898.29,3454.8
2902.43,3460.15
2906.58,3448.4
2910.72,3492.4
2914.85,3501.3
2918.99,3483.9
2923.12,3437.1
2927.25,3547.85
2931.38,3710.6
2935.5,3956.9
2939.63,4234.0
2943.75,4530.65
2947.87,4599.85
2951.98,4375.5
2956.1,4114.35
2960.21,3883.4
2964.32,3660.2
2968.42,3607.3
2972.53,3580.25
2976.63,3525.35
2980.73,3493.55
2984.83,3517.35
2988.92,3584.25
2993.01,3619.7
2997.1,3687.3
3001.19,3759.45
3005.28,3687.1
3009.36,3602.05
3013.44,3555.6
3017.52,3459.45
3021.6,3406.9
3025.67,3307.75
3029.74,3253.35
3033.81,3212.4
3037.88,3206.5
3041.94,3167.4
3046.01,3171.6
3050.07,3141.6
3054.12,3131.05
3058.18,3112.6
3062.23,3100.2
3066.28,3085.55
3070.33,3106.7
3074.38,3097.7
3078.42,3108.95
3082.46,3096.85
3086.5,3082.65
3090.54,3087.45
3094.57,3066.85
3098.6,3057.65
3102.63,3046.9
3106.66,3085.1
3110.69,3069.65
3114.71,3022.55
3118.73,3102.05
3122.75,3049.7
3126.77,3049.85
3130.78,3069.75
3134.79,3038.85
3138.8,3013.15
3142.81,3019.9
3146.81,3016.8
3150.82,3036.65
3154.82,3022.95
3158.81,3006.5
3162.81,3016.3
3166.8,3025.8
3170.79,3019.3
3174.78,3022.15
3178.77,2974.3
3182.75,2974.05
3186.74,2980.15
3190.72,2951.6
3194.69,2987.35
3198.67,2982.2
3202.64,2984.4
3206.61,2996.85
3210.58,2991.75
3214.55,2988.05
3218.51,2938.75
3222.47,2980.2
3226.43,3000.6
3230.39,2963.0
3234.35,2948.0
3238.3,2942.3
3242.25,2941.6
3246.2,2929.8
3250.15,2934.3
3254.09,2925.75
3258.03,2927.45
3261.97,2908.45
3265.91,2926.25
3269.84,2892.35
3273.78,2913.9
3277.71,2926.7
3281.64,2930.1
3285.56,2907.95
3289.49,2890.4
3293.41,2922.1
3297.33,2920.85
3301.25,2889.3
3305.16,2868.6
3309.07,2876.9
3312.99,2880.95
3316.89,2855.5
3320.8,2863.95
3324.7,2835.9
3328.61,2841.5
3332.51,2860.05
3336.4,2864.7
3340.3,2843.55
3344.19,2839.15
3348.08,2827.65
3351.97,2856.05
3355.86,2832.15
3359.74,2842.95
3363.63,2836.7
3367.51,2817.7
3371.39,2809.75
3375.26,2790.65
3379.13,2803.65
3383.01,2792.0
3386.88,2814.6
3390.74,2790.95
3394.61,2775.45
3398.47,2793.0
3402.33,2799.55
3406.19,2786.0
3410.05,2797.25
3413.9,2780.25
3417.75,2745.65
3421.6,2767.5
3425.45,2782.3
3429.3,2782.0
3433.14,2786.95
3436.98,2739.3
3440.82,2726.8
3444.66,2773.15
3448.49,2756.7
3452.32,2741.85
3456.15,2776.05
3459.98,2760.7
3463.81,2732.65
3467.63,2701.95
3471.46,2724.35
3475.28,2704.6
3479.09,2749.4
3482.91,2712.4
3486.72,2699.1
3490.53,2668.75
3494.34,2682.55
3498.15,2708.1
3501.96,2687.8
3505.76,2682.75
3509.56,2656.8
3513.36,2673.45
3517.15,2661.95
3520.95,2653.7
3524.74,2670.35
3528.53,2640.7
3532.32,2660.8
3536.11,2648.4
3539.89,2662.3
3543.67,2648.6
3547.45,2648.95
3551.23,2613.35
3555.0,2627.1
3558.78,2621.8
3562.55,2632.7
3566.32,2609.75
3570.09,2624.75
3573.85,2600.35
3577.61,2614.4
3581.37,2643.3
3585.13,2604.35
3588.89,2580.4
3592.64,2598.7
3596.4,2608.35
3600.15,2587.55
3603.9,2564.55
3607.64,2583.55
3611.39,2573.75
3615.13,2555.8
3618.87,2557.25
3622.61,2567.55
3626.34,2537.35
3630.08,2551.8
3633.81,2541.8
3637.54,2562.0
3641.27,2538.8
3644.99,2528.65
3648.72,2549.75
3652.44,2576.05
3656.16,2551.0
3659.87,2538.95
3663.59,2518.3
3665.45,2526.05