File: spectra/VLFR_02-HDPE_bio_Raman_16d68728.csv
nm,Intensity
528.65,1855.8
528.819,1855.95
528.987,1855.5
529.155,1855.85
529.324,1856.3
529.492,1855.7
529.66,1854.7
529.829,1855.8
529.997,1855.9
530.165,1855.65
530.334,1856.35
530.502,1854.85
530.67,1856.5
530.839,1856.85
531.007,1856.85
531.175,1857.2
531.344,1857.25
531.512,1859.8
531.68,1887.75
531.848,2263.65
532.017,3262.1
532.185,2982.3
532.353,1953.45
532.521,1858.9
532.69,1855.25
532.858,1856.35
533.026,1857.25
533.194,1855.7
533.363,1857.55
533.531,1863.95
533.699,1903.55
533.867,1970.45
534.036,2027.05
534.204,2035.6
534.372,2025.55
534.54,2036.0
534.708,2037.6
534.877,2038.85
535.045,2063.0
535.213,2070.4
535.381,2058.55
535.549,2072.8
535.717,2084.35
535.886,2074.6
536.054,2073.8
536.222,2082.1
536.39,2067.25
536.558,2040.65
536.726,2044.9
536.894,2040.85
537.062,2048.5
537.231,2071.2
537.399,2062.45
537.567,2055.05
537.735,2055.9
537.903,2062.0
538.071,2066.7
538.239,2061.2
538.407,2060.55
538.575,2051.4
538.743,2047.0
538.911,2044.95
539.079,2049.85
539.247,2046.4
539.415,2049.65
539.583,2035.95
539.751,2041.85
539.919,2037.9
540.087,2042.65
540.255,2035.6
540.423,2035.95
540.591,2038.2
540.759,2047.95
540.927,2043.0
541.095,2053.45
541.263,2057.3
541.431,2048.9
541.599,2040.55
541.767,2053.4
541.935,2042.1
542.103,2055.9
542.271,2048.1
542.439,2051.0
542.607,2052.65
542.775,2063.2
542.943,2058.2
543.111,2062.45
543.279,2054.6
543.446,2060.75
543.614,2062.85
543.782,2080.05
543.95,2122.2
544.118,2165.35
544.286,2118.6
544.454,2079.05
544.622,2064.25
544.789,2067.45
544.957,2063.35
545.125,2070.95
545.293,2073.3
545.461,2068.2
545.629,2073.35
545.796,2087.95
545.964,2113.55
546.132,2156.1
546.3,2272.95
546.468,2351.4
546.635,2265.0
546.803,2148.7
546.971,2093.9
547.139,2091.4
547.306,2084.45
547.474,2070.7
547.642,2069.4
547.81,2077.45
547.977,2082.35
548.145,2071.9
548.313,2085.2
548.481,2090.85
548.648,2085.95
548.816,2090.45
548.984,2101.25
549.151,2102.8
549.319,2104.4
549.487,2105.85
549.655,2112.8
549.822,2125.0
549.99,2152.75
550.158,2184.05
550.325,2188.5
550.493,2150.2
550.66,2113.1
550.828,2096.7
550.996,2084.05
551.163,2077.7
551.331,2092.6
551.499,2091.3
551.666,2102.1
551.834,2103.5
552.001,2100.75
552.169,2103.25
552.337,2094.4
552.504,2092.3
552.672,2084.7
552.839,2084.5
553.007,2087.95
553.174,2083.55
553.342,2088.3
553.509,2089.6
553.677,2091.5
553.844,2087.65
554.012,2099.1
554.179,2103.7
554.347,2091.8
554.514,2101.2
554.682,2099.15
554.849,2098.75
555.017,2099.8
555.184,2111.4
555.352,2099.25
555.519,2095.1
555.687,2100.55
555.854,2101.4
556.022,2105.8
556.189,2104.05
556.357,2107.95
556.524,2111.3
556.691,2102.55
556.859,2114.75
557.026,2110.15
557.194,2106.6
557.361,2104.8
557.528,2117.35
557.696,2115.8
557.863,2109.1
558.031,2116.55
558.198,2122.85
558.365,2118.25
558.533,2114.4
558.7,2116.55
558.867,2112.4
559.035,2118.25
559.202,2118.8
559.369,2113.85
559.537,2116.95
559.704,2121.45
559.871,2117.05
560.038,2119.35
560.206,2107.85
560.373,2120.2
560.54,2127.85
560.708,2126.6
560.875,2137.0
561.042,2137.35
561.209,2139.7
561.377,2142.1
561.544,2158.1
561.711,2192.05
561.878,2273.7
562.045,2666.55
562.213,3405.2
562.38,3471.7
562.547,2578.0
562.714,2236.6
562.881,2171.95
563.049,2152.85
563.216,2155.15
563.383,2153.9
563.55,2163.75
563.717,2168.9
563.884,2217.95
564.052,2260.05
564.219,2233.65
564.386,2185.75
564.553,2175.85
564.72,2179.4
564.887,2184.65
565.054,2172.0
565.221,2162.1
565.388,2171.7
565.556,2171.95
565.723,2191.95
565.89,2221.65
566.057,2307.2
566.224,2339.7
566.391,2310.75
566.558,2281.85
566.725,2248.55
566.892,2194.65
567.059,2179.9
567.226,2176.6
567.393,2191.05
567.56,2168.2
567.727,2166.3
567.894,2179.05
568.061,2169.7
568.228,2152.05
568.395,2165.6
568.562,2168.5
568.729,2164.0
568.896,2176.1
569.063,2177.35
569.23,2175.45
569.396,2169.8
569.563,2186.75
569.73,2186.2
569.897,2180.35
570.064,2182.3
570.231,2188.0
570.398,2199.9
570.565,2184.3
570.732,2188.95
570.898,2199.75
571.065,2202.85
571.232,2234.65
571.399,2346.25
571.566,2398.2
571.733,2300.85
571.9,2247.4
572.066,2235.6
572.233,2224.95
572.4,2219.1
572.567,2220.05
572.734,2234.05
572.9,2214.35
573.067,2214.1
573.234,2207.2
573.401,2206.8
573.567,2226.85
573.734,2212.4
573.901,2225.95
574.068,2235.65
574.234,2224.85
574.401,2224.5
574.568,2231.8
574.734,2230.6
574.901,2227.65
575.068,2239.95
575.235,2256.55
575.401,2283.1
575.568,2335.3
575.735,2308.2
575.901,2326.35
576.068,2358.1
576.235,2405.35
576.401,2425.95
576.568,2377.0
576.734,2374.15
576.901,2368.7
577.068,2371.6
577.234,2351.35
577.401,2327.15
577.567,2313.15
577.734,2298.3
577.901,2290.25
578.067,2308.75
578.234,2302.05
578.4,2303.35
578.567,2318.85
578.733,2314.05
578.9,2319.0
579.066,2334.1
579.233,2345.8
579.399,2357.5
579.566,2355.1
579.732,2344.4
579.899,2367.9
580.065,2378.75
580.232,2386.4
580.398,2396.35
580.565,2392.35
580.731,2413.25
580.898,2411.25
581.064,2415.3
581.231,2441.2
581.397,2434.2
581.563,2452.45
581.73,2451.45
581.896,2480.9
582.063,2461.65
582.229,2486.95
582.395,2495.7
582.562,2516.3
582.728,2516.25
582.895,2529.3
583.061,2525.75
583.227,2543.4
583.394,2549.55
583.56,2584.1
583.726,2562.7
583.893,2594.05
584.059,2603.35
584.225,2595.2
584.391,2617.5
584.558,2623.8
584.724,2623.4
584.89,2629.85
585.057,2635.65
585.223,2645.65
585.389,2659.3
585.555,2657.5
585.722,2639.45
585.888,2652.2
586.054,2671.1
586.22,2696.8
586.386,2677.35
586.553,2696.55
586.719,2691.15
586.885,2706.25
587.051,2700.0
587.217,2734.0
587.384,2727.4
587.55,2742.3
587.716,2766.7
587.882,2737.75
588.048,2749.05
588.214,2795.5
588.38,2778.7
588.546,2789.65
588.713,2805.35
588.879,2776.8
589.045,2797.9
589.211,2788.35
589.377,2791.75
589.543,2804.75
589.709,2836.6
589.875,2829.2
590.041,2846.35
590.207,2890.7
590.373,2878.7
590.539,2900.5
590.705,2912.4
590.871,2894.1
591.037,2910.95
591.203,2922.0
591.369,2951.2
591.535,2951.6
591.701,2947.3
591.867,2981.25
592.033,2981.9
592.199,2989.8
592.365,3008.75
592.531,2997.7
592.697,3021.7
592.863,3063.25
593.029,3064.85
593.195,3023.4
593.361,3064.5
593.526,3095.25
593.692,3101.1
593.858,3103.45
594.024,3123.0
594.19,3120.8
594.356,3127.0
594.522,3157.65
594.687,3197.5
594.853,3193.35
595.019,3239.0
595.185,3192.5
595.351,3264.05
595.516,3248.05
595.682,3291.95
595.848,3292.15
596.014,3340.7
596.18,3309.5
596.345,3350.55
596.511,3360.65
596.677,3392.45
596.843,3397.65
597.008,3365.45
597.174,3417.65
597.34,3447.9
597.505,3468.0
597.671,3450.55
597.837,3488.75
598.002,3493.5
598.168,3448.0
598.334,3502.65
598.499,3599.25
598.665,3553.6
598.831,3536.25
598.996,3594.85
599.162,3624.7
599.328,3624.35
599.493,3575.85
599.659,3635.4
599.824,3653.0
599.99,3610.75
600.156,3646.55
600.321,3660.85
600.487,3674.2
600.652,3726.05
600.818,3689.55
600.983,3624.8
601.149,3719.65
601.314,3648.6
601.48,3708.55
601.645,3646.9
601.811,3676.9
601.976,3655.3
602.142,3648.9
602.307,3668.35
602.473,3663.25
602.638,3614.25
602.804,3673.4
602.969,3647.3
603.135,3635.85
603.3,3569.4
603.466,3579.4
603.631,3587.4
603.796,3603.25
603.962,3566.6
604.127,3525.15
604.293,3544.65
604.458,3485.55
604.623,3522.15
604.789,3470.8
604.954,3470.85
605.119,3458.9
605.285,3442.2
605.45,3411.9
605.615,3409.95
605.781,3400.3
605.946,3335.95
606.111,3320.45
606.277,3340.8
606.442,3345.45
606.607,3317.55
606.772,3284.7
606.938,3278.15
607.103,3290.4
607.268,3255.45
607.433,3197.85
607.599,3226.1
607.764,3218.25
607.929,3180.45
608.094,3201.55
608.259,3165.1
608.425,3128.5
608.59,3158.15
608.755,3137.95
608.92,3106.65
609.085,3098.6
609.25,3108.55
609.415,3076.95
609.581,3081.2
609.746,3036.4
609.911,3028.65
610.076,3033.15
610.241,3043.6
610.406,3025.5
610.571,3001.05
610.736,2983.4
610.901,3019.4
611.066,2996.9
611.231,3002.7
611.396,2972.15
611.561,2977.05
611.727,2984.05
611.892,2948.35
612.057,2951.85
612.222,2937.25
612.386,2944.6
612.551,2904.1
612.716,2910.0
612.881,2925.45
613.046,2905.75
613.211,2880.75
613.376,2906.7
613.541,2891.75
613.706,2863.65
613.871,2843.15
614.036,2885.25
614.201,2884.65
614.366,2873.6
614.531,2850.05
614.695,2855.1
614.86,2838.85
615.025,2841.9
615.19,2815.15
615.355,2800.75
615.52,2831.05
615.684,2814.95
615.849,2820.7
616.014,2807.2
616.179,2779.9
616.344,2812.15
616.508,2764.95
616.673,2772.7
616.838,2763.95
617.003,2763.25
617.168,2775.95
617.332,2763.2
617.497,2748.25
617.662,2745.7
617.826,2761.0
617.991,2755.3
618.156,2732.5
618.32,2744.3
618.485,2760.4
618.65,2752.9
618.814,2714.8
618.979,2722.15
619.144,2741.65
619.308,2703.55
619.473,2710.7
619.638,2734.55
619.802,2723.75
619.967,2720.5
620.131,2717.7
620.296,2702.7
620.461,2731.45
620.625,2702.65
620.79,2693.8
620.954,2679.6
621.119,2689.6
621.283,2728.65
621.448,2700.7
621.612,2714.35
621.777,2724.75
621.941,2704.6
622.106,2713.3
622.27,2726.5
622.435,2737.2
622.599,2709.7
622.764,2697.35
622.928,2670.95
623.093,2663.85
623.257,2645.4
623.422,2640.4
623.586,2641.7
623.75,2659.5
623.915,2640.45
624.079,2631.15
624.244,2637.65
624.408,2641.7
624.572,2634.4
624.737,2618.9
624.901,2610.15
625.065,2608.2
625.23,2605.65
625.394,2621.7
625.558,2628.25
625.723,2612.25
625.887,2614.55
626.051,2636.7
626.215,2658.8
626.38,2665.95
626.544,2764.4
626.708,2900.8
626.872,3090.95
627.037,3345.4
627.201,3474.15
627.365,3400.8
627.529,3228.65
627.693,3160.8
627.858,3101.55
628.022,3000.7
628.186,3168.1
628.35,3426.95
628.514,3652.85
628.678,3653.8
628.843,3344.65
629.007,3185.05
629.171,3126.9
629.335,3113.4
629.499,2995.75
629.663,2944.15
629.827,2942.35
629.991,2844.3
630.155,2868.3
630.319,2890.9
630.483,2840.05
630.647,2779.95
630.812,2743.1
630.976,2704.5
631.14,2647.1
631.304,2594.35
631.468,2606.65
631.632,2571.5
631.796,2561.75
631.959,2583.55
632.123,2566.5
632.287,2554.85
632.451,2573.7
632.615,2573.9
632.779,2572.35
632.943,2578.6
633.107,2580.7
633.271,2543.25
633.435,2577.3
633.599,2563.5
633.763,2577.15
633.926,2577.05
634.09,2547.35
634.254,2559.45
634.418,2547.5
634.582,2572.4
634.746,2541.05
634.909,2541.4
635.073,2550.3
635.237,2567.75
635.401,2577.0
635.564,2534.15
635.728,2521.4
635.892,2545.65
636.056,2537.9
636.219,2553.05
636.383,2551.6
636.547,2548.6
636.711,2553.35
636.874,2543.35
637.038,2537.8
637.202,2549.05
637.365,2548.8
637.529,2536.95
637.693,2552.0
637.856,2560.6
638.02,2560.05
638.184,2536.3
638.347,2561.65
638.511,2577.85
638.674,2554.75
638.838,2562.75
639.002,2555.2
639.165,2543.15
639.329,2557.2
639.492,2551.1
639.656,2541.2
639.819,2561.85
639.983,2543.1
640.146,2563.3
640.31,2567.6
640.473,2568.5
640.637,2545.25
640.8,2558.75
640.964,2555.05
641.127,2565.95
641.291,2599.6
641.454,2582.9
641.618,2539.25
641.781,2575.35
641.944,2576.25
642.108,2550.0
642.271,2590.1
642.435,2593.75
642.598,2572.75
642.761,2602.45
642.925,2596.1
643.088,2589.2
643.251,2580.75
643.415,2587.95
643.578,2594.8
643.741,2608.4
643.905,2617.8
644.068,2606.6
644.231,2627.55
644.394,2615.05
644.558,2590.35
644.721,2594.65
644.884,2615.6
645.047,2641.95
645.211,2611.5
645.374,2626.3
645.537,2612.55
645.7,2593.2
645.863,2623.0
646.027,2631.85
646.19,2600.2
646.353,2627.2
646.516,2634.85
646.679,2634.65
646.842,2616.3
647.005,2642.1
647.169,2650.9
647.332,2644.55
647.495,2669.1
647.658,2611.95
647.821,2630.85
647.984,2641.0
648.147,2627.55
648.31,2643.3
648.473,2654.85
648.636,2673.15
648.799,2666.3
648.962,2644.75
649.125,2680.8
649.288,2732.9
649.451,2718.35
649.614,2716.1
649.777,2771.7
649.94,2787.3
650.103,2763.2
650.266,2764.85
650.429,2714.15
650.592,2728.45
650.755,2686.45
650.918,2692.95
651.08,2687.35
651.243,2722.8
651.406,2663.15
651.569,2630.65
651.732,2643.65
651.895,2684.7
652.058,2649.75
652.22,2664.3
652.383,2642.85
652.546,2639.9
652.709,2670.2
652.872,2613.75
653.034,2666.75
653.197,2662.45
653.36,2627.75
653.523,2652.1
653.685,2645.35
653.848,2665.45
654.011,2629.2
654.173,2638.55
654.336,2638.2
654.499,2613.95
654.662,2606.4
654.824,2602.4
654.987,2605.4
655.149,2604.7
655.312,2591.65
655.475,2618.1
655.637,2570.5
655.8,2597.25
655.963,2587.95
656.125,2577.15
656.288,2553.05
656.45,2554.4
656.613,2578.05
656.775,2554.75
656.938,2547.6
657.1,2557.05
657.263,2526.35
657.425,2528.0
657.588,2534.8
657.75,2529.1
657.913,2505.15
658.075,2510.5
658.238,2503.9
658.4,2473.7
658.563,2479.85
658.725,2493.8
658.888,2494.15
659.05,2487.55
659.212,2444.85
659.375,2444.95
659.537,2451.85
659.7,2437.6
659.862,2459.95
660.024,2427.4
660.187,2409.4
660.349,2420.55
660.511,2408.5
660.674,2412.6
660.836,2392.4
660.998,2407.1
661.079,2398.2