File: spectra/VLFR_02-HDPE_bio_Raman_2e1fd8f6.csv
nm,Intensity
528.626,1862.9
528.795,1861.6
528.963,1864.6
529.132,1863.9
529.3,1861.5
529.469,1864.3
529.637,1862.5
529.806,1862.2
529.974,1864.0
530.143,1862.2
530.311,1863.0
530.48,1862.6
530.648,1862.3
530.816,1862.4
530.985,1863.4
531.153,1866.1
531.322,1864.4
531.49,1868.8
531.658,1889.7
531.827,2328.8
531.995,3380.4
532.164,3243.8
532.332,2131.5
532.5,1867.4
532.669,1863.0
532.837,1863.6
533.006,1863.1
533.174,1866.0
533.342,1865.7
533.511,1887.2
533.679,2008.3
533.847,2255.8
534.016,2446.1
534.184,2516.5
534.352,2456.7
534.521,2454.7
534.689,2486.4
534.857,2511.4
535.025,2529.8
535.194,2488.7
535.362,2464.6
535.53,2390.0
535.699,2365.3
535.867,2326.8
536.035,2315.7
536.203,2296.4
536.372,2282.1
536.54,2299.4
536.708,2295.1
536.876,2260.6
537.044,2271.9
537.213,2277.0
537.381,2291.2
537.549,2282.5
537.717,2313.1
537.885,2289.5
538.054,2277.6
538.222,2273.4
538.39,2260.0
538.558,2263.0
538.726,2262.6
538.894,2245.0
539.063,2238.2
539.231,2221.4
539.399,2226.8
539.567,2222.6
539.735,2221.3
539.903,2212.3
540.071,2227.7
540.239,2217.9
540.408,2207.9
540.576,2215.4
540.744,2215.6
540.912,2207.7
541.08,2205.2
541.248,2215.4
541.416,2221.2
541.584,2232.5
541.752,2233.9
541.92,2240.0
542.088,2224.9
542.256,2214.7
542.424,2230.6
542.592,2228.3
542.76,2222.1
542.928,2224.8
543.096,2222.5
543.264,2218.4
543.432,2208.3
543.6,2229.7
543.768,2257.2
543.936,2247.7
544.104,2254.3
544.272,2248.9
544.44,2221.3
544.608,2214.6
544.776,2230.5
544.944,2250.8
545.112,2242.8
545.28,2247.7
545.448,2228.8
545.616,2231.9
545.784,2242.3
545.951,2247.5
546.119,2224.5
546.287,2221.2
546.455,2244.5
546.623,2251.5
546.791,2246.0
546.959,2253.5
547.127,2260.1
547.294,2248.7
547.462,2242.5
547.63,2221.4
547.798,2229.8
547.966,2239.5
548.134,2252.6
548.301,2246.7
548.469,2263.3
548.637,2254.8
548.805,2241.4
548.972,2247.4
549.14,2254.8
549.308,2257.4
549.476,2246.4
549.644,2247.6
549.811,2253.0
549.979,2245.2
550.147,2245.8
550.315,2244.3
550.482,2248.0
550.65,2251.0
550.818,2246.9
550.985,2248.6
551.153,2244.7
551.321,2251.4
551.488,2259.7
551.656,2269.1
551.824,2274.5
551.991,2260.7
552.159,2261.5
552.327,2263.0
552.494,2259.0
552.662,2262.3
552.83,2249.3
552.997,2267.5
553.165,2270.7
553.333,2283.8
553.5,2288.0
553.668,2272.3
553.835,2305.8
554.003,2313.8
554.171,2302.8
554.338,2295.0
554.506,2292.3
554.673,2317.3
554.841,2316.6
555.008,2323.6
555.176,2312.4
555.343,2326.0
555.511,2315.3
555.679,2332.3
555.846,2311.1
556.014,2342.8
556.181,2311.8
556.349,2328.9
556.516,2311.3
556.684,2332.9
556.851,2330.1
557.018,2345.0
557.186,2329.3
557.353,2342.2
557.521,2348.0
557.688,2386.6
557.856,2382.1
558.023,2357.1
558.191,2380.3
558.358,2371.9
558.525,2372.3
558.693,2349.0
558.86,2337.0
559.028,2349.3
559.195,2366.0
559.362,2361.5
559.53,2343.4
559.697,2365.7
559.864,2362.1
560.032,2330.3
560.199,2335.8
560.366,2334.5
560.534,2363.8
560.701,2369.7
560.868,2375.0
561.036,2392.4
561.203,2376.3
561.37,2363.5
561.538,2346.0
561.705,2356.0
561.872,2369.2
562.039,2390.1
562.207,2404.4
562.374,2380.6
562.541,2413.3
562.708,2406.6
562.876,2407.1
563.043,2412.6
563.21,2438.6
563.377,2448.3
563.545,2506.5
563.712,2666.4
563.879,3125.6
564.046,3337.1
564.213,2948.8
564.38,2644.5
564.548,2602.3
564.715,2598.0
564.882,2580.8
565.049,2506.0
565.216,2501.1
565.383,2483.4
565.551,2519.0
565.718,2593.6
565.885,2891.7
566.052,3406.8
566.219,3571.6
566.386,3005.8
566.553,2576.2
566.72,2464.5
566.887,2464.8
567.054,2490.6
567.221,2531.0
567.388,2577.9
567.555,2590.8
567.722,2491.2
567.889,2458.9
568.057,2433.1
568.224,2451.9
568.391,2434.1
568.558,2433.4
568.725,2414.3
568.892,2431.0
569.058,2440.7
569.225,2455.6
569.392,2463.5
569.559,2462.4
569.726,2463.9
569.893,2467.4
570.06,2449.5
570.227,2480.3
570.394,2508.1
570.561,2511.2
570.728,2514.6
570.895,2557.0
571.062,2580.0
571.229,2845.5
571.395,3575.0
571.562,4179.2
571.729,3449.5
571.896,2849.9
572.063,2691.9
572.23,2617.8
572.397,2586.3
572.563,2572.0
572.73,2533.6
572.897,2519.1
573.064,2502.8
573.231,2498.3
573.397,2530.7
573.564,2530.9
573.731,2540.2
573.898,2584.7
574.064,2608.5
574.231,2546.2
574.398,2499.1
574.565,2515.1
574.731,2508.2
574.898,2526.3
575.065,2556.5
575.232,2710.2
575.398,3004.5
575.565,3349.5
575.732,3125.0
575.898,3042.0
576.065,3288.2
576.232,3620.9
576.398,3652.1
576.565,3366.0
576.732,3263.0
576.898,3289.9
577.065,3248.1
577.232,3111.3
577.398,2940.3
577.565,2808.4
577.731,2721.6
577.898,2692.8
578.065,2661.4
578.231,2623.1
578.398,2647.5
578.564,2637.1
578.731,2663.8
578.897,2665.1
579.064,2662.3
579.23,2657.9
579.397,2696.4
579.563,2701.3
579.73,2728.9
579.896,2686.9
580.063,2711.9
580.229,2700.1
580.396,2733.3
580.562,2737.2
580.729,2740.5
580.895,2772.4
581.062,2756.8
581.228,2762.1
581.395,2772.0
581.561,2782.8
581.728,2810.0
581.894,2778.6
582.06,2813.4
582.227,2804.1
582.393,2791.5
582.56,2825.6
582.726,2817.6
582.892,2833.6
583.059,2837.4
583.225,2853.8
583.391,2870.5
583.558,2864.6
583.724,2852.9
583.89,2885.0
584.057,2886.6
584.223,2903.4
584.389,2895.6
584.556,2887.9
584.722,2900.0
584.888,2931.3
585.054,2920.2
585.221,2932.6
585.387,2959.5
585.553,2964.8
585.719,2936.2
585.886,2952.1
586.052,2975.3
586.218,2977.9
586.384,2993.2
586.55,3006.8
586.717,3035.2
586.883,3070.8
587.049,3058.8
587.215,3071.9
587.381,3071.9
587.548,3119.6
587.714,3115.2
587.88,3139.0
588.046,3153.4
588.212,3132.8
588.378,3182.9
588.544,3175.2
588.71,3202.1
588.876,3166.0
589.043,3175.9
589.209,3216.1
589.375,3237.2
589.541,3243.8
589.707,3259.7
589.873,3284.8
590.039,3325.7
590.205,3298.9
590.371,3345.1
590.537,3379.6
590.703,3465.3
590.869,3382.2
591.035,3405.5
591.201,3433.0
591.367,3442.8
591.533,3421.4
591.699,3459.8
591.865,3479.3
592.031,3504.4
592.197,3511.4
592.363,3492.0
592.529,3517.8
592.694,3546.2
592.86,3518.6
593.026,3538.1
593.192,3554.3
593.358,3599.5
593.524,3535.3
593.69,3558.1
593.856,3556.5
594.021,3568.8
594.187,3588.9
594.353,3558.6
594.519,3572.6
594.685,3565.4
594.851,3544.5
595.016,3588.5
595.182,3623.6
595.348,3607.1
595.514,3641.5
595.68,3634.3
595.845,3638.3
596.011,3624.1
596.177,3671.6
596.342,3672.0
596.508,3655.2
596.674,3648.6
596.84,3624.6
597.005,3692.3
597.171,3700.4
597.337,3682.1
597.502,3664.8
597.668,3611.1
597.834,3688.6
597.999,3638.2
598.165,3665.9
598.331,3704.1
598.496,3715.6
598.662,3709.2
598.828,3682.9
598.993,3703.7
599.159,3754.9
599.324,3763.5
599.49,3754.2
599.656,3761.4
599.821,3753.3
599.987,3734.3
600.152,3748.9
600.318,3754.2
600.483,3806.3
600.649,3687.5
600.814,3759.2
600.98,3748.7
601.145,3740.8
601.311,3801.7
601.476,3770.8
601.642,3746.0
601.807,3805.1
601.973,3812.7
602.138,3708.8
602.304,3736.6
602.469,3675.2
602.635,3743.5
602.8,3751.3
602.965,3686.7
603.131,3652.4
603.296,3694.3
603.462,3694.3
603.627,3677.1
603.792,3672.4
603.958,3654.7
604.123,3588.3
604.288,3603.0
604.454,3608.0
604.619,3597.4
604.784,3587.6
604.95,3580.7
605.115,3544.1
605.28,3504.6
605.446,3521.3
605.611,3493.6
605.776,3470.6
605.941,3500.9
606.107,3435.7
606.272,3427.9
606.437,3429.7
606.602,3388.5
606.767,3403.5
606.933,3409.6
607.098,3405.5
607.263,3377.3
607.428,3382.1
607.593,3327.6
607.759,3284.2
607.924,3331.7
608.089,3314.1
608.254,3294.7
608.419,3310.7
608.584,3296.5
608.749,3283.9
608.915,3247.8
609.08,3230.8
609.245,3219.5
609.41,3228.6
609.575,3241.0
609.74,3213.1
609.905,3167.6
610.07,3182.9
610.235,3174.6
610.4,3199.5
610.565,3178.0
610.73,3172.2
610.895,3189.6
611.06,3167.4
611.225,3178.2
611.39,3136.4
611.555,3134.4
611.72,3112.0
611.885,3124.0
612.05,3067.9
612.215,3076.2
612.38,3072.3
612.545,3078.9
612.71,3050.8
612.875,3074.1
613.04,3074.1
613.204,3057.7
613.369,3039.9
613.534,3018.8
613.699,2994.3
613.864,3029.3
614.029,3019.5
614.194,2984.5
614.358,3032.0
614.523,2991.2
614.688,2983.7
614.853,2989.7
615.018,2957.8
615.182,2981.9
615.347,3001.1
615.512,2971.7
615.677,2937.5
615.841,2991.6
616.006,2939.5
616.171,2944.7
616.336,2923.5
616.5,2952.6
616.665,2933.5
616.83,2947.6
616.994,2971.7
617.159,3005.0
617.324,2983.6
617.489,2987.1
617.653,2958.8
617.818,2953.8
617.982,2980.7
618.147,2966.7
618.312,2962.7
618.476,2951.5
618.641,2971.3
618.805,2954.3
618.97,2919.1
619.135,2955.4
619.299,2946.7
619.464,2976.5
619.628,2975.8
619.793,2953.4
619.957,2931.9
620.122,2980.6
620.286,2941.3
620.451,2959.0
620.615,2967.5
620.78,2956.8
620.944,2941.2
621.109,2995.7
621.273,3029.1
621.438,3035.8
621.602,3093.1
621.767,3164.7
621.931,3197.8
622.095,3292.2
622.26,3350.9
622.424,3273.6
622.589,3196.4
622.753,3096.1
622.917,2987.5
623.082,2944.8
623.246,2909.3
623.41,2937.5
623.575,2900.4
623.739,2877.0
623.903,2869.7
624.068,2849.9
624.232,2862.3
624.396,2899.4
624.561,2886.2
624.725,2856.9
624.889,2877.9
625.053,2864.3
625.218,2895.4
625.382,2872.4
625.546,2896.7
625.71,2960.5
625.875,2987.9
626.039,3052.6
626.203,3118.5
626.367,3408.6
626.531,3901.1
626.695,4865.0
626.86,6487.1
627.024,8001.3
627.188,9231.6
627.352,8757.9
627.516,7635.5
627.68,7089.2
627.844,6563.1
628.008,6324.3
628.172,6984.6
628.337,8608.7
628.501,9807.3
628.665,8939.2
628.829,7086.2
628.993,6309.7
629.157,6159.7
629.321,5788.6
629.485,5467.7
629.649,5212.8
629.813,4814.0
629.977,4752.8
630.141,4613.2
630.305,4488.0
630.469,4478.9
630.633,4371.5
630.797,3957.8
630.96,3615.8
631.124,3354.0
631.288,3155.6
631.452,3017.8
631.616,2975.7
631.78,2916.4
631.944,2885.7
632.108,2867.0
632.272,2810.7
632.435,2853.9
632.599,2839.8
632.763,2869.9
632.927,2822.7
633.091,2790.2
633.254,2815.5
633.418,2774.6
633.582,2797.0
633.746,2784.6
633.91,2777.0
634.073,2783.6
634.237,2723.5
634.401,2747.6
634.564,2780.9
634.728,2720.1
634.892,2767.3
635.056,2754.0
635.219,2751.6
635.383,2722.0
635.547,2697.5
635.71,2682.0
635.874,2680.7
636.038,2708.9
636.201,2710.2
636.365,2727.4
636.528,2744.1
636.692,2707.8
636.856,2741.4
637.019,2659.4
637.183,2698.2
637.346,2719.9
637.51,2675.2
637.673,2670.1
637.837,2694.2
638.0,2695.8
638.164,2692.8
638.327,2698.9
638.491,2694.7
638.654,2680.4
638.818,2682.5
638.981,2687.9
639.145,2686.8
639.308,2633.4
639.472,2690.4
639.635,2686.6
639.799,2677.6
639.962,2681.3
640.125,2675.7
640.289,2717.0
640.452,2690.1
640.616,2684.9
640.779,2660.6
640.942,2667.5
641.106,2685.6
641.269,2708.2
641.432,2711.3
641.596,2688.4
641.759,2657.8
641.922,2673.7
642.085,2683.2
642.249,2731.8
642.412,2722.0
642.575,2698.4
642.738,2740.6
642.902,2696.9
643.065,2660.1
643.228,2696.7
643.391,2710.5
643.555,2693.3
643.718,2659.0
643.881,2707.4
644.044,2729.7
644.207,2740.0
644.37,2703.5
644.534,2714.1
644.697,2733.8
644.86,2697.4
645.023,2670.7
645.186,2691.5
645.349,2699.2
645.512,2687.1
645.675,2687.6
645.838,2707.9
646.001,2692.3
646.164,2682.9
646.327,2642.2
646.49,2654.8
646.653,2671.7
646.816,2653.9
646.979,2662.3
647.142,2656.9
647.305,2679.9
647.468,2599.4
647.631,2628.6
647.794,2650.7
647.957,2609.8
648.12,2670.0
648.283,2631.1
648.446,2627.9
648.609,2625.5
648.772,2624.9
648.935,2631.8
649.098,2608.9
649.26,2626.1
649.423,2593.5
649.586,2592.2
649.749,2602.3
649.912,2593.1
650.075,2586.0
650.237,2573.5
650.4,2637.6
650.563,2582.9
650.726,2587.1
650.888,2599.8
651.051,2642.6
651.214,2588.0
651.377,2567.9
651.539,2595.3
651.702,2557.8
651.865,2530.6
652.027,2572.1
652.19,2583.2
652.353,2572.6
652.515,2538.1
652.678,2570.4
652.841,2559.5
653.003,2531.0
653.166,2544.5
653.329,2550.9
653.491,2532.5
653.654,2511.7
653.816,2558.9
653.979,2526.9
654.142,2528.3
654.304,2519.4
654.467,2494.2
654.629,2507.6
654.792,2504.1
654.954,2517.9
655.117,2475.8
655.279,2486.7
655.442,2493.1
655.604,2485.0
655.767,2458.9
655.929,2467.3
656.091,2457.1
656.254,2428.7
656.416,2420.2
656.579,2435.4
656.741,2444.5
656.904,2452.8
657.066,2439.6
657.228,2442.0
657.391,2466.1
657.553,2440.6
657.715,2404.5
657.878,2423.8
658.04,2445.6
658.202,2414.2
658.365,2412.5
658.527,2441.6
658.689,2393.7
658.851,2385.4
659.014,2428.8
659.176,2407.5
659.338,2377.2
659.5,2372.3
659.663,2372.6
659.825,2375.8
659.987,2391.2
660.149,2395.9
660.311,2389.5
660.474,2392.7
660.636,2383.7
660.798,2373.9
660.96,2350.9
661.041,2346.3