File: spectra/VLFR_08-PLA_nobio_Raman_c17bacbe.csv
nm,Intensity
526.486,830.0
526.622,831.0
526.759,829.6
526.896,829.8
527.033,830.7
527.169,829.0
527.306,830.0
527.443,830.8
527.579,830.1
527.716,830.7
527.853,830.5
527.989,830.0
528.126,830.6
528.263,829.9
528.399,830.9
528.536,830.5
528.672,830.4
528.809,830.7
528.946,831.4
529.082,830.0
529.219,829.7
529.355,829.7
529.492,830.5
529.628,829.7
529.765,831.0
529.901,830.0
530.038,830.7
530.174,829.1
530.311,829.5
530.447,828.7
530.584,830.7
530.72,830.7
530.857,828.9
530.993,830.2
531.13,830.3
531.266,830.3
531.403,831.4
531.539,830.6
531.676,829.9
531.812,830.2
531.948,834.5
532.085,863.4
532.221,881.1
532.358,844.5
532.494,832.6
532.63,829.1
532.767,830.6
532.903,831.0
533.039,829.5
533.176,829.5
533.312,831.1
533.448,831.3
533.585,831.4
533.721,841.3
533.857,896.5
533.993,1003.1
534.13,1054.3
534.266,1047.0
534.402,1035.7
534.539,1021.0
534.675,1015.7
534.811,1001.9
534.947,994.6
535.083,990.3
535.22,983.2
535.356,977.7
535.492,967.7
535.628,969.0
535.764,963.9
535.901,961.4
536.037,955.1
536.173,953.4
536.309,956.4
536.445,962.2
536.581,962.1
536.717,963.9
536.854,959.3
536.99,960.0
537.126,954.1
537.262,955.0
537.398,952.4
537.534,952.1
537.67,953.6
537.806,958.3
537.942,954.3
538.078,951.8
538.214,946.8
538.35,945.7
538.486,940.9
538.622,942.1
538.758,941.3
538.894,941.7
539.03,939.2
539.166,945.5
539.302,943.5
539.438,942.4
539.574,939.0
539.71,937.7
539.846,934.8
539.982,935.0
540.118,933.9
540.254,933.2
540.39,941.6
540.526,949.8
540.662,950.9
540.798,952.2
540.933,948.9
541.069,952.3
541.205,954.6
541.341,949.7
541.477,948.9
541.613,950.3
541.749,947.3
541.884,944.2
542.02,943.6
542.156,938.1
542.292,942.1
542.428,942.9
542.563,937.0
542.699,939.5
542.835,942.5
542.971,950.7
543.106,949.0
543.242,954.8
543.378,963.1
543.514,970.8
543.649,975.2
543.785,976.1
543.921,972.1
544.057,978.6
544.192,968.1
544.328,964.0
544.464,958.9
544.599,952.3
544.735,950.6
544.871,941.9
545.006,949.5
545.142,944.7
545.278,948.3
545.413,947.2
545.549,946.1
545.684,944.0
545.82,944.5
545.956,944.3
546.091,948.3
546.227,946.7
546.362,944.0
546.498,948.0
546.634,944.3
546.769,946.1
546.905,947.9
547.04,948.4
547.176,952.0
547.311,952.8
547.447,950.4
547.582,946.0
547.718,945.3
547.853,949.4
547.989,948.3
548.124,950.2
548.26,950.1
548.395,952.3
548.531,946.8
548.666,948.9
548.802,953.9
548.937,956.4
549.072,960.7
549.208,957.6
549.343,953.4
549.479,957.8
549.614,953.7
549.75,952.5
549.885,951.6
550.02,953.0
550.156,956.7
550.291,954.8
550.426,955.9
550.562,957.4
550.697,954.9
550.832,956.5
550.968,961.1
551.103,963.0
551.238,963.5
551.374,965.5
551.509,961.4
551.644,966.8
551.78,966.8
551.915,964.3
552.05,964.3
552.185,964.6
552.321,965.4
552.456,963.1
552.591,968.7
552.726,971.0
552.862,967.2
552.997,967.2
553.132,971.1
553.267,966.1
553.403,964.3
553.538,960.7
553.673,968.3
553.808,974.8
553.943,975.0
554.078,981.3
554.214,981.4
554.349,971.7
554.484,978.7
554.619,969.7
554.754,967.7
554.889,968.2
555.024,967.9
555.16,963.0
555.295,965.1
555.43,964.4
555.565,962.8
555.7,964.3
555.835,965.9
555.97,961.8
556.105,961.4
556.24,960.6
556.375,963.9
556.51,963.6
556.645,967.5
556.78,964.7
556.915,963.6
557.05,967.8
557.185,974.6
557.32,976.7
557.455,977.4
557.59,996.1
557.725,1017.6
557.86,1046.1
557.995,1084.0
558.13,1119.5
558.265,1089.5
558.4,1036.0
558.535,1001.1
558.67,989.9
558.805,985.7
558.94,980.7
559.075,980.0
559.21,984.8
559.345,985.3
559.479,980.3
559.614,977.9
559.749,983.5
559.884,975.1
560.019,976.3
560.154,978.7
560.289,975.6
560.424,980.2
560.558,976.0
560.693,978.3
560.828,975.4
560.963,978.4
561.098,971.6
561.232,970.1
561.367,972.4
561.502,973.0
561.637,972.6
561.772,968.7
561.906,971.5
562.041,978.4
562.176,971.4
562.311,977.5
562.445,976.9
562.58,980.5
562.715,980.6
562.85,984.6
562.984,989.3
563.119,998.2
563.254,1001.2
563.388,1016.2
563.523,1024.0
563.658,1014.5
563.792,1007.6
563.927,1000.0
564.062,996.6
564.196,990.6
564.331,989.3
564.466,989.0
564.6,995.5
564.735,997.3
564.87,1004.4
565.004,1006.7
565.139,1014.5
565.273,1010.9
565.408,1011.4
565.543,1007.5
565.677,1004.6
565.812,1016.2
565.946,1024.5
566.081,1034.1
566.215,1042.1
566.35,1026.7
566.485,1022.6
566.619,1006.1
566.754,993.9
566.888,988.3
567.023,989.5
567.157,984.2
567.292,989.0
567.426,987.9
567.561,991.7
567.695,990.4
567.83,993.9
567.964,1000.8
568.099,1002.1
568.233,997.5
568.368,992.8
568.502,987.9
568.636,999.1
568.771,1000.5
568.905,1001.4
569.04,1000.2
569.174,999.9
569.309,1000.4
569.443,999.6
569.577,994.8
569.712,1001.3
569.846,994.9
569.98,996.4
570.115,997.0
570.249,997.9
570.384,1002.0
570.518,998.8
570.652,998.0
570.787,998.0
570.921,996.5
571.055,1000.8
571.19,999.7
571.324,1009.8
571.458,1014.8
571.592,1026.2
571.727,1025.4
571.861,1018.0
571.995,1021.9
572.13,1014.0
572.264,1012.9
572.398,1013.9
572.532,1018.0
572.667,1011.6
572.801,1011.4
572.935,1010.7
573.069,1014.3
573.204,1015.8
573.338,1021.0
573.472,1017.1
573.606,1022.9
573.74,1016.3
573.875,1021.4
574.009,1020.0
574.143,1014.1
574.277,1018.1
574.411,1026.1
574.545,1029.5
574.68,1030.2
574.814,1019.6
574.948,1008.9
575.082,1005.5
575.216,1001.7
575.35,1013.6
575.484,1004.2
575.619,1008.2
575.753,1011.0
575.887,1004.7
576.021,1014.0
576.155,1018.0
576.289,1020.2
576.423,1036.4
576.557,1056.4
576.691,1074.1
576.825,1085.9
576.959,1081.6
577.093,1065.3
577.227,1053.9
577.361,1036.5
577.495,1017.7
577.629,1014.0
577.763,1015.0
577.897,1005.5
578.031,1013.9
578.165,1012.4
578.299,1012.1
578.433,1009.6
578.567,1010.0
578.701,1008.7
578.835,1008.2
578.969,1013.0
579.103,1007.9
579.237,1013.5
579.371,1003.6
579.505,1013.5
579.639,1009.3
579.773,1011.1
579.907,1013.0
580.041,1012.6
580.175,1007.6
580.309,1011.3
580.442,1010.1
580.576,1008.9
580.71,1015.5
580.844,1012.4
580.978,1006.6
581.112,1009.9
581.246,1006.3
581.38,1009.1
581.513,1008.5
581.647,1012.8
581.781,1012.2
581.915,1013.3
582.049,1011.8
582.183,1010.9
582.316,1013.0
582.45,1015.1
582.584,1010.6
582.718,1012.3
582.852,1014.6
582.985,1020.2
583.119,1010.6
583.253,1016.1
583.387,1015.2
583.52,1015.9
583.654,1018.1
583.788,1016.3
583.922,1020.0
584.055,1015.5
584.189,1014.7
584.323,1017.8
584.456,1016.2
584.59,1015.4
584.724,1021.8
584.858,1018.2
584.991,1018.8
585.125,1019.5
585.259,1019.1
585.392,1015.1
585.526,1022.8
585.66,1019.0
585.793,1013.3
585.927,1023.2
586.061,1025.4
586.194,1023.7
586.328,1022.8
586.462,1030.2
586.595,1043.9
586.729,1048.9
586.862,1060.0
586.996,1065.2
587.13,1076.6
587.263,1076.7
587.397,1087.8
587.53,1087.2
587.664,1084.2
587.797,1075.0
587.931,1058.9
588.065,1043.7
588.198,1038.0
588.332,1035.4
588.465,1028.2
588.599,1021.4
588.732,1023.5
588.866,1021.6
588.999,1022.6
589.133,1019.1
589.266,1021.1
589.4,1028.9
589.533,1017.7
589.667,1021.1
589.8,1017.3
589.934,1015.5
590.067,1022.5
590.201,1024.7
590.334,1025.8
590.468,1025.4
590.601,1024.9
590.735,1021.2
590.868,1022.0
591.001,1021.8
591.135,1019.5
591.268,1022.9
591.402,1020.3
591.535,1024.7
591.669,1028.5
591.802,1018.3
591.935,1024.3
592.069,1025.9
592.202,1021.6
592.335,1026.5
592.469,1022.7
592.602,1017.2
592.736,1017.0
592.869,1018.8
593.002,1021.1
593.136,1022.4
593.269,1020.6
593.402,1023.5
593.536,1023.9
593.669,1026.9
593.802,1019.7
593.936,1021.8
594.069,1023.3
594.202,1016.7
594.336,1024.7
594.469,1021.3
594.602,1026.1
594.735,1026.7
594.869,1021.9
595.002,1025.2
595.135,1028.3
595.268,1020.1
595.402,1025.3
595.535,1028.0
595.668,1022.7
595.801,1023.4
595.935,1023.5
596.068,1026.8
596.201,1026.0
596.334,1023.9
596.468,1025.4
596.601,1026.9
596.734,1022.8
596.867,1031.1
597.0,1025.2
597.133,1026.3
597.267,1023.0
597.4,1026.8
597.533,1023.0
597.666,1027.4
597.799,1030.5
597.932,1032.1
598.066,1026.1
598.199,1023.9
598.332,1027.9
598.465,1031.7
598.598,1029.6
598.731,1023.8
598.864,1030.6
598.998,1030.6
599.131,1031.5
599.264,1031.9
599.397,1027.3
599.53,1033.4
599.663,1028.3
599.796,1032.1
599.929,1020.2
600.062,1030.3
600.195,1029.1
600.328,1030.4
600.461,1029.3
600.594,1025.7
600.727,1028.5
600.86,1036.7
600.994,1035.8
601.127,1030.4
601.26,1026.8
601.393,1031.7
601.526,1036.0
601.659,1031.8
601.792,1028.2
601.925,1027.6
602.058,1030.3
602.191,1037.6
602.324,1031.3
602.457,1036.1
602.589,1036.2
602.722,1030.1
602.855,1036.0
602.988,1034.0
603.121,1035.3
603.254,1035.0
603.387,1036.6
603.52,1032.8
603.653,1038.2
603.786,1032.6
603.919,1035.9
604.052,1034.2
604.185,1031.8
604.318,1030.7
604.451,1033.4
604.583,1039.9
604.716,1038.0
604.849,1030.6
604.982,1037.3
605.115,1037.7
605.248,1031.0
605.381,1031.5
605.514,1028.6
605.646,1032.7
605.779,1032.3
605.912,1024.4
606.045,1029.2
606.178,1029.5
606.311,1031.3
606.443,1030.9
606.576,1031.7
606.709,1028.1
606.842,1029.4
606.975,1031.4
607.107,1035.2
607.24,1030.4
607.373,1031.3
607.506,1041.7
607.639,1036.5
607.771,1036.3
607.904,1035.6
608.037,1040.1
608.17,1034.0
608.302,1038.1
608.435,1036.7
608.568,1035.5
608.701,1038.8
608.833,1038.0
608.966,1037.2
609.099,1040.3
609.232,1033.6
609.364,1035.2
609.497,1036.2
609.63,1035.9
609.762,1041.2
609.895,1037.6
610.028,1036.8
610.161,1045.8
610.293,1037.2
610.426,1042.1
610.559,1037.8
610.691,1043.2
610.824,1032.8
610.957,1042.5
611.089,1044.4
611.222,1040.2
611.355,1042.3
611.487,1041.9
611.62,1036.0
611.752,1043.3
611.885,1039.1
612.018,1046.2
612.15,1045.8
612.283,1044.3
612.416,1044.9
612.548,1046.6
612.681,1048.2
612.813,1045.1
612.946,1050.3
613.078,1050.0
613.211,1056.7
613.344,1055.7
613.476,1052.4
613.609,1051.7
613.741,1047.8
613.874,1050.2
614.006,1056.1
614.139,1055.1
614.272,1048.4
614.404,1052.9
614.537,1055.6
614.669,1053.0
614.802,1051.8
614.934,1048.0
615.067,1051.9
615.199,1053.5
615.332,1050.5
615.464,1052.2
615.597,1054.7
615.729,1055.3
615.862,1051.5
615.994,1054.0
616.127,1051.9
616.259,1050.3
616.392,1055.6
616.524,1055.4
616.657,1056.4
616.789,1053.0
616.922,1050.4
617.054,1059.7
617.186,1058.7
617.319,1059.9
617.451,1053.9
617.584,1054.5
617.716,1057.7
617.849,1049.9
617.981,1058.5
618.113,1051.8
618.246,1058.8
618.378,1056.1
618.511,1056.8
618.643,1054.4
618.775,1056.8
618.908,1060.0
619.04,1059.0
619.173,1054.2
619.305,1062.4
619.437,1053.1
619.57,1058.2
619.702,1061.2
619.834,1054.2
619.967,1057.6
620.099,1057.6
620.231,1054.1
620.364,1052.5
620.496,1054.3
620.628,1053.4
620.761,1049.4
620.893,1054.7
621.025,1055.4
621.158,1051.8
621.29,1059.7
621.422,1051.8
621.555,1054.1
621.687,1059.3
621.819,1061.4
621.952,1061.5
622.084,1053.9
622.216,1062.2
622.348,1061.5
622.481,1060.5
622.613,1064.6
622.745,1064.7
622.878,1068.7
623.01,1068.6
623.142,1065.8
623.274,1069.2
623.407,1066.8
623.539,1075.2
623.671,1069.8
623.803,1065.4
623.935,1064.2
624.068,1057.8
624.2,1055.0
624.332,1064.3
624.464,1060.1
624.597,1059.1
624.729,1059.1
624.861,1055.9
624.993,1064.1
625.125,1053.9
625.258,1058.5
625.39,1059.5
625.522,1055.4
625.654,1054.8
625.786,1058.5
625.918,1061.0
626.051,1058.9
626.183,1061.2
626.315,1052.4
626.447,1057.8
626.579,1053.6
626.711,1057.7
626.844,1053.2
626.976,1054.6
627.108,1057.0
627.24,1062.3
627.372,1056.8
627.504,1062.0
627.636,1057.1
627.768,1057.9
627.901,1063.2
628.033,1071.0
628.165,1094.0
628.297,1108.9
628.429,1130.0
628.561,1142.5
628.693,1143.1
628.825,1125.5
628.957,1122.7
629.089,1115.3
629.221,1115.3
629.354,1113.3
629.486,1121.6
629.618,1118.0
629.75,1119.1
629.882,1127.4
630.014,1129.1
630.146,1124.6
630.278,1141.5
630.41,1150.6
630.542,1168.4
630.674,1218.1
630.806,1307.2
630.938,1444.1
631.07,1559.5
631.202,1583.0
631.334,1514.6
631.466,1414.0
631.598,1330.9
631.73,1269.2
631.862,1225.6
631.994,1198.4
632.126,1176.7
632.258,1172.2
632.39,1160.1
632.522,1153.2
632.654,1166.2
632.786,1175.1
632.918,1202.4
633.05,1230.1
633.182,1252.4
633.314,1262.8
633.446,1258.8
633.578,1243.4
633.71,1214.9
633.842,1196.3
633.974,1165.0
634.106,1142.5
634.237,1126.1
634.369,1102.7
634.501,1087.5
634.633,1073.2
634.765,1061.2
634.897,1059.4
635.029,1052.6
635.161,1055.4
635.293,1052.6
635.425,1052.2
635.557,1046.4
635.689,1042.9
635.82,1045.1
635.952,1045.7
636.084,1036.6
636.216,1043.4
636.348,1038.0
636.48,1046.5
636.612,1039.7
636.744,1040.0
636.875,1038.6
637.007,1036.8
637.139,1041.8
637.271,1035.4
637.403,1035.7
637.535,1030.3
637.667,1034.0
637.798,1035.1
637.93,1034.1
638.062,1032.2
638.194,1032.8
638.326,1032.2
638.458,1030.0
638.589,1034.4
638.721,1036.2
638.853,1033.9
638.985,1027.7
639.117,1033.2
639.248,1027.8
639.38,1031.1
639.512,1028.2
639.644,1028.6
639.776,1030.3
639.907,1025.4
640.039,1030.1
640.171,1025.6
640.303,1024.6
640.435,1025.7
640.566,1028.0
640.698,1026.3
640.83,1027.7
640.962,1024.1
641.093,1032.0
641.225,1025.5
641.357,1028.0
641.489,1027.6
641.62,1032.8
641.752,1024.5
641.884,1025.7
642.016,1027.9
642.147,1029.7
642.279,1024.4
642.411,1022.1
642.543,1017.9
642.674,1018.0
642.806,1026.5
642.938,1022.9
643.069,1022.1
643.201,1019.3
643.333,1016.4
643.465,1016.4
643.596,1017.9
643.728,1018.2
643.86,1023.1
643.991,1019.4
644.123,1016.2
644.255,1017.6
644.386,1012.5
644.518,1012.5
644.65,1015.1
644.781,1011.5
644.913,1007.6
645.045,1008.1
645.176,1009.2
645.308,1011.3
645.44,1008.1
645.571,1007.2
645.703,1006.7
645.835,1007.1
645.966,1010.1
646.098,1012.7
646.23,1005.5
646.361,1006.6
646.493,1011.8
646.625,1007.3
646.756,1010.9
646.888,1008.5
647.019,1007.5
647.151,1008.4
647.283,1009.2
647.414,1006.7
647.546,1008.5
647.678,1006.0
647.809,1010.4
647.941,1009.1
648.072,1002.5
648.204,999.6
648.336,1001.7
648.467,1004.4
648.599,1008.0
648.73,998.2
648.862,996.9
648.993,998.8
649.125,1003.9
649.257,999.8
649.388,1001.1
649.52,997.0
649.651,999.4
649.783,998.6
649.914,997.2
650.046,996.9
650.178,996.9
650.309,996.0
650.441,992.5
650.572,993.6
650.704,997.0
650.835,993.4
650.967,995.3
651.098,993.8
651.23,992.3
651.361,994.3
651.493,994.1
651.625,996.2
651.756,991.4
651.888,998.2
652.019,998.0
652.151,995.9
652.282,995.7
652.414,989.4
652.545,999.4
652.677,993.2
652.808,996.3
652.94,992.5
653.071,998.2
653.203,991.2
653.334,989.5
653.466,994.2
653.597,998.6
653.729,992.1
653.86,989.7
653.992,994.4
654.123,993.7
654.255,989.1
654.386,991.1
654.518,990.1
654.649,988.0
654.78,988.7
654.912,989.5
655.043,989.4
655.175,989.6
655.306,987.9
655.438,987.9
655.569,990.5
655.701,989.1
655.832,983.7
655.964,987.6
656.095,988.6
656.226,984.4
656.358,988.2
656.489,984.4
656.621,986.7
656.752,982.7
656.884,986.4
657.015,991.2
657.146,987.5
657.278,987.5
657.409,989.8
657.541,988.3
657.672,986.6
657.804,984.5
657.935,984.8
658.066,986.0
658.198,985.9
658.329,985.0
658.461,988.4
658.592,985.3
658.723,985.0
658.855,983.3
658.986,978.6
659.118,982.0
659.249,984.4
659.38,983.1
659.512,980.1
659.643,985.1
659.774,979.9
659.906,980.6
660.037,986.6
660.169,978.9
660.3,980.7
660.431,980.5
660.563,980.9
660.694,984.9
660.825,979.5
660.957,979.8
661.088,973.5
661.22,976.0
661.351,973.5
661.482,973.0
661.614,977.0
661.745,974.8
661.876,974.8
662.008,974.8
662.139,971.9
662.27,974.2
662.402,973.2
662.533,972.3
662.664,973.0
662.796,972.6
662.927,971.6
663.058,975.0