File: spectra/VLFR_08-PLA_bio_Raman_fd8f24e6.csv
nm,Intensity
528.626,1864.6
528.795,1865.8
528.963,1865.0
529.132,1864.6
529.3,1865.7
529.469,1865.65
529.637,1865.45
529.806,1864.85
529.974,1864.7
530.143,1864.55
530.311,1865.95
530.48,1866.0
530.648,1865.7
530.816,1863.85
530.985,1866.25
531.153,1867.5
531.322,1870.0
531.49,1870.55
531.658,1887.1
531.827,2136.75
531.995,3530.9
532.164,3651.35
532.332,2314.8
532.5,1873.8
532.669,1868.05
532.837,1868.1
533.006,1867.45
533.174,1868.4
533.342,1870.15
533.511,1890.7
533.679,2060.35
533.847,2484.9
534.016,2892.7
534.184,3024.4
534.352,3037.35
534.521,3005.8
534.689,3043.95
534.857,3019.05
535.025,3013.65
535.194,3026.7
535.362,3012.35
535.53,2965.8
535.699,2960.5
535.867,2905.3
536.035,2889.3
536.203,2881.15
536.372,2877.2
536.54,2878.7
536.708,2859.65
536.876,2868.8
537.044,2855.05
537.213,2831.35
537.381,2845.7
537.549,2856.65
537.717,2869.65
537.885,2880.25
538.054,2865.5
538.222,2890.0
538.39,2872.7
538.558,2866.45
538.726,2880.7
538.894,2876.45
539.063,2913.45
539.231,2910.05
539.399,2914.3
539.567,2918.75
539.735,2921.45
539.903,2917.7
540.071,2924.55
540.239,2922.95
540.408,2936.35
540.576,2960.65
540.744,2965.3
540.912,2990.25
541.08,2953.65
541.248,2993.4
541.416,2976.8
541.584,2999.95
541.752,2993.2
541.92,3006.9
542.088,2996.4
542.256,3009.6
542.424,3021.5
542.592,3036.65
542.76,3034.85
542.928,3072.35
543.096,3060.4
543.264,3057.75
543.432,3062.35
543.6,3084.4
543.768,3087.8
543.936,3097.7
544.104,3119.95
544.272,3118.2
544.44,3109.5
544.608,3119.4
544.776,3114.4
544.944,3131.1
545.112,3152.3
545.28,3145.55
545.448,3152.3
545.616,3138.05
545.784,3152.35
545.951,3173.35
546.119,3166.95
546.287,3202.2
546.455,3199.85
546.623,3205.65
546.791,3206.65
546.959,3230.6
547.127,3226.95
547.294,3221.4
547.462,3235.1
547.63,3269.1
547.798,3260.6
547.966,3242.5
548.134,3286.3
548.301,3301.9
548.469,3278.3
548.637,3277.05
548.805,3307.6
548.972,3286.05
549.14,3276.55
549.308,3293.35
549.476,3271.7
549.644,3318.7
549.811,3283.7
549.979,3295.25
550.147,3304.55
550.315,3295.6
550.482,3319.1
550.65,3318.25
550.818,3344.3
550.985,3374.35
551.153,3380.75
551.321,3365.7
551.488,3389.55
551.656,3400.4
551.824,3403.65
551.991,3392.4
552.159,3392.15
552.327,3384.5
552.494,3378.45
552.662,3389.25
552.83,3382.85
552.997,3398.35
553.165,3415.55
553.333,3421.1
553.5,3386.65
553.668,3410.95
553.835,3445.4
554.003,3448.45
554.171,3457.95
554.338,3437.9
554.506,3451.5
554.673,3434.55
554.841,3443.3
555.008,3439.1
555.176,3442.25
555.343,3428.35
555.511,3450.3
555.679,3473.05
555.846,3431.45
556.014,3462.45
556.181,3460.8
556.349,3483.4
556.516,3486.35
556.684,3448.55
556.851,3429.55
557.018,3473.65
557.186,3491.15
557.353,3530.6
557.521,3504.55
557.688,3506.5
557.856,3579.65
558.023,3574.8
558.191,3582.75
558.358,3550.8
558.525,3501.7
558.693,3550.95
558.86,3505.05
559.028,3507.25
559.195,3557.95
559.362,3502.65
559.53,3494.95
559.697,3537.0
559.864,3524.7
560.032,3532.05
560.199,3518.65
560.366,3532.25
560.534,3535.7
560.701,3513.0
560.868,3531.05
561.036,3500.05
561.203,3534.05
561.37,3508.5
561.538,3537.15
561.705,3535.65
561.872,3511.75
562.039,3569.65
562.207,3567.15
562.374,3557.5
562.541,3533.35
562.708,3546.3
562.876,3573.65
563.043,3539.65
563.21,3536.95
563.377,3548.35
563.545,3573.7
563.712,3531.2
563.879,3547.8
564.046,3542.95
564.213,3538.5
564.38,3532.9
564.548,3519.0
564.715,3508.75
564.882,3546.6
565.049,3523.55
565.216,3548.4
565.383,3562.8
565.551,3551.2
565.718,3547.35
565.885,3581.0
566.052,3589.45
566.219,3591.5
566.386,3550.65
566.553,3548.55
566.72,3509.05
566.887,3501.3
567.054,3519.7
567.221,3511.1
567.388,3539.5
567.555,3519.85
567.722,3507.95
567.889,3512.95
568.057,3532.3
568.224,3511.05
568.391,3542.45
568.558,3517.7
568.725,3560.35
568.892,3534.1
569.058,3536.15
569.225,3541.55
569.392,3563.1
569.559,3537.05
569.726,3541.8
569.893,3562.6
570.06,3547.85
570.227,3580.85
570.394,3537.45
570.561,3534.45
570.728,3534.9
570.895,3525.55
571.062,3554.65
571.229,3566.4
571.395,3600.85
571.562,3592.6
571.729,3583.35
571.896,3594.3
572.063,3596.05
572.23,3592.3
572.397,3597.3
572.563,3573.35
572.73,3566.75
572.897,3588.2
573.064,3562.65
573.231,3554.45
573.397,3544.55
573.564,3519.45
573.731,3536.05
573.898,3542.75
574.064,3519.7
574.231,3511.45
574.398,3514.75
574.565,3529.05
574.731,3509.8
574.898,3501.75
575.065,3517.0
575.232,3531.9
575.398,3521.4
575.565,3547.75
575.732,3549.55
575.898,3587.95
576.065,3622.4
576.232,3647.95
576.398,3697.6
576.565,3701.25
576.732,3652.3
576.898,3688.85
577.065,3671.2
577.232,3634.8
577.398,3562.0
577.565,3511.1
577.731,3491.9
577.898,3481.0
578.065,3466.75
578.231,3457.6
578.398,3452.7
578.564,3456.45
578.731,3451.0
578.897,3454.95
579.064,3446.7
579.23,3453.05
579.397,3456.7
579.563,3445.65
579.73,3484.5
579.896,3457.5
580.063,3468.35
580.229,3456.55
580.396,3463.65
580.562,3448.2
580.729,3456.85
580.895,3477.3
581.062,3430.85
581.228,3452.95
581.395,3462.9
581.561,3473.4
581.728,3467.15
581.894,3467.9
582.06,3518.75
582.227,3494.8
582.393,3472.8
582.56,3466.6
582.726,3472.95
582.892,3463.8
583.059,3522.4
583.225,3519.6
583.391,3528.6
583.558,3549.55
583.724,3553.4
583.89,3493.2
584.057,3530.05
584.223,3496.15
584.389,3481.0
584.556,3471.55
584.722,3476.75
584.888,3481.55
585.054,3396.95
585.221,3403.65
585.387,3445.45
585.553,3426.75
585.719,3364.7
585.886,3418.7
586.052,3424.3
586.218,3405.45
586.384,3399.9
586.55,3442.35
586.717,3409.55
586.883,3395.35
587.049,3396.35
587.215,3444.95
587.381,3464.7
587.548,3458.0
587.714,3412.55
587.88,3462.65
588.046,3407.25
588.212,3397.65
588.378,3407.4
588.544,3405.45
588.71,3414.0
588.876,3408.5
589.043,3375.55
589.209,3366.4
589.375,3374.05
589.541,3386.55
589.707,3390.7
589.873,3365.4
590.039,3412.25
590.205,3389.4
590.371,3370.8
590.537,3387.35
590.703,3370.2
590.869,3381.65
591.035,3400.9
591.201,3388.1
591.367,3375.0
591.533,3379.8
591.699,3382.45
591.865,3398.7
592.031,3411.65
592.197,3409.1
592.363,3408.85
592.529,3389.75
592.694,3416.6
592.86,3411.45
593.026,3394.1
593.192,3377.2
593.358,3390.4
593.524,3398.05
593.69,3405.05
593.856,3412.2
594.021,3403.45
594.187,3391.9
594.353,3389.8
594.519,3392.1
594.685,3418.0
594.851,3442.75
595.016,3413.9
595.182,3421.6
595.348,3412.3
595.514,3449.95
595.68,3434.0
595.845,3432.25
596.011,3423.6
596.177,3469.05
596.342,3442.15
596.508,3437.15
596.674,3459.8
596.84,3477.7
597.005,3458.45
597.171,3460.6
597.337,3454.75
597.502,3459.95
597.668,3443.3
597.834,3473.55
597.999,3463.4
598.165,3485.8
598.331,3483.45
598.496,3493.6
598.662,3486.25
598.828,3462.3
598.993,3502.1
599.159,3508.75
599.324,3500.1
599.49,3513.7
599.656,3550.8
599.821,3522.35
599.987,3522.8
600.152,3519.25
600.318,3531.65
600.483,3569.9
600.649,3534.0
600.814,3550.35
600.98,3546.35
601.145,3537.9
601.311,3570.2
601.476,3546.7
601.642,3568.95
601.807,3564.3
601.973,3573.1
602.138,3576.85
602.304,3540.15
602.469,3571.6
602.635,3617.7
602.8,3575.9
602.965,3621.4
603.131,3611.65
603.296,3603.85
603.462,3619.1
603.627,3622.15
603.792,3614.6
603.958,3622.65
604.123,3611.05
604.288,3616.75
604.454,3645.35
604.619,3638.7
604.784,3650.75
604.95,3662.05
605.115,3655.15
605.28,3639.7
605.446,3660.4
605.611,3645.45
605.776,3649.0
605.941,3644.95
606.107,3638.35
606.272,3664.3
606.437,3696.75
606.602,3696.25
606.767,3661.55
606.933,3706.5
607.098,3687.75
607.263,3684.75
607.428,3678.0
607.593,3664.3
607.759,3683.25
607.924,3716.95
608.089,3682.1
608.254,3709.8
608.419,3676.6
608.584,3674.9
608.749,3716.9
608.915,3670.85
609.08,3684.65
609.245,3690.55
609.41,3678.8
609.575,3719.5
609.74,3644.9
609.905,3689.05
610.07,3699.55
610.235,3664.9
610.4,3702.3
610.565,3700.05
610.73,3690.8
610.895,3709.0
611.06,3694.7
611.225,3704.2
611.39,3692.15
611.555,3664.0
611.72,3671.25
611.885,3691.5
612.05,3665.55
612.215,3651.0
612.38,3670.0
612.545,3662.15
612.71,3652.45
612.875,3672.2
613.04,3637.45
613.204,3655.2
613.369,3677.05
613.534,3650.55
613.699,3646.95
613.864,3650.85
614.029,3676.95
614.194,3648.65
614.358,3630.5
614.523,3647.85
614.688,3639.55
614.853,3619.4
615.018,3649.6
615.182,3641.2
615.347,3603.65
615.512,3643.25
615.677,3591.1
615.841,3627.8
616.006,3595.95
616.171,3612.8
616.336,3592.15
616.5,3614.05
616.665,3614.75
616.83,3581.95
616.994,3514.35
617.159,3562.35
617.324,3581.7
617.489,3594.9
617.653,3585.25
617.818,3569.95
617.982,3558.2
618.147,3547.45
618.312,3532.85
618.476,3565.85
618.641,3585.15
618.805,3542.35
618.97,3547.55
619.135,3527.7
619.299,3549.45
619.464,3544.95
619.628,3549.35
619.793,3521.15
619.957,3499.0
620.122,3560.05
620.286,3547.7
620.451,3502.65
620.615,3504.95
620.78,3519.6
620.944,3497.3
621.109,3471.75
621.273,3477.65
621.438,3509.2
621.602,3494.8
621.767,3473.55
621.931,3483.3
622.095,3502.0
622.26,3489.55
622.424,3513.3
622.589,3468.1
622.753,3478.0
622.917,3485.85
623.082,3449.2
623.246,3469.95
623.41,3436.5
623.575,3465.5
623.739,3436.55
623.903,3427.6
624.068,3456.5
624.232,3428.25
624.396,3427.85
624.561,3423.75
624.725,3379.95
624.889,3397.9
625.053,3431.9
625.218,3426.6
625.382,3399.3
625.546,3355.15
625.71,3372.2
625.875,3387.3
626.039,3405.2
626.203,3409.0
626.367,3391.35
626.531,3432.85
626.695,3467.9
626.86,3573.15
627.024,3689.35
627.188,3744.75
627.352,3777.6
627.516,3783.0
627.68,3719.5
627.844,3711.55
628.008,3770.05
628.172,3861.6
628.337,3966.55
628.501,4139.55
628.665,4083.65
628.829,3914.2
628.993,3832.5
629.157,3753.7
629.321,3777.6
629.485,3765.0
629.649,3732.35
629.813,3733.6
629.977,3743.55
630.141,3756.15
630.305,3782.15
630.469,3840.5
630.633,3846.3
630.797,3851.75
630.96,3899.9
631.124,3846.6
631.288,3796.55
631.452,3725.1
631.616,3606.3
631.78,3564.4
631.944,3512.4
632.108,3495.55
632.272,3459.8
632.435,3454.75
632.599,3410.6
632.763,3393.3
632.927,3409.0
633.091,3420.7
633.254,3387.5
633.418,3349.45
633.582,3357.15
633.746,3360.1
633.91,3314.85
634.073,3282.15
634.237,3240.3
634.401,3223.15
634.564,3197.3
634.728,3194.85
634.892,3189.65
635.056,3196.45
635.219,3176.85
635.383,3175.8
635.547,3194.65
635.71,3166.0
635.874,3163.2
636.038,3149.55
636.201,3127.75
636.365,3122.4
636.528,3113.4
636.692,3126.75
636.856,3107.7
637.019,3098.45
637.183,3099.6
637.346,3112.45
637.51,3076.9
637.673,3081.6
637.837,3110.55
638.0,3075.75
638.164,3088.1
638.327,3102.85
638.491,3070.1
638.654,3058.4
638.818,3061.0
638.981,3032.1
639.145,3058.95
639.308,3061.1
639.472,3042.4
639.635,3038.65
639.799,3035.55
639.962,3007.95
640.125,3053.9
640.289,3068.15
640.452,3025.0
640.616,3010.9
640.779,3009.3
640.942,3000.2
641.106,3002.6
641.269,2993.95
641.432,3035.85
641.596,2977.35
641.759,3017.9
641.922,3004.9
642.085,2956.25
642.249,2999.45
642.412,3013.95
642.575,2977.9
642.738,2991.15
642.902,2977.9
643.065,2980.5
643.228,2980.25
643.391,2974.9
643.555,2982.75
643.718,2996.1
643.881,2991.25
644.044,2964.25
644.207,2989.05
644.37,2988.65
644.534,2984.75
644.697,2983.25
644.86,2973.9
645.023,2955.3
645.186,2959.5
645.349,2981.3
645.512,2983.6
645.675,2970.85
645.838,2965.4
646.001,2925.8
646.164,2935.5
646.327,2910.25
646.49,2935.85
646.653,2942.5
646.816,2919.25
646.979,2900.15
647.142,2920.85
647.305,2918.15
647.468,2884.65
647.631,2888.75
647.794,2887.15
647.957,2882.9
648.12,2891.65
648.283,2873.1
648.446,2858.6
648.609,2875.2
648.772,2881.4
648.935,2887.7
649.098,2843.75
649.26,2837.15
649.423,2876.2
649.586,2832.3
649.749,2819.15
649.912,2868.9
650.075,2842.15
650.237,2833.9
650.4,2836.55
650.563,2855.95
650.726,2820.5
650.888,2828.25
651.051,2838.55
651.214,2835.7
651.377,2834.3
651.539,2829.3
651.702,2790.7
651.865,2799.4
652.027,2811.3
652.19,2806.1
652.353,2780.65
652.515,2781.0
652.678,2765.85
652.841,2775.7
653.003,2782.65
653.166,2775.05
653.329,2774.65
653.491,2783.6
653.654,2757.15
653.816,2747.5
653.979,2766.55
654.142,2745.25
654.304,2750.55
654.467,2768.05
654.629,2727.85
654.792,2752.9
654.954,2734.8
655.117,2763.95
655.279,2741.45
655.442,2736.0
655.604,2730.35
655.767,2740.1
655.929,2719.2
656.091,2734.75
656.254,2716.2
656.416,2708.25
656.579,2705.8
656.741,2725.1
656.904,2705.3
657.066,2701.95
657.228,2688.9
657.391,2688.7
657.553,2697.5
657.715,2698.05
657.878,2681.05
658.04,2711.7
658.202,2670.85
658.365,2674.3
658.527,2661.55
658.689,2659.0
658.851,2691.2
659.014,2639.6
659.176,2651.65
659.338,2634.1
659.5,2626.5
659.663,2642.65
659.825,2617.75
659.987,2629.4
660.149,2626.5
660.311,2642.35
660.474,2631.25
660.636,2634.2
660.798,2639.5
660.96,2626.35
661.041,2628.25