File: spectra/VLFR_02-HDPE_nobio_Raman_08dae773.csv
nm,Intensity
528.65,1832.93
528.819,1833.44
528.987,1833.23
529.155,1833.37
529.324,1833.32
529.492,1833.27
529.66,1833.8
529.829,1832.78
529.997,1833.18
530.165,1833.41
530.334,1833.67
530.502,1833.29
530.67,1833.57
530.839,1833.59
531.007,1833.38
531.175,1834.17
531.344,1834.83
531.512,1836.88
531.68,1846.71
531.848,2025.53
532.017,2595.2
532.185,2452.57
532.353,1877.72
532.521,1834.73
532.69,1833.85
532.858,1833.93
533.026,1833.55
533.194,1833.69
533.363,1833.96
533.531,1838.02
533.699,1857.9
533.867,1891.97
534.036,1912.77
534.204,1923.83
534.372,1919.63
534.54,1919.53
534.708,1921.32
534.877,1924.44
535.045,1920.75
535.213,1921.69
535.381,1922.61
535.549,1920.17
535.717,1917.13
535.886,1913.49
536.054,1910.52
536.222,1908.97
536.39,1909.06
536.558,1909.56
536.726,1907.97
536.894,1905.85
537.062,1904.07
537.231,1909.11
537.399,1912.45
537.567,1913.15
537.735,1913.49
537.903,1911.39
538.071,1910.32
538.239,1907.17
538.407,1909.05
538.575,1910.01
538.743,1907.74
538.911,1908.79
539.079,1908.83
539.247,1908.32
539.415,1908.33
539.583,1906.31
539.751,1907.45
539.919,1909.71
540.087,1908.35
540.255,1909.15
540.423,1904.83
540.591,1908.09
540.759,1909.6
540.927,1907.17
541.095,1907.89
541.263,1909.97
541.431,1909.16
541.599,1912.4
541.767,1913.73
541.935,1912.42
542.103,1912.45
542.271,1911.8
542.439,1915.68
542.607,1916.36
542.775,1913.69
542.943,1912.43
543.111,1913.61
543.279,1911.69
543.446,1909.11
543.614,1913.72
543.782,1917.51
543.95,1917.24
544.118,1914.7
544.286,1914.92
544.454,1916.22
544.622,1913.15
544.789,1915.23
544.957,1918.86
545.125,1917.25
545.293,1917.85
545.461,1912.64
545.629,1915.15
545.796,1918.38
545.964,1917.38
546.132,1916.84
546.3,1917.53
546.468,1917.72
546.635,1920.49
546.803,1921.78
546.971,1918.99
547.139,1918.15
547.306,1918.92
547.474,1915.03
547.642,1915.87
547.81,1916.89
547.977,1920.11
548.145,1921.09
548.313,1921.44
548.481,1921.63
548.648,1921.26
548.816,1918.97
548.984,1923.9
549.151,1922.1
549.319,1921.67
549.487,1922.51
549.655,1921.25
549.822,1922.02
549.99,1922.27
550.158,1918.71
550.325,1922.07
550.493,1922.13
550.66,1920.18
550.828,1922.08
550.996,1923.44
551.163,1924.89
551.331,1924.35
551.499,1926.31
551.666,1928.53
551.834,1926.6
552.001,1927.74
552.169,1926.5
552.337,1925.49
552.504,1924.2
552.672,1920.49
552.839,1922.4
553.007,1926.77
553.174,1925.68
553.342,1925.4
553.509,1926.41
553.677,1926.67
553.844,1929.19
554.012,1930.77
554.179,1931.15
554.347,1929.91
554.514,1930.33
554.682,1932.39
554.849,1932.42
555.017,1932.79
555.184,1932.8
555.352,1931.85
555.519,1930.97
555.687,1933.4
555.854,1934.73
556.022,1933.25
556.189,1930.69
556.357,1935.29
556.524,1933.6
556.691,1933.22
556.859,1932.63
557.026,1937.19
557.194,1934.54
557.361,1935.29
557.528,1936.37
557.696,1939.59
557.863,1938.11
558.031,1939.15
558.198,1941.75
558.365,1940.8
558.533,1939.22
558.7,1937.77
558.867,1937.71
559.035,1941.61
559.202,1940.5
559.369,1939.93
559.537,1940.49
559.704,1940.61
559.871,1940.23
560.038,1938.11
560.206,1936.65
560.373,1940.99
560.54,1944.23
560.708,1943.2
560.875,1943.65
561.042,1945.09
561.209,1943.25
561.377,1945.05
561.544,1940.33
561.711,1943.29
561.878,1945.69
562.045,1947.06
562.213,1949.57
562.38,1943.4
562.547,1949.01
562.714,1952.03
562.881,1953.74
563.049,1951.57
563.216,1954.04
563.383,1955.6
563.55,1957.07
563.717,1979.47
563.884,2025.17
564.052,2041.71
564.219,1999.11
564.386,1970.96
564.553,1970.09
564.72,1971.35
564.887,1969.23
565.054,1967.53
565.221,1964.11
565.388,1965.85
565.556,1966.68
565.723,1978.25
565.89,2007.46
566.057,2072.67
566.224,2080.28
566.391,2010.89
566.558,1973.63
566.725,1964.22
566.892,1963.27
567.059,1964.97
567.226,1962.99
567.393,1970.01
567.56,1966.15
567.727,1962.15
567.894,1957.57
568.061,1960.9
568.228,1955.85
568.395,1955.05
568.562,1960.15
568.729,1955.13
568.896,1959.71
569.063,1957.3
569.23,1960.03
569.396,1963.74
569.563,1964.23
569.73,1964.29
569.897,1963.27
570.064,1965.71
570.231,1967.99
570.398,1973.89
570.565,1971.25
570.732,1972.82
570.898,1972.36
571.065,1973.71
571.232,2005.87
571.399,2083.72
571.566,2117.02
571.733,2045.57
571.9,1995.59
572.066,1989.59
572.233,1987.03
572.4,1982.35
572.567,1980.97
572.734,1977.85
572.9,1976.49
573.067,1981.23
573.234,1979.73
573.401,1978.63
573.567,1984.17
573.734,1989.89
573.901,1993.43
574.068,1986.52
574.234,1985.3
574.401,1987.55
574.568,1985.32
574.734,1984.58
574.901,1990.15
575.068,1996.93
575.235,2010.85
575.401,2053.38
575.568,2081.95
575.735,2056.31
575.901,2045.25
576.068,2065.68
576.235,2087.91
576.401,2086.58
576.568,2068.73
576.734,2065.93
576.901,2070.83
577.068,2064.85
577.234,2051.5
577.401,2038.05
577.567,2028.68
577.734,2021.97
577.901,2023.69
578.067,2021.17
578.234,2020.27
578.4,2023.35
578.567,2027.03
578.733,2031.31
578.9,2029.89
579.066,2037.95
579.233,2035.68
579.399,2041.08
579.566,2045.08
579.732,2043.23
579.899,2050.65
580.065,2056.63
580.232,2058.8
580.398,2058.51
580.565,2059.99
580.731,2066.47
580.898,2067.3
581.064,2070.53
581.231,2079.01
581.397,2074.33
581.563,2081.13
581.73,2083.37
581.896,2086.94
582.063,2093.51
582.229,2093.23
582.395,2098.95
582.562,2098.68
582.728,2098.59
582.895,2105.24
583.061,2105.77
583.227,2116.17
583.394,2115.67
583.56,2118.3
583.726,2119.1
583.893,2130.75
584.059,2137.11
584.225,2138.85
584.391,2130.86
584.558,2142.75
584.724,2148.24
584.89,2148.19
585.057,2147.13
585.223,2153.05
585.389,2157.49
585.555,2169.93
585.722,2159.21
585.888,2166.39
586.054,2176.25
586.22,2179.13
586.386,2186.1
586.553,2189.72
586.719,2200.79
586.885,2199.57
587.051,2202.71
587.217,2215.77
587.384,2213.48
587.55,2227.92
587.716,2230.04
587.882,2232.85
588.048,2244.69
588.214,2241.36
588.38,2250.21
588.546,2243.72
588.713,2252.01
588.879,2255.23
589.045,2260.69
589.211,2265.5
589.377,2259.51
589.543,2285.56
589.709,2281.84
589.875,2284.69
590.041,2297.71
590.207,2307.29
590.373,2321.14
590.539,2317.66
590.705,2326.59
590.871,2332.18
591.037,2330.91
591.203,2351.89
591.369,2349.4
591.535,2363.73
591.701,2363.43
591.867,2376.3
592.033,2377.22
592.199,2386.91
592.365,2389.92
592.531,2403.59
592.697,2407.67
592.863,2410.47
593.029,2416.38
593.195,2412.57
593.361,2429.47
593.526,2428.82
593.692,2445.55
593.858,2446.05
594.024,2452.11
594.19,2453.46
594.356,2461.97
594.522,2461.77
594.687,2471.31
594.853,2482.89
595.019,2491.77
595.185,2502.77
595.351,2504.46
595.516,2526.57
595.682,2533.9
595.848,2540.13
596.014,2540.25
596.18,2563.13
596.345,2543.32
596.511,2566.74
596.677,2582.84
596.843,2570.97
597.008,2592.73
597.174,2588.61
597.34,2602.31
597.505,2617.47
597.671,2611.37
597.837,2600.69
598.002,2628.59
598.168,2630.47
598.334,2635.21
598.499,2641.1
598.665,2635.93
598.831,2667.79
598.996,2680.53
599.162,2666.67
599.328,2683.35
599.493,2681.67
599.659,2687.35
599.824,2681.72
599.99,2701.69
600.156,2696.08
600.321,2704.76
600.487,2692.93
600.652,2706.7
600.818,2686.25
600.983,2716.97
601.149,2705.59
601.314,2696.39
601.48,2716.91
601.645,2698.19
601.811,2701.13
601.976,2701.43
602.142,2699.73
602.307,2687.07
602.473,2698.21
602.638,2682.0
602.804,2691.01
602.969,2686.04
603.135,2665.63
603.3,2675.62
603.466,2673.19
603.631,2655.44
603.796,2653.59
603.962,2658.31
604.127,2625.67
604.293,2643.11
604.458,2636.35
604.623,2595.96
604.789,2605.8
604.954,2621.81
605.119,2603.09
605.285,2589.39
605.45,2571.17
605.615,2575.74
605.781,2565.9
605.946,2569.07
606.111,2554.07
606.277,2542.2
606.442,2537.4
606.607,2540.13
606.772,2531.49
606.938,2523.79
607.103,2508.28
607.268,2508.24
607.433,2496.94
607.599,2486.27
607.764,2489.19
607.929,2489.41
608.094,2472.71
608.259,2461.94
608.425,2469.21
608.59,2453.14
608.755,2440.08
608.92,2436.82
609.085,2431.08
609.25,2429.99
609.415,2427.39
609.581,2419.8
609.746,2411.72
609.911,2426.56
610.076,2403.18
610.241,2407.29
610.406,2395.14
610.571,2396.79
610.736,2392.18
610.901,2384.61
611.066,2398.69
611.231,2389.75
611.396,2381.52
611.561,2365.93
611.727,2368.24
611.892,2370.0
612.057,2353.03
612.222,2362.37
612.386,2349.13
612.551,2354.56
612.716,2337.29
612.881,2339.11
613.046,2323.29
613.211,2329.96
613.376,2336.87
613.541,2320.88
613.706,2320.12
613.871,2324.4
614.036,2307.23
614.201,2309.33
614.366,2310.0
614.531,2311.51
614.695,2309.25
614.86,2302.18
615.025,2298.13
615.19,2290.59
615.355,2289.44
615.52,2300.97
615.684,2290.91
615.849,2278.07
616.014,2279.03
616.179,2284.13
616.344,2275.97
616.508,2270.19
616.673,2276.09
616.838,2265.42
617.003,2265.67
617.168,2267.7
617.332,2264.32
617.497,2266.85
617.662,2264.77
617.826,2264.56
617.991,2254.96
618.156,2261.05
618.32,2249.48
618.485,2255.56
618.65,2253.05
618.814,2251.07
618.979,2243.53
619.144,2241.57
619.308,2242.97
619.473,2248.27
619.638,2241.71
619.802,2235.13
619.967,2243.53
620.131,2236.3
620.296,2235.97
620.461,2226.81
620.625,2226.02
620.79,2233.47
620.954,2237.0
621.119,2230.9
621.283,2228.69
621.448,2236.11
621.612,2247.85
621.777,2247.54
621.941,2244.48
622.106,2259.17
622.27,2260.46
622.435,2254.23
622.599,2242.28
622.764,2229.87
622.928,2225.26
623.093,2211.65
623.257,2206.97
623.422,2207.79
623.586,2200.19
623.75,2194.48
623.915,2201.63
624.079,2204.39
624.244,2195.23
624.408,2206.0
624.572,2193.26
624.737,2195.66
624.901,2190.9
625.065,2194.56
625.23,2191.62
625.394,2197.26
625.558,2189.7
625.723,2196.7
625.887,2197.26
626.051,2204.47
626.215,2221.51
626.38,2256.19
626.544,2331.51
626.708,2452.99
626.872,2661.2
627.037,2873.53
627.201,2923.61
627.365,2868.14
627.529,2747.91
627.693,2662.32
627.858,2609.89
628.022,2617.56
628.186,2678.37
628.35,2809.11
628.514,2952.01
628.678,2808.95
628.843,2663.45
629.007,2600.75
629.171,2560.67
629.335,2537.37
629.499,2498.99
629.663,2456.12
629.827,2423.9
629.991,2416.91
630.155,2396.43
630.319,2386.03
630.483,2377.1
630.647,2337.83
630.812,2307.51
630.976,2282.31
631.14,2233.58
631.304,2202.8
631.468,2192.31
631.632,2183.37
631.796,2179.63
631.959,2172.86
632.123,2182.68
632.287,2175.2
632.451,2163.24
632.615,2174.68
632.779,2171.94
632.943,2169.35
633.107,2172.18
633.271,2169.13
633.435,2167.2
633.599,2166.62
633.763,2164.6
633.926,2173.09
634.09,2166.57
634.254,2171.88
634.418,2167.96
634.582,2163.87
634.746,2167.01
634.909,2167.44
635.073,2161.61
635.237,2169.44
635.401,2168.49
635.564,2160.29
635.728,2161.88
635.892,2166.38
636.056,2161.48
636.219,2168.81
636.383,2167.14
636.547,2160.89
636.711,2167.29
636.874,2163.1
637.038,2167.74
637.202,2171.67
637.365,2175.12
637.529,2173.32
637.693,2169.23
637.856,2174.23
638.02,2166.78
638.184,2176.23
638.347,2174.19
638.511,2168.21
638.674,2174.07
638.838,2169.1
639.002,2175.95
639.165,2178.81
639.329,2174.67
639.492,2180.94
639.656,2174.25
639.819,2171.84
639.983,2174.64
640.146,2178.57
640.31,2187.54
640.473,2176.37
640.637,2177.73
640.8,2184.33
640.964,2181.84
641.127,2188.15
641.291,2187.17
641.454,2196.1
641.618,2173.27
641.781,2184.81
641.944,2192.12
642.108,2190.34
642.271,2198.07
642.435,2203.4
642.598,2187.13
642.761,2200.69
642.925,2187.93
643.088,2192.77
643.251,2196.05
643.415,2190.51
643.578,2199.52
643.741,2205.6
643.905,2194.75
644.068,2203.33
644.231,2205.79
644.394,2198.63
644.558,2204.65
644.721,2203.15
644.884,2205.23
645.047,2197.85
645.211,2214.05
645.374,2206.63
645.537,2207.27
645.7,2214.85
645.863,2196.63
646.027,2200.64
646.19,2214.71
646.353,2201.51
646.516,2203.18
646.679,2208.08
646.842,2204.1
647.005,2201.3
647.169,2204.64
647.332,2205.21
647.495,2200.25
647.658,2198.69
647.821,2212.73
647.984,2209.19
648.147,2208.3
648.31,2203.61
648.473,2208.36
648.636,2204.99
648.799,2205.46
648.962,2200.88
649.125,2202.67
649.288,2200.31
649.451,2189.97
649.614,2197.84
649.777,2202.83
649.94,2202.16
650.103,2198.75
650.266,2194.17
650.429,2216.15
650.592,2204.59
650.755,2214.91
650.918,2214.52
651.08,2203.02
651.243,2202.61
651.406,2192.54
651.569,2192.7
651.732,2208.16
651.895,2193.99
652.058,2200.0
652.22,2206.75
652.383,2200.61
652.546,2193.95
652.709,2199.81
652.872,2194.61
653.034,2195.35
653.197,2196.8
653.36,2208.38
653.523,2180.13
653.685,2179.11
653.848,2193.25
654.011,2190.57
654.173,2187.81
654.336,2177.19
654.499,2182.02
654.662,2180.8
654.824,2177.07
654.987,2172.4
655.149,2169.19
655.312,2179.32
655.475,2176.26
655.637,2168.14
655.8,2170.81
655.963,2161.44
656.125,2157.84
656.288,2152.58
656.45,2156.66
656.613,2152.93
656.775,2160.07
656.938,2161.68
657.1,2156.55
657.263,2148.81
657.425,2146.17
657.588,2147.15
657.75,2141.69
657.913,2141.72
658.075,2142.35
658.238,2127.71
658.4,2123.43
658.563,2132.23
658.725,2123.41
658.888,2120.75
659.05,2131.31
659.212,2124.75
659.375,2114.38
659.537,2106.05
659.7,2105.35
659.862,2109.23
660.024,2101.34
660.187,2100.57
660.349,2108.94
660.511,2093.05
660.674,2100.71
660.836,2095.56
660.998,2087.63
661.079,2086.39