File: spectra/VLFR_08-PLA_bio_Raman_1609f445.csv
nm,Intensity
528.626,1863.65
528.795,1861.8
528.963,1862.7
529.132,1863.3
529.3,1864.45
529.469,1862.4
529.637,1863.35
529.806,1862.6
529.974,1863.2
530.143,1862.85
530.311,1862.8
530.48,1862.25
530.648,1864.55
530.816,1864.45
530.985,1864.7
531.153,1865.8
531.322,1868.7
531.49,1872.55
531.658,1912.0
531.827,2561.05
531.995,4163.0
532.164,4449.0
532.332,2179.25
532.5,1868.2
532.669,1864.3
532.837,1865.35
533.006,1865.75
533.174,1864.15
533.342,1866.35
533.511,1884.5
533.679,1970.3
533.847,2110.6
534.016,2190.15
534.184,2251.0
534.352,2320.85
534.521,2425.95
534.689,2390.25
534.857,2316.6
535.025,2293.25
535.194,2288.0
535.362,2318.45
535.53,2321.4
535.699,2315.4
535.867,2307.85
536.035,2302.15
536.203,2316.55
536.372,2306.85
536.54,2338.9
536.708,2343.65
536.876,2319.35
537.044,2321.35
537.213,2330.15
537.381,2335.85
537.549,2354.0
537.717,2388.45
537.885,2419.35
538.054,2411.4
538.222,2386.05
538.39,2369.2
538.558,2374.2
538.726,2378.75
538.894,2391.15
539.063,2433.8
539.231,2412.6
539.399,2373.25
539.567,2342.2
539.735,2330.35
539.903,2321.45
540.071,2329.65
540.239,2327.8
540.408,2312.7
540.576,2316.0
540.744,2339.15
540.912,2344.3
541.08,2341.25
541.248,2362.7
541.416,2352.15
541.584,2379.2
541.752,2386.0
541.92,2383.75
542.088,2391.45
542.256,2400.35
542.424,2391.15
542.592,2424.1
542.76,2394.7
542.928,2391.35
543.096,2397.95
543.264,2384.7
543.432,2384.05
543.6,2407.2
543.768,2444.25
543.936,2454.9
544.104,2487.65
544.272,2514.55
544.44,2555.65
544.608,2590.4
544.776,2684.95
544.944,2726.55
545.112,2669.6
545.28,2611.3
545.448,2536.4
545.616,2496.6
545.784,2473.15
545.951,2444.6
546.119,2405.8
546.287,2394.35
546.455,2387.0
546.623,2407.4
546.791,2399.4
546.959,2412.65
547.127,2398.35
547.294,2417.35
547.462,2403.75
547.63,2389.5
547.798,2403.1
547.966,2422.55
548.134,2435.75
548.301,2439.1
548.469,2445.0
548.637,2459.55
548.805,2468.8
548.972,2504.9
549.14,2531.0
549.308,2577.95
549.476,2670.05
549.644,2684.85
549.811,2648.25
549.979,2573.7
550.147,2506.45
550.315,2511.6
550.482,2488.9
550.65,2485.6
550.818,2488.5
550.985,2490.15
551.153,2484.1
551.321,2479.6
551.488,2512.3
551.656,2501.2
551.824,2492.75
551.991,2492.85
552.159,2479.85
552.327,2456.35
552.494,2468.5
552.662,2431.4
552.83,2419.8
552.997,2458.6
553.165,2450.5
553.333,2445.65
553.5,2434.45
553.668,2441.2
553.835,2460.6
554.003,2461.2
554.171,2471.9
554.338,2458.35
554.506,2459.75
554.673,2471.75
554.841,2487.75
555.008,2464.65
555.176,2468.4
555.343,2463.05
555.511,2450.65
555.679,2457.0
555.846,2460.6
556.014,2465.0
556.181,2459.5
556.349,2459.35
556.516,2459.0
556.684,2463.6
556.851,2451.05
557.018,2437.2
557.186,2450.4
557.353,2442.2
557.521,2468.15
557.688,2475.6
557.856,2472.2
558.023,2480.2
558.191,2477.85
558.358,2477.1
558.525,2481.2
558.693,2455.95
558.86,2456.5
559.028,2481.1
559.195,2473.8
559.362,2484.6
559.53,2494.05
559.697,2505.05
559.864,2474.35
560.032,2472.7
560.199,2483.45
560.366,2509.8
560.534,2525.45
560.701,2526.9
560.868,2524.65
561.036,2548.35
561.203,2560.7
561.37,2560.9
561.538,2609.95
561.705,2765.15
561.872,3297.0
562.039,4787.75
562.207,6166.5
562.374,4814.35
562.541,3140.45
562.708,2709.4
562.876,2647.45
563.043,2606.55
563.21,2571.75
563.377,2548.85
563.545,2540.15
563.712,2543.75
563.879,2562.65
564.046,2566.0
564.213,2573.1
564.38,2590.3
564.548,2647.9
564.715,2691.5
564.882,2765.0
565.049,2767.15
565.216,2764.1
565.383,2701.05
565.551,2659.9
565.718,2634.45
565.885,2586.35
566.052,2607.05
566.219,2565.0
566.386,2584.3
566.553,2555.35
566.72,2590.35
566.887,2603.1
567.054,2595.75
567.221,2622.85
567.388,2589.5
567.555,2575.35
567.722,2567.75
567.889,2557.35
568.057,2553.85
568.224,2556.65
568.391,2543.15
568.558,2527.65
568.725,2534.95
568.892,2546.65
569.058,2544.55
569.225,2548.0
569.392,2556.05
569.559,2572.75
569.726,2549.3
569.893,2566.85
570.06,2542.25
570.227,2538.05
570.394,2552.6
570.561,2550.65
570.728,2533.9
570.895,2541.85
571.062,2517.65
571.229,2535.95
571.395,2551.3
571.562,2570.45
571.729,2552.15
571.896,2553.75
572.063,2579.15
572.23,2587.1
572.397,2592.45
572.563,2572.65
572.73,2568.7
572.897,2572.85
573.064,2578.0
573.231,2566.85
573.397,2583.5
573.564,2579.9
573.731,2588.35
573.898,2565.9
574.064,2568.55
574.231,2579.85
574.398,2580.9
574.565,2577.9
574.731,2554.0
574.898,2565.35
575.065,2568.2
575.232,2566.4
575.398,2565.85
575.565,2552.85
575.732,2602.2
575.898,2600.05
576.065,2566.5
576.232,2571.2
576.398,2568.7
576.565,2587.95
576.732,2603.6
576.898,2597.3
577.065,2587.25
577.232,2582.5
577.398,2571.65
577.565,2566.45
577.731,2590.0
577.898,2585.85
578.065,2564.8
578.231,2570.35
578.398,2575.95
578.564,2562.6
578.731,2588.3
578.897,2568.35
579.064,2581.35
579.23,2616.85
579.397,2582.2
579.563,2597.85
579.73,2601.4
579.896,2592.9
580.063,2591.65
580.229,2606.6
580.396,2591.1
580.562,2595.75
580.729,2613.6
580.895,2600.6
581.062,2604.5
581.228,2606.4
581.395,2615.8
581.561,2602.6
581.728,2611.2
581.894,2614.25
582.06,2610.15
582.227,2595.95
582.393,2607.65
582.56,2606.35
582.726,2626.55
582.892,2642.3
583.059,2617.4
583.225,2617.35
583.391,2602.3
583.558,2632.4
583.724,2622.35
583.89,2633.85
584.057,2633.55
584.223,2630.2
584.389,2629.15
584.556,2652.9
584.722,2605.85
584.888,2607.45
585.054,2609.15
585.221,2593.3
585.387,2595.35
585.553,2594.3
585.719,2599.6
585.886,2587.1
586.052,2603.45
586.218,2587.25
586.384,2633.85
586.55,2610.2
586.717,2604.65
586.883,2613.6
587.049,2609.35
587.215,2628.35
587.381,2594.05
587.548,2627.0
587.714,2606.75
587.88,2598.9
588.046,2620.1
588.212,2599.8
588.378,2606.1
588.544,2614.1
588.71,2586.1
588.876,2551.05
589.043,2538.15
589.209,2550.75
589.375,2554.8
589.541,2568.45
589.707,2539.6
589.873,2560.3
590.039,2595.0
590.205,2585.4
590.371,2604.3
590.537,2586.25
590.703,2601.0
590.869,2599.15
591.035,2600.9
591.201,2589.5
591.367,2600.05
591.533,2591.35
591.699,2604.55
591.865,2603.05
592.031,2574.85
592.197,2601.4
592.363,2595.45
592.529,2613.0
592.694,2613.6
592.86,2616.75
593.026,2610.05
593.192,2604.55
593.358,2610.5
593.524,2595.55
593.69,2602.35
593.856,2611.4
594.021,2592.45
594.187,2575.6
594.353,2590.35
594.519,2600.95
594.685,2584.95
594.851,2593.45
595.016,2603.0
595.182,2603.2
595.348,2612.85
595.514,2604.15
595.68,2609.65
595.845,2601.0
596.011,2598.55
596.177,2625.0
596.342,2614.55
596.508,2620.3
596.674,2594.0
596.84,2621.85
597.005,2628.65
597.171,2630.05
597.337,2621.5
597.502,2603.6
597.668,2609.1
597.834,2617.85
597.999,2623.5
598.165,2613.15
598.331,2611.75
598.496,2599.7
598.662,2623.4
598.828,2629.1
598.993,2623.25
599.159,2612.9
599.324,2642.45
599.49,2623.3
599.656,2628.5
599.821,2613.2
599.987,2652.0
600.152,2631.55
600.318,2618.0
600.483,2638.7
600.649,2621.8
600.814,2612.3
600.98,2607.05
601.145,2643.2
601.311,2619.9
601.476,2609.75
601.642,2616.6
601.807,2618.25
601.973,2623.9
602.138,2630.65
602.304,2628.35
602.469,2618.25
602.635,2625.4
602.8,2635.5
602.965,2637.9
603.131,2637.0
603.296,2649.3
603.462,2615.3
603.627,2634.0
603.792,2655.05
603.958,2636.85
604.123,2634.05
604.288,2633.8
604.454,2644.35
604.619,2637.8
604.784,2636.2
604.95,2647.95
605.115,2636.25
605.28,2640.85
605.446,2641.8
605.611,2633.2
605.776,2634.7
605.941,2643.1
606.107,2637.7
606.272,2656.7
606.437,2626.3
606.602,2623.1
606.767,2661.95
606.933,2657.4
607.098,2657.85
607.263,2643.8
607.428,2641.9
607.593,2646.8
607.759,2630.05
607.924,2647.25
608.089,2641.7
608.254,2630.65
608.419,2641.1
608.584,2638.7
608.749,2635.95
608.915,2639.15
609.08,2629.85
609.245,2641.05
609.41,2646.3
609.575,2636.25
609.74,2653.0
609.905,2645.0
610.07,2639.2
610.235,2630.15
610.4,2631.3
610.565,2638.15
610.73,2644.4
610.895,2641.2
611.06,2642.15
611.225,2646.5
611.39,2638.05
611.555,2637.4
611.72,2634.8
611.885,2631.25
612.05,2640.05
612.215,2615.8
612.38,2630.05
612.545,2632.5
612.71,2634.35
612.875,2605.9
613.04,2638.3
613.204,2630.6
613.369,2625.95
613.534,2624.35
613.699,2615.5
613.864,2611.75
614.029,2634.35
614.194,2610.3
614.358,2627.0
614.523,2632.55
614.688,2636.05
614.853,2615.75
615.018,2627.6
615.182,2607.05
615.347,2601.8
615.512,2622.4
615.677,2623.75
615.841,2627.45
616.006,2614.6
616.171,2588.0
616.336,2604.1
616.5,2619.65
616.665,2623.9
616.83,2602.75
616.994,2585.25
617.159,2621.75
617.324,2612.3
617.489,2624.6
617.653,2623.7
617.818,2620.0
617.982,2635.15
618.147,2641.05
618.312,2644.4
618.476,2629.75
618.641,2635.7
618.805,2613.75
618.97,2613.45
619.135,2613.65
619.299,2607.35
619.464,2623.2
619.628,2635.6
619.793,2632.55
619.957,2634.7
620.122,2637.8
620.286,2621.6
620.451,2602.85
620.615,2619.75
620.78,2635.3
620.944,2644.1
621.109,2600.9
621.273,2624.1
621.438,2619.4
621.602,2627.75
621.767,2609.4
621.931,2613.9
622.095,2615.8
622.26,2617.5
622.424,2594.3
622.589,2632.65
622.753,2629.0
622.917,2614.15
623.082,2598.85
623.246,2582.55
623.41,2613.55
623.575,2621.35
623.739,2607.2
623.903,2613.45
624.068,2606.3
624.232,2615.2
624.396,2606.65
624.561,2604.2
624.725,2597.65
624.889,2620.7
625.053,2616.6
625.218,2599.6
625.382,2583.8
625.546,2594.9
625.71,2572.1
625.875,2603.1
626.039,2598.4
626.203,2603.4
626.367,2597.7
626.531,2607.0
626.695,2590.6
626.86,2587.0
627.024,2592.85
627.188,2605.35
627.352,2599.25
627.516,2591.15
627.68,2545.3
627.844,2544.2
628.008,2575.3
628.172,2579.3
628.337,2590.6
628.501,2620.05
628.665,2592.75
628.829,2617.15
628.993,2576.75
629.157,2582.7
629.321,2592.15
629.485,2581.6
629.649,2584.65
629.813,2592.85
629.977,2567.85
630.141,2553.5
630.305,2576.1
630.469,2594.0
630.633,2573.7
630.797,2585.65
630.96,2591.6
631.124,2593.85
631.288,2587.05
631.452,2583.35
631.616,2573.95
631.78,2553.9
631.944,2577.2
632.108,2579.6
632.272,2592.85
632.435,2598.7
632.599,2590.3
632.763,2583.55
632.927,2606.35
633.091,2598.35
633.254,2600.65
633.418,2573.45
633.582,2603.7
633.746,2595.9
633.91,2575.55
634.073,2593.2
634.237,2581.0
634.401,2583.0
634.564,2577.2
634.728,2577.7
634.892,2584.9
635.056,2592.7
635.219,2600.6
635.383,2599.3
635.547,2568.5
635.71,2553.55
635.874,2575.35
636.038,2572.8
636.201,2569.9
636.365,2586.15
636.528,2583.4
636.692,2594.05
636.856,2571.1
637.019,2586.8
637.183,2588.5
637.346,2611.45
637.51,2604.75
637.673,2600.0
637.837,2580.2
638.0,2601.7
638.164,2619.9
638.327,2600.9
638.491,2606.4
638.654,2600.7
638.818,2601.75
638.981,2585.65
639.145,2597.8
639.308,2583.05
639.472,2614.5
639.635,2615.75
639.799,2615.05
639.962,2597.3
640.125,2609.15
640.289,2636.9
640.452,2636.25
640.616,2616.7
640.779,2620.6
640.942,2630.85
641.106,2650.05
641.269,2657.3
641.432,2660.25
641.596,2686.5
641.759,2681.15
641.922,2693.55
642.085,2709.45
642.249,2722.4
642.412,2754.0
642.575,2793.05
642.738,2805.65
642.902,2792.25
643.065,2837.0
643.228,2848.75
643.391,2888.8
643.555,2928.9
643.718,2940.95
643.881,2989.0
644.044,3067.9
644.207,3092.15
644.37,3135.85
644.534,3148.6
644.697,3138.5
644.86,3102.85
645.023,3089.2
645.186,3114.85
645.349,3109.8
645.512,3110.3
645.675,3080.2
645.838,3085.0
646.001,3088.65
646.164,3080.3
646.327,3034.8
646.49,3069.95
646.653,3086.8
646.816,3096.4
646.979,3095.25
647.142,3099.75
647.305,3144.9
647.468,3088.9
647.631,3070.3
647.794,3082.05
647.957,3092.55
648.12,3073.15
648.283,3070.0
648.446,3035.45
648.609,3064.55
648.772,3062.35
648.935,3045.8
649.098,2998.0
649.26,3012.45
649.423,2935.15
649.586,2972.15
649.749,2976.05
649.912,2975.7
650.075,2974.95
650.237,2918.35
650.4,2941.1
650.563,2892.35
650.726,2883.0
650.888,2856.2
651.051,2815.8
651.214,2823.8
651.377,2786.8
651.539,2759.7
651.702,2751.75
651.865,2753.8
652.027,2717.65
652.19,2768.6
652.353,2721.65
652.515,2737.4
652.678,2729.85
652.841,2680.65
653.003,2715.85
653.166,2709.95
653.329,2687.9
653.491,2661.45
653.654,2645.75
653.816,2668.65
653.979,2653.95
654.142,2621.0
654.304,2582.2
654.467,2589.15
654.629,2554.05
654.792,2537.9
654.954,2554.9
655.117,2535.0
655.279,2525.3
655.442,2506.8
655.604,2500.95
655.767,2471.3
655.929,2458.3
656.091,2462.35
656.254,2395.6
656.416,2397.95
656.579,2437.0
656.741,2441.85
656.904,2438.9
657.066,2408.05
657.228,2412.7
657.391,2413.85
657.553,2395.15
657.715,2410.7
657.878,2393.55
658.04,2386.05
658.202,2393.5
658.365,2382.15
658.527,2364.65
658.689,2375.85
658.851,2368.3
659.014,2360.0
659.176,2343.95
659.338,2334.9
659.5,2354.6
659.663,2348.95
659.825,2342.2
659.987,2329.7
660.149,2336.3
660.311,2343.8
660.474,2324.65
660.636,2318.35
660.798,2312.6
660.96,2329.9
661.041,2326.8