File: spectra/VLFR_01-LDPE_bio_Raman_b8c9d9d1.csv
nm,Intensity
528.65,1855.75
528.819,1855.1
528.987,1855.3
529.155,1855.95
529.324,1856.85
529.492,1855.65
529.66,1856.3
529.829,1857.15
529.997,1856.25
530.165,1856.9
530.334,1855.15
530.502,1856.4
530.67,1856.75
530.839,1855.65
531.007,1856.0
531.175,1857.65
531.344,1858.0
531.512,1860.9
531.68,1874.8
531.848,2100.5
532.017,2916.1
532.185,2678.55
532.353,1928.15
532.521,1857.85
532.69,1856.6
532.858,1857.0
533.026,1855.1
533.194,1858.45
533.363,1859.7
533.531,1874.25
533.699,1966.25
533.867,2149.65
534.036,2243.6
534.204,2271.15
534.372,2256.6
534.54,2232.7
534.708,2234.95
534.877,2212.55
535.045,2211.15
535.213,2201.4
535.381,2191.55
535.549,2191.3
535.717,2178.05
535.886,2157.15
536.054,2144.05
536.222,2146.65
536.39,2142.25
536.558,2136.8
536.726,2136.6
536.894,2130.55
537.062,2128.7
537.231,2137.35
537.399,2143.9
537.567,2144.1
537.735,2145.1
537.903,2146.4
538.071,2159.1
538.239,2145.7
538.407,2157.45
538.575,2154.8
538.743,2179.7
538.911,2200.9
539.079,2198.65
539.247,2191.25
539.415,2158.15
539.583,2147.65
539.751,2132.95
539.919,2123.65
540.087,2123.65
540.255,2120.75
540.423,2122.6
540.591,2118.35
540.759,2117.0
540.927,2110.4
541.095,2122.35
541.263,2107.45
541.431,2108.85
541.599,2114.05
541.767,2117.3
541.935,2122.95
542.103,2123.15
542.271,2128.25
542.439,2121.35
542.607,2137.2
542.775,2131.3
542.943,2140.05
543.111,2130.3
543.279,2128.15
543.446,2123.85
543.614,2123.25
543.782,2118.1
543.95,2114.35
544.118,2117.4
544.286,2118.35
544.454,2112.5
544.622,2105.55
544.789,2114.3
544.957,2112.6
545.125,2112.05
545.293,2112.05
545.461,2105.4
545.629,2107.2
545.796,2111.45
545.964,2113.0
546.132,2113.9
546.3,2116.35
546.468,2114.1
546.635,2121.0
546.803,2102.1
546.971,2117.0
547.139,2112.75
547.306,2122.05
547.474,2117.3
547.642,2114.1
547.81,2114.9
547.977,2113.3
548.145,2123.4
548.313,2112.25
548.481,2116.9
548.648,2108.3
548.816,2119.2
548.984,2121.25
549.151,2117.45
549.319,2114.1
549.487,2120.15
549.655,2112.1
549.822,2114.5
549.99,2112.75
550.158,2120.3
550.325,2123.55
550.493,2130.9
550.66,2129.05
550.828,2136.8
550.996,2124.6
551.163,2123.35
551.331,2138.9
551.499,2137.4
551.666,2141.55
551.834,2141.6
552.001,2144.55
552.169,2145.35
552.337,2139.1
552.504,2120.5
552.672,2127.8
552.839,2129.65
553.007,2128.45
553.174,2136.25
553.342,2142.85
553.509,2139.1
553.677,2135.8
553.844,2126.85
554.012,2129.55
554.179,2140.05
554.347,2140.9
554.514,2132.75
554.682,2138.1
554.849,2136.15
555.017,2132.55
555.184,2137.8
555.352,2137.95
555.519,2137.0
555.687,2152.9
555.854,2144.9
556.022,2149.25
556.189,2158.35
556.357,2152.15
556.524,2158.6
556.691,2160.5
556.859,2158.6
557.026,2171.95
557.194,2175.4
557.361,2166.95
557.528,2173.4
557.696,2173.2
557.863,2176.9
558.031,2187.8
558.198,2185.2
558.365,2178.05
558.533,2186.3
558.7,2177.9
558.867,2186.45
559.035,2175.45
559.202,2165.1
559.369,2166.1
559.537,2174.6
559.704,2169.95
559.871,2158.8
560.038,2164.3
560.206,2155.45
560.373,2157.55
560.54,2171.05
560.708,2169.45
560.875,2166.45
561.042,2170.55
561.209,2177.95
561.377,2173.55
561.544,2171.9
561.711,2174.55
561.878,2187.6
562.045,2186.4
562.213,2195.15
562.38,2197.05
562.547,2195.5
562.714,2204.3
562.881,2208.35
563.049,2213.7
563.216,2222.85
563.383,2238.9
563.55,2258.8
563.717,2319.3
563.884,2462.0
564.052,2558.4
564.219,2424.35
564.386,2331.5
564.553,2330.8
564.72,2315.2
564.887,2292.55
565.054,2290.1
565.221,2251.35
565.388,2250.65
565.556,2270.95
565.723,2298.65
565.89,2399.9
566.057,2561.55
566.224,2512.95
566.391,2370.45
566.558,2276.9
566.725,2245.8
566.892,2246.25
567.059,2248.35
567.226,2248.05
567.393,2267.35
567.56,2247.9
567.727,2235.45
567.894,2237.25
568.061,2229.6
568.228,2217.25
568.395,2231.7
568.562,2225.15
568.729,2227.0
568.896,2233.9
569.063,2226.95
569.23,2249.65
569.396,2246.25
569.563,2259.9
569.73,2254.9
569.897,2248.2
570.064,2262.15
570.231,2268.7
570.398,2278.75
570.565,2295.0
570.732,2292.15
570.898,2322.0
571.065,2362.15
571.232,2433.8
571.399,2696.85
571.566,2906.5
571.733,2660.7
571.9,2460.5
572.066,2447.8
572.233,2380.6
572.4,2350.95
572.567,2335.3
572.734,2325.9
572.9,2312.1
573.067,2299.5
573.234,2293.35
573.401,2294.45
573.567,2306.9
573.734,2313.05
573.901,2323.75
574.068,2332.25
574.234,2301.35
574.401,2293.8
574.568,2281.55
574.734,2281.65
574.901,2280.05
575.068,2293.75
575.235,2327.8
575.401,2418.2
575.568,2507.75
575.735,2528.65
575.901,2577.05
576.068,2738.15
576.235,2899.5
576.401,2842.7
576.568,2770.6
576.734,2714.9
576.901,2708.6
577.068,2649.4
577.234,2575.7
577.401,2459.95
577.567,2410.55
577.734,2389.4
577.901,2362.2
578.067,2346.35
578.234,2335.55
578.4,2352.25
578.567,2330.95
578.733,2340.45
578.9,2343.25
579.066,2337.85
579.233,2331.4
579.399,2353.65
579.566,2348.05
579.732,2366.35
579.899,2351.1
580.065,2366.75
580.232,2373.9
580.398,2372.15
580.565,2371.6
580.731,2380.65
580.898,2392.6
581.064,2390.4
581.231,2373.4
581.397,2407.85
581.563,2407.05
581.73,2402.75
581.896,2408.05
582.063,2402.15
582.229,2415.5
582.395,2413.4
582.562,2425.55
582.728,2421.8
582.895,2425.7
583.061,2440.4
583.227,2434.85
583.394,2433.15
583.56,2447.55
583.726,2448.7
583.893,2455.05
584.059,2460.6
584.225,2455.85
584.391,2467.15
584.558,2472.55
584.724,2482.55
584.89,2478.5
585.057,2487.5
585.223,2489.7
585.389,2510.1
585.555,2511.55
585.722,2493.8
585.888,2517.65
586.054,2539.7
586.22,2538.6
586.386,2530.85
586.553,2569.05
586.719,2584.6
586.885,2585.8
587.051,2585.45
587.217,2610.95
587.384,2594.2
587.55,2593.0
587.716,2634.75
587.882,2663.8
588.048,2641.7
588.214,2687.6
588.38,2672.65
588.546,2680.6
588.713,2717.95
588.879,2675.65
589.045,2673.15
589.211,2711.25
589.377,2721.5
589.543,2752.8
589.709,2733.95
589.875,2748.65
590.041,2798.25
590.207,2778.3
590.373,2781.15
590.539,2794.85
590.705,2797.95
590.871,2834.9
591.037,2804.35
591.203,2828.5
591.369,2863.4
591.535,2851.7
591.701,2879.5
591.867,2870.75
592.033,2880.1
592.199,2882.9
592.365,2906.9
592.531,2890.25
592.697,2882.4
592.863,2909.15
593.029,2900.95
593.195,2891.25
593.361,2889.3
593.526,2914.25
593.692,2933.35
593.858,2888.65
594.024,2905.4
594.19,2946.15
594.356,2922.35
594.522,2933.5
594.687,2952.65
594.853,2934.95
595.019,2948.1
595.185,2947.8
595.351,2971.0
595.516,2953.7
595.682,2972.4
595.848,2997.95
596.014,2960.35
596.18,2967.0
596.345,2974.0
596.511,3003.7
596.677,3027.2
596.843,3005.05
597.008,3002.65
597.174,3022.6
597.34,3043.95
597.505,3043.95
597.671,3042.75
597.837,3081.65
598.002,3048.4
598.168,3068.7
598.334,3044.35
598.499,3072.15
598.665,3105.95
598.831,3125.35
598.996,3090.5
599.162,3094.7
599.328,3105.25
599.493,3133.05
599.659,3145.9
599.824,3114.4
599.99,3087.3
600.156,3149.05
600.321,3152.95
600.487,3124.85
600.652,3123.05
600.818,3126.9
600.983,3108.65
601.149,3115.1
601.314,3113.25
601.48,3150.1
601.645,3103.75
601.811,3130.0
601.976,3114.25
602.142,3097.6
602.307,3102.4
602.473,3090.7
602.638,3079.35
602.804,3064.2
602.969,3038.2
603.135,3044.25
603.3,3047.95
603.466,3031.55
603.631,3007.7
603.796,3035.1
603.962,3021.45
604.127,2995.4
604.293,2978.55
604.458,2982.9
604.623,2954.15
604.789,2920.45
604.954,2938.45
605.119,2920.5
605.285,2881.8
605.45,2903.55
605.615,2869.75
605.781,2872.45
605.946,2862.4
606.111,2831.6
606.277,2846.0
606.442,2832.8
606.607,2838.85
606.772,2828.6
606.938,2796.65
607.103,2791.1
607.268,2760.25
607.433,2782.9
607.599,2758.8
607.764,2778.8
607.929,2744.1
608.094,2741.45
608.259,2711.7
608.425,2719.8
608.59,2692.6
608.755,2730.2
608.92,2670.55
609.085,2676.25
609.25,2694.95
609.415,2664.2
609.581,2678.55
609.746,2668.45
609.911,2672.55
610.076,2649.15
610.241,2670.8
610.406,2662.75
610.571,2664.15
610.736,2642.85
610.901,2665.7
611.066,2637.15
611.231,2634.5
611.396,2646.25
611.561,2623.85
611.727,2629.75
611.892,2629.15
612.057,2606.95
612.222,2599.2
612.386,2600.05
612.551,2580.4
612.716,2607.6
612.881,2573.35
613.046,2581.15
613.211,2575.05
613.376,2556.85
613.541,2566.9
613.706,2577.0
613.871,2571.0
614.036,2561.85
614.201,2545.95
614.366,2548.3
614.531,2540.8
614.695,2557.8
614.86,2530.05
615.025,2525.6
615.19,2540.0
615.355,2544.0
615.52,2522.6
615.684,2521.95
615.849,2528.75
616.014,2520.25
616.179,2522.95
616.344,2515.95
616.508,2524.1
616.673,2518.35
616.838,2546.6
617.003,2502.2
617.168,2529.65
617.332,2541.8
617.497,2521.65
617.662,2511.45
617.826,2541.35
617.991,2531.0
618.156,2504.05
618.32,2526.1
618.485,2518.2
618.65,2513.4
618.814,2495.95
618.979,2489.35
619.144,2510.3
619.308,2512.4
619.473,2536.95
619.638,2522.6
619.802,2521.15
619.967,2534.35
620.131,2528.15
620.296,2494.8
620.461,2508.8
620.625,2517.25
620.79,2523.15
620.954,2528.9
621.119,2526.5
621.283,2568.35
621.448,2567.35
621.612,2601.5
621.777,2619.4
621.941,2649.25
622.106,2688.0
622.27,2669.95
622.435,2649.2
622.599,2639.1
622.764,2570.0
622.928,2553.95
623.093,2499.95
623.257,2504.95
623.422,2495.35
623.586,2466.15
623.75,2471.9
623.915,2473.45
624.079,2466.75
624.244,2478.45
624.408,2467.3
624.572,2465.6
624.737,2473.75
624.901,2478.15
625.065,2463.15
625.23,2493.05
625.394,2498.15
625.558,2495.05
625.723,2493.5
625.887,2519.8
626.051,2562.75
626.215,2624.25
626.38,2740.6
626.544,2976.85
626.708,3476.55
626.872,4169.1
627.037,5187.15
627.201,5720.0
627.365,5549.1
627.529,5224.8
627.693,4712.65
627.858,4489.2
628.022,4445.5
628.186,4765.85
628.35,5359.35
628.514,5765.55
628.678,5565.9
628.843,4927.95
629.007,4624.8
629.171,4545.4
629.335,4411.95
629.499,4198.7
629.663,3963.0
629.827,3786.8
629.991,3786.6
630.155,3750.55
630.319,3751.1
630.483,3656.0
630.647,3491.25
630.812,3307.75
630.976,3075.55
631.14,2900.35
631.304,2748.5
631.468,2675.0
631.632,2602.85
631.796,2579.7
631.959,2559.35
632.123,2507.75
632.287,2504.15
632.451,2474.45
632.615,2478.1
632.779,2436.8
632.943,2445.65
633.107,2417.5
633.271,2429.15
633.435,2431.7
633.599,2418.1
633.763,2412.75
633.926,2387.8
634.09,2385.8
634.254,2412.95
634.418,2393.7
634.582,2381.75
634.746,2368.55
634.909,2379.75
635.073,2399.05
635.237,2360.35
635.401,2376.5
635.564,2371.9
635.728,2360.4
635.892,2372.5
636.056,2382.85
636.219,2359.5
636.383,2390.4
636.547,2358.3
636.711,2359.85
636.874,2360.5
637.038,2365.35
637.202,2363.5
637.365,2355.9
637.529,2346.05
637.693,2342.9
637.856,2362.6
638.02,2357.2
638.184,2360.3
638.347,2390.85
638.511,2343.45
638.674,2350.05
638.838,2369.95
639.002,2357.5
639.165,2370.35
639.329,2350.65
639.492,2347.3
639.656,2369.7
639.819,2354.95
639.983,2347.35
640.146,2355.55
640.31,2350.25
640.473,2370.65
640.637,2353.3
640.8,2368.1
640.964,2370.6
641.127,2370.6
641.291,2369.95
641.454,2363.35
641.618,2348.25
641.781,2358.9
641.944,2363.55
642.108,2355.65
642.271,2361.05
642.435,2377.65
642.598,2396.5
642.761,2382.4
642.925,2375.85
643.088,2375.4
643.251,2366.0
643.415,2374.05
643.578,2389.75
643.741,2382.45
643.905,2364.15
644.068,2379.45
644.231,2373.15
644.394,2382.65
644.558,2366.9
644.721,2370.25
644.884,2378.6
645.047,2389.3
645.211,2390.2
645.374,2370.95
645.537,2372.55
645.7,2369.1
645.863,2378.75
646.027,2369.55
646.19,2368.05
646.353,2369.6
646.516,2367.65
646.679,2364.7
646.842,2385.2
647.005,2382.4
647.169,2375.5
647.332,2377.45
647.495,2383.8
647.658,2348.95
647.821,2360.05
647.984,2366.55
648.147,2361.8
648.31,2361.1
648.473,2370.7
648.636,2344.2
648.799,2372.65
648.962,2342.9
649.125,2350.15
649.288,2362.55
649.451,2353.5
649.614,2357.3
649.777,2345.55
649.94,2357.6
650.103,2349.05
650.266,2356.2
650.429,2329.55
650.592,2365.0
650.755,2342.25
650.918,2367.6
651.08,2349.65
651.243,2359.7
651.406,2361.95
651.569,2350.85
651.732,2343.55
651.895,2343.0
652.058,2353.8
652.22,2339.3
652.383,2349.55
652.546,2341.2
652.709,2348.6
652.872,2344.6
653.034,2335.9
653.197,2335.05
653.36,2327.55
653.523,2332.2
653.685,2314.35
653.848,2331.25
654.011,2336.5
654.173,2319.0
654.336,2322.2
654.499,2330.15
654.662,2280.15
654.824,2335.25
654.987,2311.35
655.149,2294.65
655.312,2295.5
655.475,2313.35
655.637,2286.0
655.8,2312.95
655.963,2299.1
656.125,2319.55
656.288,2296.95
656.45,2285.45
656.613,2292.45
656.775,2267.95
656.938,2288.25
657.1,2286.85
657.263,2270.55
657.425,2266.75
657.588,2277.3
657.75,2268.4
657.913,2274.55
658.075,2266.8
658.238,2245.1
658.4,2249.9
658.563,2237.1
658.725,2239.95
658.888,2228.4
659.05,2226.4
659.212,2234.3
659.375,2231.6
659.537,2223.1
659.7,2229.8
659.862,2214.45
660.024,2221.6
660.187,2210.6
660.349,2193.35
660.511,2216.45
660.674,2202.95
660.836,2199.3
660.998,2195.0
661.079,2186.45