File: spectra/VLFR_06-PET_nobio_Raman_f0a84154.csv
nm,Intensity
526.547,833.5
526.683,834.4
526.82,832.1
526.957,834.2
527.094,833.5
527.23,832.8
527.367,833.4
527.504,833.5
527.641,833.4
527.777,833.6
527.914,832.6
528.051,831.4
528.188,832.4
528.324,832.1
528.461,831.9
528.598,832.8
528.734,833.4
528.871,832.7
529.008,834.2
529.144,832.4
529.281,832.6
529.417,832.1
529.554,833.6
529.691,833.0
529.827,832.0
529.964,830.9
530.1,830.9
530.237,831.4
530.373,834.9
530.51,832.9
530.647,833.4
530.783,833.7
530.92,833.3
531.056,833.7
531.193,832.9
531.329,832.5
531.466,833.2
531.602,833.3
531.738,832.7
531.875,833.2
532.011,843.1
532.148,876.4
532.284,865.6
532.421,835.8
532.557,833.0
532.693,832.4
532.83,832.3
532.966,832.7
533.103,834.3
533.239,831.2
533.375,834.0
533.512,834.3
533.648,852.0
533.784,981.0
533.921,1423.3
534.057,1928.8
534.193,2054.0
534.33,1969.1
534.466,1885.6
534.602,1774.7
534.738,1695.0
534.875,1624.4
535.011,1508.9
535.147,1441.3
535.283,1375.4
535.42,1327.1
535.556,1283.8
535.692,1228.4
535.828,1189.2
535.964,1150.0
536.101,1114.5
536.237,1095.0
536.373,1071.2
536.509,1055.9
536.645,1047.2
536.781,1037.7
536.917,1028.1
537.054,1025.1
537.19,1020.8
537.326,1016.6
537.462,1006.7
537.598,1003.3
537.734,1000.8
537.87,999.9
538.006,998.0
538.142,1004.8
538.278,1008.8
538.414,1010.7
538.55,1010.8
538.686,1013.6
538.822,1004.6
538.958,1005.9
539.094,1009.9
539.23,1008.4
539.366,1007.3
539.502,1018.4
539.638,1028.5
539.774,1034.4
539.91,1041.1
540.046,1033.2
540.182,1036.0
540.318,1019.1
540.454,1005.2
540.59,995.6
540.726,990.4
540.862,990.1
540.997,980.4
541.133,978.7
541.269,981.6
541.405,974.1
541.541,974.6
541.677,975.5
541.812,976.1
541.948,976.8
542.084,978.6
542.22,978.1
542.356,977.0
542.492,978.8
542.627,977.3
542.763,973.8
542.899,982.3
543.035,977.7
543.17,981.0
543.306,976.7
543.442,974.9
543.578,975.4
543.713,978.5
543.849,985.0
543.985,987.5
544.12,985.4
544.256,986.0
544.392,978.5
544.527,984.3
544.663,984.1
544.799,986.4
544.934,985.8
545.07,987.5
545.206,992.1
545.341,990.9
545.477,986.6
545.612,986.3
545.748,991.5
545.884,993.1
546.019,998.6
546.155,994.5
546.29,994.3
546.426,992.1
546.562,989.7
546.697,996.9
546.833,997.9
546.968,990.0
547.104,997.6
547.239,996.4
547.375,995.8
547.51,994.2
547.646,997.9
547.781,995.9
547.917,998.0
548.052,999.8
548.188,998.4
548.323,996.9
548.458,994.7
548.594,1000.6
548.729,1002.8
548.865,1004.2
549.0,1000.1
549.136,1003.7
549.271,1003.8
549.406,1001.1
549.542,1002.6
549.677,1003.2
549.812,1006.7
549.948,1010.6
550.083,1007.8
550.219,1004.6
550.354,1015.1
550.489,1035.2
550.625,1140.1
550.76,1204.8
550.895,1084.9
551.03,1022.1
551.166,1017.4
551.301,1015.6
551.436,1022.6
551.572,1010.0
551.707,1014.7
551.842,1015.8
551.977,1023.7
552.113,1021.2
552.248,1025.2
552.383,1025.5
552.518,1019.5
552.654,1034.8
552.789,1071.1
552.924,1093.6
553.059,1063.4
553.194,1037.7
553.329,1030.9
553.465,1024.5
553.6,1031.6
553.735,1033.0
553.87,1030.8
554.005,1033.9
554.14,1031.2
554.276,1031.5
554.411,1031.6
554.546,1040.5
554.681,1035.3
554.816,1039.3
554.951,1039.2
555.086,1044.3
555.221,1051.7
555.356,1055.3
555.491,1081.0
555.626,1107.3
555.761,1115.6
555.896,1099.9
556.031,1094.1
556.167,1103.1
556.302,1108.2
556.437,1121.1
556.572,1118.4
556.707,1121.9
556.842,1113.8
556.977,1126.4
557.112,1137.4
557.246,1174.3
557.381,1222.7
557.516,1306.6
557.651,1334.5
557.786,1280.7
557.921,1186.3
558.056,1148.5
558.191,1138.3
558.326,1137.9
558.461,1140.2
558.596,1141.2
558.731,1130.1
558.866,1118.2
559.0,1107.0
559.135,1093.4
559.27,1080.8
559.405,1076.7
559.54,1077.7
559.675,1078.5
559.81,1069.6
559.944,1071.3
560.079,1073.2
560.214,1067.9
560.349,1077.6
560.484,1074.3
560.618,1081.5
560.753,1076.4
560.888,1080.2
561.023,1075.3
561.158,1081.0
561.292,1084.5
561.427,1090.0
561.562,1096.3
561.697,1091.4
561.831,1094.2
561.966,1102.4
562.101,1106.7
562.235,1120.4
562.37,1107.6
562.505,1113.7
562.64,1110.6
562.774,1108.6
562.909,1127.1
563.044,1126.0
563.178,1128.7
563.313,1123.2
563.448,1124.7
563.582,1117.2
563.717,1117.1
563.852,1110.3
563.986,1114.6
564.121,1113.2
564.255,1116.4
564.39,1123.4
564.525,1136.7
564.659,1145.3
564.794,1153.8
564.928,1171.3
565.063,1190.7
565.198,1213.6
565.332,1230.8
565.467,1243.5
565.601,1258.3
565.736,1262.4
565.87,1286.6
566.005,1267.9
566.139,1245.6
566.274,1210.3
566.408,1178.6
566.543,1166.3
566.677,1151.6
566.812,1139.3
566.946,1139.1
567.081,1146.0
567.215,1133.6
567.35,1146.5
567.484,1166.1
567.619,1205.8
567.753,1228.0
567.887,1219.3
568.022,1178.9
568.156,1161.8
568.291,1155.6
568.425,1156.6
568.56,1143.7
568.694,1145.3
568.828,1146.0
568.963,1143.3
569.097,1150.6
569.231,1148.0
569.366,1161.2
569.5,1165.1
569.635,1173.2
569.769,1180.0
569.903,1186.8
570.038,1197.4
570.172,1198.4
570.306,1220.5
570.441,1246.2
570.575,1283.1
570.709,1318.4
570.843,1355.0
570.978,1402.8
571.112,1444.4
571.246,1507.7
571.381,1529.8
571.515,1503.6
571.649,1451.5
571.783,1374.1
571.918,1359.6
572.052,1342.0
572.186,1295.0
572.32,1253.4
572.455,1242.6
572.589,1227.1
572.723,1214.2
572.857,1199.8
572.991,1203.0
573.126,1203.6
573.26,1201.6
573.394,1202.7
573.528,1201.7
573.662,1210.3
573.796,1213.7
573.931,1224.1
574.065,1231.0
574.199,1224.7
574.333,1225.6
574.467,1218.4
574.601,1219.3
574.735,1223.4
574.869,1227.9
575.004,1227.8
575.138,1239.0
575.272,1260.9
575.406,1287.7
575.54,1262.6
575.674,1242.3
575.808,1229.7
575.942,1225.7
576.076,1230.8
576.21,1247.2
576.344,1256.4
576.478,1274.7
576.612,1273.2
576.746,1274.3
576.88,1275.0
577.014,1271.3
577.148,1254.0
577.282,1249.1
577.416,1242.4
577.55,1239.9
577.684,1239.5
577.818,1232.8
577.952,1235.1
578.086,1232.1
578.22,1237.7
578.354,1230.3
578.488,1239.5
578.622,1236.8
578.756,1239.1
578.89,1237.4
579.024,1244.4
579.158,1239.3
579.292,1250.0
579.426,1248.8
579.559,1244.1
579.693,1246.6
579.827,1246.0
579.961,1254.3
580.095,1257.1
580.229,1255.1
580.363,1254.7
580.497,1261.4
580.63,1262.5
580.764,1265.8
580.898,1270.9
581.032,1284.1
581.166,1284.2
581.3,1288.3
581.433,1308.5
581.567,1336.7
581.701,1416.9
581.835,1548.9
581.969,1859.2
582.102,2405.1
582.236,2684.5
582.37,2143.3
582.504,1582.6
582.637,1390.4
582.771,1336.6
582.905,1311.4
583.039,1307.2
583.172,1299.2
583.306,1296.7
583.44,1294.8
583.574,1293.1
583.707,1297.8
583.841,1288.3
583.975,1287.8
584.108,1295.5
584.242,1299.8
584.376,1311.4
584.51,1307.7
584.643,1311.8
584.777,1314.1
584.911,1325.2
585.044,1330.3
585.178,1349.0
585.312,1374.4
585.445,1461.5
585.579,1596.7
585.712,1792.2
585.846,1930.7
585.98,2002.5
586.113,1990.7
586.247,1920.4
586.381,1812.7
586.514,1667.5
586.648,1541.2
586.781,1458.1
586.915,1403.2
587.048,1374.6
587.182,1345.6
587.316,1345.8
587.449,1336.6
587.583,1339.7
587.716,1326.2
587.85,1321.0
587.983,1322.4
588.117,1328.1
588.25,1326.1
588.384,1318.0
588.517,1319.7
588.651,1318.5
588.784,1317.1
588.918,1317.3
589.051,1325.0
589.185,1314.2
589.318,1317.5
589.452,1324.1
589.585,1324.5
589.719,1319.5
589.852,1313.2
589.986,1321.8
590.119,1329.1
590.253,1319.4
590.386,1317.9
590.519,1337.3
590.653,1327.5
590.786,1324.2
590.92,1329.2
591.053,1329.6
591.187,1336.6
591.32,1324.6
591.453,1330.0
591.587,1331.9
591.72,1326.0
591.853,1327.6
591.987,1330.0
592.12,1326.0
592.254,1331.8
592.387,1336.8
592.52,1335.9
592.654,1325.7
592.787,1332.8
592.92,1324.2
593.054,1332.3
593.187,1332.1
593.32,1327.4
593.454,1334.9
593.587,1333.2
593.72,1334.7
593.853,1338.2
593.987,1327.0
594.12,1339.2
594.253,1331.8
594.387,1343.3
594.52,1338.1
594.653,1345.7
594.786,1348.5
594.92,1343.1
595.053,1350.2
595.186,1339.8
595.319,1348.0
595.453,1355.2
595.586,1359.0
595.719,1353.6
595.852,1354.7
595.985,1349.5
596.119,1355.6
596.252,1347.2
596.385,1350.8
596.518,1356.7
596.651,1354.3
596.785,1352.9
596.918,1362.2
597.051,1354.1
597.184,1361.5
597.317,1371.3
597.45,1358.7
597.584,1360.1
597.717,1358.6
597.85,1357.6
597.983,1362.8
598.116,1353.7
598.249,1364.6
598.382,1376.2
598.516,1363.2
598.649,1367.7
598.782,1359.1
598.915,1378.2
599.048,1367.5
599.181,1368.0
599.314,1364.2
599.447,1371.4
599.58,1368.5
599.713,1371.8
599.846,1372.2
599.979,1369.1
600.113,1371.3
600.246,1374.0
600.379,1369.7
600.512,1376.3
600.645,1363.6
600.778,1364.5
600.911,1375.5
601.044,1370.8
601.177,1373.8
601.31,1363.6
601.443,1372.6
601.576,1366.2
601.709,1365.8
601.842,1368.6
601.975,1373.6
602.108,1370.7
602.241,1364.7
602.374,1372.9
602.507,1382.2
602.64,1366.9
602.773,1373.9
602.905,1382.6
603.038,1378.4
603.171,1384.8
603.304,1368.9
603.437,1381.3
603.57,1383.0
603.703,1374.2
603.836,1381.8
603.969,1385.2
604.102,1379.0
604.235,1392.7
604.368,1377.9
604.501,1381.2
604.633,1384.3
604.766,1375.0
604.899,1374.8
605.032,1377.2
605.165,1381.4
605.298,1371.6
605.431,1375.8
605.563,1376.0
605.696,1372.3
605.829,1369.8
605.962,1372.6
606.095,1356.5
606.228,1363.7
606.36,1365.9
606.493,1362.8
606.626,1363.0
606.759,1365.6
606.892,1371.2
607.025,1372.8
607.157,1375.3
607.29,1376.3
607.423,1378.9
607.556,1381.6
607.688,1378.0
607.821,1381.7
607.954,1384.0
608.087,1382.0
608.219,1375.9
608.352,1389.4
608.485,1386.0
608.618,1382.2
608.75,1385.5
608.883,1382.4
609.016,1392.4
609.149,1390.0
609.281,1387.2
609.414,1389.4
609.547,1383.2
609.68,1386.0
609.812,1379.4
609.945,1385.9
610.078,1387.3
610.21,1382.2
610.343,1389.6
610.476,1396.6
610.608,1384.9
610.741,1393.5
610.874,1401.1
611.006,1394.7
611.139,1387.9
611.272,1379.2
611.404,1386.4
611.537,1396.4
611.67,1391.1
611.802,1405.8
611.935,1402.6
612.067,1389.0
612.2,1404.4
612.333,1396.0
612.465,1396.9
612.598,1407.5
612.731,1412.2
612.863,1420.1
612.996,1422.2
613.128,1421.4
613.261,1415.1
613.393,1418.8
613.526,1414.9
613.659,1422.4
613.791,1417.6
613.924,1411.7
614.056,1417.9
614.189,1435.2
614.321,1425.3
614.454,1423.0
614.586,1432.1
614.719,1427.8
614.852,1421.5
614.984,1428.8
615.117,1425.0
615.249,1424.1
615.382,1421.5
615.514,1435.3
615.647,1423.6
615.779,1427.4
615.912,1417.2
616.044,1419.5
616.177,1429.8
616.309,1428.9
616.442,1432.6
616.574,1429.1
616.707,1437.1
616.839,1434.7
616.971,1433.6
617.104,1436.6
617.236,1439.9
617.369,1433.9
617.501,1448.4
617.634,1443.0
617.766,1446.4
617.899,1444.9
618.031,1461.4
618.163,1459.9
618.296,1447.7
618.428,1468.7
618.561,1458.2
618.693,1460.2
618.826,1462.1
618.958,1459.2
619.09,1446.3
619.223,1453.7
619.355,1444.8
619.487,1434.4
619.62,1446.6
619.752,1453.7
619.885,1444.8
620.017,1445.6
620.149,1449.6
620.282,1448.9
620.414,1451.7
620.546,1446.8
620.679,1448.9
620.811,1449.6
620.943,1444.8
621.076,1450.9
621.208,1455.6
621.34,1456.3
621.473,1459.4
621.605,1458.8
621.737,1452.7
621.87,1463.9
622.002,1462.6
622.134,1465.4
622.267,1461.3
622.399,1466.2
622.531,1469.5
622.663,1468.7
622.796,1464.9
622.928,1475.1
623.06,1475.6
623.193,1475.0
623.325,1482.6
623.457,1478.5
623.589,1484.7
623.722,1486.3
623.854,1492.6
623.986,1488.1
624.118,1492.7
624.251,1487.4
624.383,1498.4
624.515,1492.4
624.647,1505.0
624.78,1491.5
624.912,1505.8
625.044,1505.4
625.176,1491.7
625.308,1497.1
625.441,1501.7
625.573,1501.0
625.705,1490.9
625.837,1491.9
625.969,1501.8
626.102,1502.7
626.234,1499.0
626.366,1502.9
626.498,1499.8
626.63,1506.6
626.762,1520.2
626.895,1497.0
627.027,1502.8
627.159,1506.6
627.291,1520.9
627.423,1508.4
627.555,1517.9
627.687,1505.9
627.82,1515.5
627.952,1511.7
628.084,1524.6
628.216,1533.1
628.348,1541.5
628.48,1543.4
628.612,1544.4
628.744,1567.7
628.877,1561.0
629.009,1559.3
629.141,1572.9
629.273,1559.6
629.405,1564.1
629.537,1558.8
629.669,1564.2
629.801,1562.6
629.933,1558.8
630.065,1563.2
630.197,1557.3
630.33,1569.3
630.462,1570.4
630.594,1565.3
630.726,1575.1
630.858,1589.6
630.99,1602.7
631.122,1636.6
631.254,1661.0
631.386,1700.6
631.518,1723.4
631.65,1745.5
631.782,1753.1
631.914,1763.9
632.046,1754.9
632.178,1726.0
632.31,1708.6
632.442,1676.3
632.574,1667.1
632.706,1664.9
632.838,1658.0
632.97,1643.9
633.102,1652.0
633.234,1643.0
633.366,1654.2
633.498,1644.7
633.63,1643.7
633.762,1634.8
633.894,1625.4
634.026,1617.4
634.158,1617.2
634.29,1615.5
634.422,1606.9
634.554,1603.1
634.686,1594.1
634.818,1596.5
634.95,1598.1
635.082,1603.3
635.214,1600.4
635.346,1617.8
635.477,1633.1
635.609,1637.3
635.741,1649.9
635.873,1679.1
636.005,1712.4
636.137,1727.1
636.269,1757.5
636.401,1804.4
636.533,1828.2
636.665,1841.6
636.797,1815.6
636.929,1776.9
637.06,1714.9
637.192,1690.9
637.324,1678.5
637.456,1664.8
637.588,1660.9
637.72,1649.3
637.852,1645.9
637.984,1639.0
638.115,1628.6
638.247,1632.9
638.379,1648.5
638.511,1633.6
638.643,1639.3
638.775,1637.3
638.907,1642.9
639.039,1630.3
639.17,1639.2
639.302,1642.2
639.434,1646.0
639.566,1646.8
639.698,1649.5
639.83,1642.3
639.961,1644.6
640.093,1646.2
640.225,1647.5
640.357,1643.8
640.489,1651.5
640.62,1661.4
640.752,1647.2
640.884,1640.3
641.016,1652.9
641.148,1651.2
641.279,1658.3
641.411,1650.6
641.543,1657.6
641.675,1653.5
641.807,1669.5
641.938,1660.0
642.07,1667.3
642.202,1671.9
642.334,1674.2
642.466,1675.8
642.597,1678.2
642.729,1671.5
642.861,1671.1
642.993,1668.9
643.124,1658.8
643.256,1664.9
643.388,1664.4
643.52,1650.7
643.651,1659.9
643.783,1650.4
643.915,1653.1
644.047,1653.4
644.178,1663.9
644.31,1655.1
644.442,1667.5
644.574,1656.3
644.705,1655.1
644.837,1647.5
644.969,1663.6
645.1,1653.5
645.232,1652.0
645.364,1661.5
645.496,1667.0
645.627,1651.2
645.759,1666.8
645.891,1656.4
646.022,1658.5
646.154,1678.0
646.286,1666.6
646.417,1671.3
646.549,1672.6
646.681,1666.3
646.812,1675.8
646.944,1682.1
647.076,1680.1
647.207,1689.2
647.339,1681.6
647.471,1684.7
647.602,1675.7
647.734,1686.0
647.866,1684.8
647.997,1674.5
648.129,1674.4
648.261,1668.1
648.392,1673.2
648.524,1688.3
648.656,1679.5
648.787,1667.6
648.919,1673.4
649.051,1676.8
649.182,1677.5
649.314,1680.8
649.446,1677.4
649.577,1680.2
649.709,1670.0
649.84,1672.2
649.972,1677.1
650.104,1680.8
650.235,1671.3
650.367,1675.6
650.498,1678.4
650.63,1679.9
650.762,1679.0
650.893,1682.5
651.025,1678.4
651.157,1659.6
651.288,1672.6
651.42,1683.0
651.551,1682.5
651.683,1690.4
651.814,1675.5
651.946,1681.1
652.078,1670.7
652.209,1675.4
652.341,1678.8
652.472,1676.6
652.604,1680.7
652.736,1674.7
652.867,1682.8
652.999,1678.5
653.13,1683.6
653.262,1682.9
653.393,1685.1
653.525,1696.2
653.656,1691.9
653.788,1682.9
653.92,1688.5
654.051,1682.1
654.183,1681.1
654.314,1691.0
654.446,1683.2
654.577,1679.6
654.709,1677.5
654.84,1672.6
654.972,1691.4
655.103,1681.1
655.235,1687.8
655.366,1675.5
655.498,1682.1
655.63,1694.1
655.761,1687.5
655.893,1692.2
656.024,1673.8
656.156,1681.7
656.287,1682.2
656.419,1679.9
656.55,1681.1
656.682,1680.1
656.813,1677.8
656.945,1685.8
657.076,1681.9
657.208,1682.9
657.339,1674.2
657.471,1674.4
657.602,1688.4
657.734,1672.9
657.865,1680.7
657.997,1670.8
658.128,1682.7
658.26,1688.1
658.391,1684.3
658.522,1686.1
658.654,1687.8
658.785,1687.3
658.917,1682.9
659.048,1674.0
659.18,1681.6
659.311,1687.7
659.443,1684.0
659.574,1680.9
659.706,1673.8
659.837,1680.8
659.969,1675.9
660.1,1684.8
660.232,1682.0
660.363,1689.7
660.494,1682.1
660.626,1671.4
660.757,1681.1
660.889,1673.2
661.02,1668.7
661.152,1680.1
661.283,1669.0
661.415,1672.8
661.546,1664.8
661.677,1657.4
661.809,1662.3
661.94,1674.2
662.072,1664.7
662.203,1649.7
662.335,1663.1
662.466,1658.4
662.597,1659.9
662.729,1662.0
662.86,1652.3
662.992,1655.4
663.123,1646.3