File: spectra/VLFR_08-PLA_nobio_Raman_5d370759.csv
cm-1,Intensity
-123.878,1855.7
-117.855,1854.3
-111.836,1855.55
-105.821,1854.95
-99.8104,1855.55
-93.8036,1855.5
-87.8007,1854.4
-81.8019,1854.55
-75.807,1854.75
-69.8161,1854.75
-63.8293,1855.85
-57.8464,1855.6
-51.8675,1856.9
-45.8926,1855.25
-39.9216,1855.35
-33.9547,1855.8
-27.9917,1857.95
-22.0326,1863.15
-16.0776,1891.45
-10.1265,2300.7
-4.17932,3734.25
1.76388,3124.9
7.70313,1987.2
13.6384,1857.3
19.5698,1857.5
25.4972,1857.1
31.4207,1856.4
37.3403,1857.35
43.256,1860.1
49.1677,1881.6
55.0755,2043.25
60.9794,2317.95
66.8794,2441.85
72.7754,2478.35
78.6676,2418.25
84.5559,2389.55
90.4402,2356.75
96.3207,2344.35
102.197,2340.15
108.07,2314.6
113.939,2310.7
119.804,2277.45
125.665,2250.6
131.522,2245.2
137.375,2236.8
143.225,2246.0
149.07,2249.95
154.912,2267.15
160.75,2248.1
166.584,2237.15
172.414,2230.25
178.241,2214.4
184.063,2239.05
189.882,2232.65
195.697,2224.35
201.508,2231.5
207.315,2211.8
213.119,2189.95
218.918,2195.45
224.714,2208.05
230.506,2194.55
236.294,2222.35
242.078,2218.35
247.859,2220.4
253.636,2209.0
259.409,2194.5
265.178,2179.6
270.943,2182.75
276.705,2196.45
282.463,2208.05
288.217,2239.1
293.967,2244.95
299.713,2231.0
305.456,2256.6
311.195,2241.05
316.93,2247.95
322.662,2249.35
328.389,2248.95
334.113,2227.25
339.834,2221.3
345.55,2225.25
351.263,2220.05
356.972,2221.2
362.677,2233.95
368.379,2241.05
374.077,2248.1
379.771,2273.3
385.461,2285.45
391.148,2321.6
396.831,2338.8
402.51,2347.25
408.186,2351.0
413.858,2321.05
419.526,2273.15
425.19,2259.5
430.851,2241.5
436.508,2248.75
442.162,2225.1
447.811,2226.2
453.458,2226.85
459.1,2218.15
464.739,2226.3
470.374,2209.2
476.005,2224.7
481.633,2222.7
487.257,2223.7
492.878,2225.25
498.494,2215.95
504.107,2227.65
509.717,2234.9
515.323,2238.3
520.925,2231.3
526.524,2221.35
532.119,2239.95
537.71,2239.15
543.298,2241.6
548.882,2247.95
554.462,2249.8
560.039,2246.4
565.613,2258.2
571.182,2251.05
576.748,2257.15
582.311,2240.0
587.87,2267.65
593.425,2254.7
598.977,2265.35
604.525,2264.25
610.069,2270.85
615.61,2261.4
621.148,2274.05
626.682,2274.5
632.212,2275.4
637.739,2282.7
643.262,2280.15
648.781,2310.3
654.297,2290.45
659.81,2304.1
665.319,2311.0
670.824,2317.0
676.326,2325.75
681.824,2302.05
687.319,2314.6
692.81,2317.9
698.298,2322.05
703.782,2309.4
709.262,2321.7
714.739,2304.35
720.213,2310.85
725.683,2305.6
731.15,2321.8
736.613,2347.3
742.072,2360.7
747.528,2352.2
752.981,2335.05
758.43,2335.85
763.875,2337.95
769.317,2327.8
774.756,2307.7
780.191,2319.85
785.623,2312.0
791.051,2304.7
796.475,2288.65
801.897,2309.15
807.314,2309.35
812.729,2301.85
818.139,2310.55
823.547,2317.45
828.951,2316.9
834.351,2320.65
839.748,2341.15
845.142,2362.35
850.532,2396.7
855.918,2446.35
861.302,2587.65
866.681,2770.9
872.058,2903.9
877.431,2830.9
882.8,2620.55
888.166,2476.55
893.529,2412.5
898.888,2403.9
904.244,2409.6
909.596,2385.2
914.945,2385.95
920.291,2385.9
925.633,2375.4
930.972,2384.15
936.308,2365.65
941.64,2360.5
946.968,2358.45
952.294,2357.5
957.615,2373.75
962.934,2363.75
968.249,2352.75
973.561,2345.6
978.869,2354.75
984.174,2350.9
989.476,2361.4
994.774,2356.75
1000.07,2357.35
1005.36,2357.5
1010.65,2374.75
1015.93,2373.0
1021.22,2396.0
1026.49,2416.55
1031.77,2465.05
1037.04,2497.2
1042.31,2536.3
1047.57,2537.55
1052.83,2471.05
1058.09,2450.85
1063.35,2404.35
1068.6,2420.85
1073.85,2416.2
1079.09,2429.5
1084.33,2460.05
1089.57,2488.45
1094.81,2501.0
1100.04,2510.95
1105.27,2508.3
1110.49,2495.5
1115.71,2524.15
1120.93,2553.05
1126.15,2591.7
1131.36,2583.3
1136.57,2524.35
1141.77,2479.5
1146.98,2426.85
1152.18,2400.0
1157.37,2396.35
1162.56,2385.9
1167.75,2414.0
1172.94,2404.55
1178.12,2419.1
1183.3,2438.4
1188.48,2448.0
1193.65,2428.3
1198.82,2428.9
1203.99,2406.1
1209.15,2433.9
1214.31,2434.05
1219.46,2417.2
1224.62,2432.65
1229.77,2412.2
1234.92,2395.75
1240.06,2414.15
1245.2,2436.2
1250.34,2418.95
1255.47,2410.75
1260.6,2395.75
1265.73,2436.2
1270.85,2418.25
1275.97,2418.7
1281.09,2432.6
1286.21,2454.7
1291.32,2508.1
1296.43,2543.4
1301.53,2537.0
1306.63,2519.95
1311.73,2521.4
1316.83,2487.4
1321.92,2483.3
1327.01,2475.75
1332.1,2486.2
1337.18,2491.45
1342.26,2485.55
1347.34,2500.15
1352.41,2495.25
1357.48,2508.7
1362.55,2491.55
1367.61,2495.25
1372.67,2467.25
1377.73,2485.55
1382.78,2506.3
1387.84,2518.5
1392.88,2490.4
1397.93,2433.9
1402.97,2432.7
1408.01,2421.25
1413.05,2425.8
1418.08,2438.8
1423.11,2445.3
1428.14,2453.85
1433.16,2473.85
1438.18,2515.9
1443.2,2622.2
1448.21,2712.85
1453.22,2754.0
1458.23,2706.45
1463.23,2649.6
1468.23,2583.5
1473.23,2496.7
1478.23,2469.9
1483.22,2450.55
1488.21,2441.15
1493.2,2437.15
1498.18,2423.6
1503.16,2438.9
1508.14,2434.8
1513.11,2432.45
1518.08,2435.25
1523.05,2431.95
1528.01,2443.15
1532.97,2446.45
1537.93,2441.95
1542.89,2434.35
1547.84,2439.35
1552.79,2447.05
1557.73,2440.0
1562.68,2440.25
1567.62,2442.55
1572.56,2437.85
1577.49,2451.75
1582.42,2439.0
1587.35,2435.1
1592.27,2443.6
1597.19,2430.1
1602.11,2455.15
1607.03,2441.95
1611.94,2443.6
1616.85,2432.0
1621.76,2445.4
1626.66,2451.95
1631.56,2433.5
1636.46,2448.2
1641.36,2451.1
1646.25,2465.55
1651.14,2467.95
1656.02,2444.95
1660.9,2469.2
1665.78,2446.2
1670.66,2464.8
1675.54,2451.75
1680.41,2475.3
1685.27,2448.35
1690.14,2449.2
1695.0,2457.7
1699.86,2441.5
1704.71,2462.15
1709.57,2461.65
1714.42,2456.15
1719.26,2457.55
1724.11,2455.3
1728.95,2467.75
1733.79,2473.4
1738.62,2526.85
1743.46,2548.35
1748.28,2617.3
1753.11,2661.2
1757.93,2713.65
1762.75,2712.7
1767.57,2777.95
1772.39,2756.45
1777.2,2700.0
1782.01,2635.0
1786.81,2570.0
1791.62,2499.35
1796.41,2506.7
1801.21,2462.9
1806.01,2455.9
1810.8,2467.0
1815.59,2465.3
1820.37,2442.4
1825.15,2441.95
1829.93,2452.65
1834.71,2458.1
1839.48,2455.0
1844.25,2443.0
1849.02,2450.5
1853.79,2444.55
1858.55,2453.7
1863.31,2445.9
1868.06,2446.8
1872.82,2459.6
1877.57,2462.45
1882.31,2451.95
1887.06,2460.65
1891.8,2462.6
1896.54,2469.55
1901.28,2466.4
1906.01,2450.45
1910.74,2447.05
1915.47,2466.75
1920.19,2458.85
1924.91,2462.9
1929.63,2460.3
1934.35,2435.0
1939.06,2447.55
1943.77,2444.4
1948.48,2459.35
1953.19,2444.7
1957.89,2450.55
1962.59,2451.8
1967.28,2450.85
1971.98,2439.3
1976.67,2436.65
1981.35,2435.5
1986.04,2462.25
1990.72,2453.25
1995.4,2461.9
2000.08,2455.45
2004.75,2455.0
2009.42,2449.85
2014.09,2451.1
2018.75,2442.25
2023.42,2449.6
2028.08,2460.55
2032.73,2470.55
2037.39,2447.75
2042.04,2462.4
2046.69,2442.75
2051.33,2463.85
2055.97,2465.4
2060.61,2448.2
2065.25,2464.85
2069.88,2454.55
2074.52,2445.75
2079.15,2446.35
2083.77,2452.55
2088.39,2448.9
2093.01,2443.95
2097.63,2454.55
2102.25,2447.35
2106.86,2441.85
2111.47,2446.05
2116.08,2448.2
2120.68,2440.75
2125.28,2466.4
2129.88,2452.6
2134.47,2438.15
2139.07,2445.35
2143.66,2456.05
2148.24,2436.8
2152.83,2436.95
2157.41,2437.65
2161.99,2440.5
2166.57,2433.65
2171.14,2441.6
2175.71,2448.9
2180.28,2447.25
2184.84,2441.15
2189.41,2441.3
2193.97,2454.45
2198.52,2436.05
2203.08,2438.7
2207.63,2430.5
2212.18,2440.65
2216.73,2435.3
2221.27,2433.5
2225.81,2434.3
2230.35,2422.95
2234.89,2438.55
2239.42,2437.35
2243.95,2436.65
2248.48,2438.45
2253.0,2417.15
2257.52,2433.1
2262.04,2416.3
2266.56,2447.7
2271.07,2428.85
2275.58,2416.35
2280.09,2414.8
2284.6,2441.3
2289.1,2407.3
2293.6,2425.15
2298.1,2417.05
2302.6,2430.35
2307.09,2424.5
2311.58,2425.35
2316.07,2417.4
2320.55,2429.85
2325.03,2433.35
2329.51,2415.6
2333.99,2424.55
2338.46,2430.1
2342.93,2402.15
2347.4,2411.1
2351.87,2425.55
2356.33,2401.0
2360.79,2402.0
2365.25,2401.7
2369.71,2420.9
2374.16,2414.8
2378.61,2408.0
2383.06,2427.5
2387.5,2410.85
2391.94,2403.2
2396.38,2409.5
2400.82,2421.5
2405.26,2417.6
2409.69,2415.8
2414.12,2414.5
2418.54,2405.85
2422.97,2419.75
2427.39,2397.05
2431.81,2390.8
2436.22,2405.5
2440.64,2407.35
2445.05,2402.1
2449.46,2415.85
2453.86,2390.55
2458.27,2397.55
2462.67,2413.7
2467.06,2392.15
2471.46,2406.55
2475.85,2394.05
2480.24,2401.7
2484.63,2384.75
2489.02,2402.15
2493.4,2387.25
2497.78,2387.3
2502.16,2404.6
2506.53,2388.9
2510.9,2387.2
2515.27,2393.8
2519.64,2407.9
2524.0,2392.15
2528.37,2398.15
2532.73,2378.05
2537.08,2385.9
2541.44,2398.5
2545.79,2395.2
2550.14,2395.25
2554.48,2397.75
2558.83,2391.75
2563.17,2395.7
2567.51,2376.2
2571.85,2410.05
2576.18,2399.5
2580.51,2363.45
2584.84,2393.75
2589.17,2387.3
2593.49,2379.95
2597.81,2383.55
2602.13,2384.9
2606.45,2383.0
2610.76,2393.7
2615.07,2383.65
2619.38,2349.65
2623.69,2373.95
2627.99,2389.75
2632.29,2375.7
2636.59,2369.6
2640.89,2361.9
2645.18,2372.5
2649.47,2385.75
2653.76,2389.65
2658.05,2393.3
2662.33,2379.85
2666.61,2369.1
2670.89,2387.35
2675.17,2371.15
2679.44,2372.25
2683.71,2371.3
2687.98,2367.25
2692.25,2367.3
2696.51,2374.3
2700.77,2362.1
2705.03,2368.95
2709.29,2374.6
2713.54,2373.85
2717.79,2390.0
2722.04,2404.85
2726.29,2393.15
2730.53,2416.35
2734.77,2433.15
2739.01,2438.5
2743.25,2441.0
2747.48,2416.15
2751.71,2425.1
2755.94,2417.0
2760.17,2394.35
2764.39,2403.0
2768.61,2388.05
2772.83,2377.25
2777.05,2363.1
2781.27,2374.75
2785.48,2386.8
2789.69,2368.6
2793.89,2358.0
2798.1,2360.1
2802.3,2347.85
2806.5,2365.15
2810.7,2358.4
2814.89,2352.35
2819.09,2358.6
2823.28,2343.15
2827.46,2385.0
2831.65,2363.75
2835.83,2350.7
2840.01,2365.95
2844.19,2361.65
2848.37,2373.05
2852.54,2376.2
2856.71,2378.85
2860.88,2385.8
2865.05,2409.65
2869.21,2480.75
2873.37,2617.95
2877.53,2689.1
2881.69,2752.8
2885.84,2729.9
2889.99,2647.35
2894.14,2664.55
2898.29,2635.6
2902.43,2655.9
2906.58,2641.85
2910.72,2665.2
2914.85,2650.35
2918.99,2703.0
2923.12,2739.4
2927.25,2834.55
2931.38,2988.4
2935.5,3376.1
2939.63,4053.05
2943.75,4675.2
2947.87,4694.2
2951.98,4233.8
2956.1,3810.0
2960.21,3415.65
2964.32,3200.8
2968.42,3052.05
2972.53,2989.55
2976.63,2926.55
2980.73,2899.0
2984.83,2930.2
2988.92,2998.05
2993.01,3187.5
2997.1,3313.9
3001.19,3372.7
3005.28,3341.7
3009.36,3207.45
3013.44,3035.45
3017.52,2881.45
3021.6,2786.7
3025.67,2669.45
3029.74,2557.5
3033.81,2490.6
3037.88,2460.45
3041.94,2425.0
3046.01,2415.15
3050.07,2382.15
3054.12,2358.05
3058.18,2351.1
3062.23,2335.7
3066.28,2325.55
3070.33,2332.4
3074.38,2319.8
3078.42,2344.45
3082.46,2330.3
3086.5,2314.8
3090.54,2319.05
3094.57,2317.4
3098.6,2314.1
3102.63,2311.8
3106.66,2302.2
3110.69,2312.75
3114.71,2305.65
3118.73,2310.75
3122.75,2298.7
3126.77,2303.9
3130.78,2308.75
3134.79,2299.0
3138.8,2309.05
3142.81,2301.2
3146.81,2289.4
3150.82,2288.5
3154.82,2285.95
3158.81,2307.45
3162.81,2289.0
3166.8,2283.15
3170.79,2290.95
3174.78,2300.55
3178.77,2301.15
3182.75,2283.85
3186.74,2284.7
3190.72,2287.85
3194.69,2273.9
3198.67,2285.2
3202.64,2294.1
3206.61,2289.0
3210.58,2280.75
3214.55,2280.55
3218.51,2295.55
3222.47,2281.55
3226.43,2284.15
3230.39,2288.0
3234.35,2279.05
3238.3,2282.45
3242.25,2266.65
3246.2,2281.75
3250.15,2266.15
3254.09,2272.65
3258.03,2273.55
3261.97,2259.25
3265.91,2254.4
3269.84,2243.15
3273.78,2256.4
3277.71,2257.3
3281.64,2259.4
3285.56,2229.8
3289.49,2241.2
3293.41,2263.75
3297.33,2251.7
3301.25,2234.55
3305.16,2242.0
3309.07,2243.15
3312.99,2227.35
3316.89,2241.85
3320.8,2246.5
3324.7,2237.35
3328.61,2237.8
3332.51,2233.85
3336.4,2232.05
3340.3,2221.6
3344.19,2244.45
3348.08,2226.35
3351.97,2218.1
3355.86,2220.65
3359.74,2230.3
3363.63,2236.4
3367.51,2214.75
3371.39,2212.65
3375.26,2226.0
3379.13,2220.45
3383.01,2214.35
3386.88,2222.4
3390.74,2214.85
3394.61,2197.7
3398.47,2221.4
3402.33,2220.25
3406.19,2222.2
3410.05,2185.4
3413.9,2203.25
3417.75,2223.5
3421.6,2201.6
3425.45,2185.1
3429.3,2203.25
3433.14,2202.95
3436.98,2194.55
3440.82,2193.85
3444.66,2195.75
3448.49,2193.8
3452.32,2195.65
3456.15,2194.2
3459.98,2199.35
3463.81,2195.3
3467.63,2185.05
3471.46,2181.35
3475.28,2187.5
3479.09,2186.65
3482.91,2191.4
3486.72,2181.75
3490.53,2179.85
3494.34,2180.1
3498.15,2175.45
3501.96,2180.75
3505.76,2171.45
3509.56,2189.55
3513.36,2171.35
3517.15,2171.8
3520.95,2176.5
3524.74,2165.15
3528.53,2160.3
3532.32,2160.65
3536.11,2167.15
3539.89,2174.45
3543.67,2166.05
3547.45,2151.6
3551.23,2156.35
3555.0,2154.75
3558.78,2158.8
3562.55,2164.6
3566.32,2160.3
3570.09,2145.15
3573.85,2155.75
3577.61,2154.85
3581.37,2144.1
3585.13,2145.95
3588.89,2151.7
3592.64,2143.5
3596.4,2160.45
3600.15,2137.65
3603.9,2139.05
3607.64,2140.45
3611.39,2133.75
3615.13,2137.25
3618.87,2143.45
3622.61,2129.8
3626.34,2127.0
3630.08,2127.85
3633.81,2132.2
3637.54,2123.4
3641.27,2126.6
3644.99,2127.95
3648.72,2122.45
3652.44,2114.15
3656.16,2131.85
3659.87,2119.05
3663.59,2106.9
3665.45,2115.3