File: spectra/VLFR_06-PET_bio_Raman_fd25e5cc.csv
nm,Intensity
528.65,1851.75
528.819,1849.65
528.987,1850.15
529.155,1849.85
529.324,1850.3
529.492,1850.55
529.66,1851.2
529.829,1850.25
529.997,1849.7
530.165,1850.8
530.334,1851.75
530.502,1850.85
530.67,1850.6
530.839,1850.5
531.007,1851.95
531.175,1851.75
531.344,1852.5
531.512,1854.15
531.68,1864.55
531.848,2102.8
532.017,2623.1
532.185,2589.8
532.353,1905.4
532.521,1853.05
532.69,1851.3
532.858,1850.65
533.026,1853.1
533.194,1850.35
533.363,1853.6
533.531,1871.4
533.699,1970.3
533.867,2158.4
534.036,2292.75
534.204,2330.1
534.372,2293.85
534.54,2274.55
534.708,2266.5
534.877,2268.75
535.045,2249.45
535.213,2242.65
535.381,2248.1
535.549,2245.9
535.717,2227.0
535.886,2236.55
536.054,2204.8
536.222,2192.3
536.39,2180.65
536.558,2191.45
536.726,2188.75
536.894,2198.5
537.062,2185.3
537.231,2192.9
537.399,2208.5
537.567,2208.8
537.735,2192.45
537.903,2193.6
538.071,2207.6
538.239,2194.4
538.407,2199.15
538.575,2206.7
538.743,2230.85
538.911,2212.75
539.079,2209.65
539.247,2219.65
539.415,2221.95
539.583,2224.45
539.751,2224.7
539.919,2233.9
540.087,2245.2
540.255,2238.55
540.423,2225.75
540.591,2227.15
540.759,2247.8
540.927,2224.45
541.095,2233.95
541.263,2251.85
541.431,2233.95
541.599,2246.4
541.767,2245.4
541.935,2256.9
542.103,2251.3
542.271,2248.35
542.439,2257.9
542.607,2257.55
542.775,2257.0
542.943,2259.05
543.111,2246.75
543.279,2263.65
543.446,2257.65
543.614,2261.95
543.782,2263.3
543.95,2277.85
544.118,2275.4
544.286,2275.0
544.454,2262.2
544.622,2268.45
544.789,2276.75
544.957,2285.95
545.125,2285.8
545.293,2288.9
545.461,2266.95
545.629,2271.7
545.796,2300.0
545.964,2282.8
546.132,2288.1
546.3,2283.65
546.468,2295.8
546.635,2294.85
546.803,2306.4
546.971,2308.0
547.139,2289.0
547.306,2289.55
547.474,2286.65
547.642,2286.95
547.81,2300.15
547.977,2284.55
548.145,2294.55
548.313,2293.15
548.481,2316.6
548.648,2300.55
548.816,2300.45
548.984,2311.75
549.151,2315.35
549.319,2309.2
549.487,2293.8
549.655,2302.3
549.822,2311.55
549.99,2301.2
550.158,2294.75
550.325,2307.6
550.493,2341.05
550.66,2340.05
550.828,2318.65
550.996,2320.15
551.163,2314.8
551.331,2318.3
551.499,2327.25
551.666,2336.65
551.834,2347.35
552.001,2331.45
552.169,2327.15
552.337,2334.2
552.504,2325.1
552.672,2325.85
552.839,2337.6
553.007,2329.95
553.174,2322.6
553.342,2320.55
553.509,2339.3
553.677,2337.65
553.844,2323.6
554.012,2339.0
554.179,2353.55
554.347,2350.85
554.514,2348.05
554.682,2341.55
554.849,2357.6
555.017,2359.05
555.184,2346.35
555.352,2362.8
555.519,2353.7
555.687,2384.1
555.854,2365.2
556.022,2345.05
556.189,2366.7
556.357,2372.2
556.524,2380.9
556.691,2366.85
556.859,2367.5
557.026,2369.05
557.194,2392.3
557.361,2401.05
557.528,2447.0
557.696,2426.35
557.863,2394.3
558.031,2390.3
558.198,2385.75
558.365,2382.55
558.533,2381.85
558.7,2376.5
558.867,2368.55
559.035,2372.85
559.202,2385.95
559.369,2374.2
559.537,2390.7
559.704,2387.6
559.871,2387.6
560.038,2370.75
560.206,2385.0
560.373,2394.55
560.54,2387.7
560.708,2394.2
560.875,2414.05
561.042,2410.3
561.209,2395.0
561.377,2394.4
561.544,2395.6
561.711,2424.9
561.878,2423.3
562.045,2412.35
562.213,2419.05
562.38,2410.35
562.547,2405.7
562.714,2414.3
562.881,2428.35
563.049,2435.0
563.216,2430.5
563.383,2424.5
563.55,2414.25
563.717,2431.1
563.884,2443.7
564.052,2432.35
564.219,2439.85
564.386,2434.9
564.553,2443.0
564.72,2465.3
564.887,2491.45
565.054,2486.95
565.221,2500.15
565.388,2487.5
565.556,2479.6
565.723,2492.4
565.89,2482.85
566.057,2460.55
566.224,2478.95
566.391,2476.45
566.558,2474.6
566.725,2460.9
566.892,2487.9
567.059,2474.75
567.226,2465.3
567.393,2493.05
567.56,2480.8
567.727,2490.75
567.894,2494.05
568.061,2492.65
568.228,2489.3
568.395,2494.65
568.562,2495.0
568.729,2483.7
568.896,2485.05
569.063,2502.55
569.23,2506.8
569.396,2500.55
569.563,2517.5
569.73,2509.1
569.897,2526.65
570.064,2497.4
570.231,2530.45
570.398,2527.25
570.565,2543.85
570.732,2550.45
570.898,2558.8
571.065,2571.3
571.232,2596.35
571.399,2612.4
571.566,2596.3
571.733,2593.35
571.9,2564.5
572.066,2577.05
572.233,2544.2
572.4,2566.5
572.567,2555.0
572.734,2556.55
572.9,2540.65
573.067,2568.2
573.234,2544.75
573.401,2560.35
573.567,2547.0
573.734,2566.1
573.901,2564.5
574.068,2570.0
574.234,2580.4
574.401,2552.65
574.568,2561.8
574.734,2556.8
574.901,2571.3
575.068,2592.8
575.235,2560.6
575.401,2577.45
575.568,2597.8
575.735,2608.2
575.901,2592.1
576.068,2581.7
576.235,2598.05
576.401,2607.85
576.568,2620.4
576.734,2614.2
576.901,2620.75
577.068,2608.95
577.234,2624.2
577.401,2593.9
577.567,2611.0
577.734,2611.85
577.901,2618.8
578.067,2604.35
578.234,2585.4
578.4,2601.45
578.567,2637.05
578.733,2604.6
578.9,2594.85
579.066,2631.25
579.233,2621.55
579.399,2639.55
579.566,2629.6
579.732,2662.8
579.899,2614.4
580.065,2661.0
580.232,2646.05
580.398,2659.55
580.565,2658.05
580.731,2627.0
580.898,2650.55
581.064,2665.25
581.231,2682.0
581.397,2667.4
581.563,2682.05
581.73,2716.7
581.896,2799.5
582.063,2884.2
582.229,2878.15
582.395,2764.9
582.562,2696.85
582.728,2700.6
582.895,2657.15
583.061,2659.75
583.227,2653.3
583.394,2683.5
583.56,2687.3
583.726,2678.7
583.893,2684.95
584.059,2691.15
584.225,2683.7
584.391,2680.95
584.558,2697.6
584.724,2686.05
584.89,2680.2
585.057,2675.7
585.223,2699.4
585.389,2716.95
585.555,2778.15
585.722,2796.35
585.888,2820.85
586.054,2853.8
586.22,2790.5
586.386,2752.35
586.553,2735.4
586.719,2726.3
586.885,2698.7
587.051,2693.5
587.217,2699.85
587.384,2682.75
587.55,2694.4
587.716,2695.45
587.882,2671.55
588.048,2667.05
588.214,2711.95
588.38,2689.65
588.546,2696.1
588.713,2684.15
588.879,2692.15
589.045,2639.35
589.211,2678.25
589.377,2679.6
589.543,2647.65
589.709,2657.7
589.875,2672.1
590.041,2677.8
590.207,2696.0
590.373,2662.15
590.539,2688.95
590.705,2689.2
590.871,2675.0
591.037,2709.0
591.203,2686.6
591.369,2698.75
591.535,2679.65
591.701,2696.4
591.867,2719.35
592.033,2685.2
592.199,2689.85
592.365,2702.9
592.531,2683.7
592.697,2694.9
592.863,2707.7
593.029,2690.3
593.195,2686.05
593.361,2690.9
593.526,2675.55
593.692,2673.3
593.858,2703.1
594.024,2719.35
594.19,2693.6
594.356,2688.75
594.522,2678.0
594.687,2688.65
594.853,2665.1
595.019,2690.7
595.185,2725.95
595.351,2717.6
595.516,2702.0
595.682,2684.8
595.848,2694.2
596.014,2701.8
596.18,2722.25
596.345,2713.8
596.511,2720.8
596.677,2716.8
596.843,2677.4
597.008,2691.25
597.174,2709.6
597.34,2719.3
597.505,2694.65
597.671,2686.25
597.837,2723.9
598.002,2713.5
598.168,2669.0
598.334,2701.25
598.499,2718.95
598.665,2703.85
598.831,2717.55
598.996,2714.0
599.162,2705.3
599.328,2699.8
599.493,2707.55
599.659,2707.35
599.824,2718.25
599.99,2701.7
600.156,2699.55
600.321,2726.45
600.487,2697.95
600.652,2719.8
600.818,2701.95
600.983,2697.55
601.149,2713.4
601.314,2719.3
601.48,2691.6
601.645,2710.5
601.811,2729.65
601.976,2686.25
602.142,2677.45
602.307,2724.1
602.473,2703.2
602.638,2707.2
602.804,2686.8
602.969,2731.6
603.135,2696.55
603.3,2719.85
603.466,2704.05
603.631,2707.3
603.796,2711.2
603.962,2714.2
604.127,2692.9
604.293,2696.7
604.458,2715.65
604.623,2691.65
604.789,2693.2
604.954,2707.55
605.119,2723.0
605.285,2690.35
605.45,2674.8
605.615,2709.85
605.781,2706.45
605.946,2707.4
606.111,2686.45
606.277,2725.85
606.442,2691.65
606.607,2715.6
606.772,2710.9
606.938,2710.65
607.103,2721.65
607.268,2698.2
607.433,2692.95
607.599,2703.95
607.764,2678.3
607.929,2714.45
608.094,2713.1
608.259,2717.2
608.425,2684.65
608.59,2688.95
608.755,2689.8
608.92,2704.55
609.085,2679.35
609.25,2684.25
609.415,2668.05
609.581,2714.9
609.746,2705.95
609.911,2703.85
610.076,2676.5
610.241,2699.2
610.406,2703.5
610.571,2696.05
610.736,2698.35
610.901,2693.75
611.066,2702.55
611.231,2681.7
611.396,2690.95
611.561,2701.05
611.727,2683.25
611.892,2690.55
612.057,2692.2
612.222,2681.9
612.386,2684.65
612.551,2718.15
612.716,2699.65
612.881,2701.95
613.046,2689.35
613.211,2675.2
613.376,2693.65
613.541,2679.2
613.706,2671.5
613.871,2705.35
614.036,2721.5
614.201,2682.7
614.366,2693.6
614.531,2706.3
614.695,2716.5
614.86,2668.6
615.025,2685.6
615.19,2702.85
615.355,2699.85
615.52,2709.0
615.684,2662.3
615.849,2674.05
616.014,2682.8
616.179,2690.9
616.344,2684.0
616.508,2689.6
616.673,2720.85
616.838,2698.45
617.003,2669.6
617.168,2665.75
617.332,2698.05
617.497,2694.95
617.662,2698.95
617.826,2717.9
617.991,2699.45
618.156,2707.65
618.32,2697.55
618.485,2689.15
618.65,2684.4
618.814,2702.8
618.979,2701.95
619.144,2681.4
619.308,2702.75
619.473,2720.15
619.638,2694.55
619.802,2709.95
619.967,2725.55
620.131,2689.6
620.296,2697.2
620.461,2720.95
620.625,2710.35
620.79,2696.35
620.954,2688.25
621.119,2698.2
621.283,2710.85
621.448,2704.25
621.612,2685.4
621.777,2693.1
621.941,2684.0
622.106,2702.4
622.27,2694.05
622.435,2705.8
622.599,2714.8
622.764,2708.25
622.928,2701.55
623.093,2650.45
623.257,2695.45
623.422,2718.25
623.586,2707.8
623.75,2729.1
623.915,2692.75
624.079,2702.75
624.244,2714.35
624.408,2717.75
624.572,2686.25
624.737,2745.3
624.901,2703.0
625.065,2712.25
625.23,2701.45
625.394,2713.9
625.558,2687.1
625.723,2735.7
625.887,2675.8
626.051,2701.9
626.215,2750.1
626.38,2701.45
626.544,2710.4
626.708,2684.5
626.872,2704.95
627.037,2706.15
627.201,2713.2
627.365,2690.3
627.529,2741.35
627.693,2702.0
627.858,2704.75
628.022,2695.0
628.186,2701.55
628.35,2718.95
628.514,2737.05
628.678,2721.75
628.843,2752.25
629.007,2715.05
629.171,2708.7
629.335,2754.4
629.499,2758.15
629.663,2760.3
629.827,2690.9
629.991,2721.4
630.155,2738.75
630.319,2735.95
630.483,2733.95
630.647,2738.75
630.812,2742.35
630.976,2749.85
631.14,2765.35
631.304,2749.25
631.468,2748.55
631.632,2789.65
631.796,2767.45
631.959,2764.5
632.123,2807.75
632.287,2781.8
632.451,2773.4
632.615,2792.4
632.779,2777.0
632.943,2793.15
633.107,2759.35
633.271,2765.35
633.435,2764.3
633.599,2752.1
633.763,2760.55
633.926,2775.05
634.09,2760.95
634.254,2751.55
634.418,2770.65
634.582,2783.85
634.746,2768.55
634.909,2759.65
635.073,2734.95
635.237,2765.55
635.401,2772.6
635.564,2745.15
635.728,2760.75
635.892,2759.5
636.056,2762.25
636.219,2761.55
636.383,2816.65
636.547,2863.2
636.711,2787.95
636.874,2831.75
637.038,2780.4
637.202,2777.5
637.365,2761.2
637.529,2764.25
637.693,2770.8
637.856,2770.9
638.02,2775.1
638.184,2756.5
638.347,2746.95
638.511,2769.4
638.674,2772.15
638.838,2730.8
639.002,2770.25
639.165,2737.65
639.329,2741.05
639.492,2783.15
639.656,2759.6
639.819,2743.4
639.983,2741.35
640.146,2781.4
640.31,2771.85
640.473,2740.85
640.637,2755.95
640.8,2742.25
640.964,2750.7
641.127,2730.55
641.291,2731.5
641.454,2744.45
641.618,2739.05
641.781,2746.65
641.944,2725.55
642.108,2734.1
642.271,2733.95
642.435,2791.1
642.598,2728.3
642.761,2718.45
642.925,2738.25
643.088,2718.0
643.251,2740.75
643.415,2750.95
643.578,2749.9
643.741,2719.6
643.905,2754.1
644.068,2760.7
644.231,2734.8
644.394,2746.45
644.558,2716.5
644.721,2710.05
644.884,2730.4
645.047,2714.65
645.211,2734.95
645.374,2768.2
645.537,2731.2
645.7,2742.7
645.863,2702.75
646.027,2720.6
646.19,2750.9
646.353,2726.95
646.516,2684.2
646.679,2722.35
646.842,2685.15
647.005,2723.6
647.169,2726.15
647.332,2737.05
647.495,2693.55
647.658,2711.05
647.821,2695.4
647.984,2695.5
648.147,2722.05
648.31,2673.75
648.473,2691.6
648.636,2702.4
648.799,2668.7
648.962,2676.15
649.125,2734.7
649.288,2657.5
649.451,2659.55
649.614,2692.75
649.777,2698.05
649.94,2680.25
650.103,2659.45
650.266,2663.1
650.429,2716.05
650.592,2683.95
650.755,2675.15
650.918,2678.4
651.08,2690.4
651.243,2657.5
651.406,2700.65
651.569,2647.35
651.732,2657.65
651.895,2627.9
652.058,2690.85
652.22,2664.5
652.383,2649.25
652.546,2643.15
652.709,2686.65
652.872,2639.0
653.034,2645.3
653.197,2655.0
653.36,2622.8
653.523,2643.4
653.685,2630.15
653.848,2610.85
654.011,2641.0
654.173,2639.05
654.336,2652.2
654.499,2604.35
654.662,2618.5
654.824,2615.95
654.987,2637.95
655.149,2621.25
655.312,2641.9
655.475,2595.7
655.637,2615.95
655.8,2580.85
655.963,2600.15
656.125,2608.45
656.288,2590.35
656.45,2576.3
656.613,2562.8
656.775,2604.45
656.938,2568.0
657.1,2609.3
657.263,2586.95
657.425,2569.05
657.588,2600.2
657.75,2560.6
657.913,2580.55
658.075,2575.35
658.238,2581.05
658.4,2547.9
658.563,2564.85
658.725,2550.3
658.888,2545.8
659.05,2571.35
659.212,2556.0
659.375,2544.2
659.537,2545.15
659.7,2537.45
659.862,2535.0
660.024,2549.15
660.187,2575.5
660.349,2523.25
660.511,2543.55
660.674,2539.25
660.836,2532.1
660.998,2525.05
661.079,2498.5