File: spectra/VLFR_07-PET_nobio_Raman_6929e53a.csv
nm,Intensity
782.722,3748.02
782.997,3748.86
783.272,3748.8
783.547,3750.26
783.822,3758.84
784.097,3792.14
784.372,3915.4
784.647,5222.24
784.922,6750.98
785.197,6856.4
785.472,6556.06
785.747,4512.08
786.022,4025.56
786.297,3882.14
786.572,3799.08
786.847,3772.48
787.122,3768.1
787.397,3769.88
787.672,3800.72
787.947,3974.8
788.222,4389.7
788.496,4960.38
788.771,5406.28
789.046,5718.86
789.321,5866.94
789.596,5881.68
789.871,5796.54
790.146,5803.62
790.421,5777.36
790.695,5695.74
790.97,5658.56
791.245,5683.44
791.52,5626.3
791.795,5624.56
792.069,5580.1
792.344,5495.1
792.619,5509.06
792.894,5478.66
793.169,5479.78
793.443,5473.14
793.718,5473.38
793.993,5422.26
794.268,5403.88
794.542,5399.24
794.817,5423.82
795.092,5387.42
795.367,5354.74
795.641,5385.94
795.916,5392.48
796.191,5362.66
796.465,5336.78
796.74,5368.06
797.015,5380.16
797.29,5366.92
797.564,5338.72
797.839,5362.96
798.114,5371.76
798.388,5365.04
798.663,5358.12
798.937,5346.1
799.212,5336.18
799.487,5321.42
799.761,5344.86
800.036,5344.94
800.311,5338.72
800.585,5340.0
800.86,5356.08
801.134,5300.6
801.409,5301.9
801.683,5310.7
801.958,5320.28
802.233,5332.14
802.507,5304.42
802.782,5257.16
803.056,5270.64
803.331,5269.92
803.605,5258.9
803.88,5269.48
804.154,5234.06
804.429,5253.46
804.703,5241.52
804.978,5234.54
805.252,5219.02
805.527,5229.28
805.801,5214.42
806.076,5211.1
806.35,5211.78
806.624,5225.86
806.899,5190.22
807.173,5189.44
807.448,5176.78
807.722,5192.02
807.997,5179.4
808.271,5157.3
808.545,5158.84
808.82,5160.66
809.094,5149.92
809.368,5147.02
809.643,5095.64
809.917,5077.58
810.191,5104.2
810.466,5125.96
810.74,5126.66
811.014,5129.92
811.289,5089.14
811.563,5106.78
811.837,5084.72
812.112,5103.18
812.386,5074.2
812.66,5077.62
812.935,5110.3
813.209,5055.5
813.483,5043.36
813.757,5020.3
814.032,5007.2
814.306,5031.5
814.58,5030.42
814.854,5006.78
815.128,5000.86
815.403,4993.64
815.677,4989.84
815.951,4990.5
816.225,4979.04
816.499,4959.36
816.774,4963.64
817.048,4989.82
817.322,4985.54
817.596,4978.5
817.87,4928.46
818.144,4961.74
818.418,4954.34
818.693,4943.16
818.967,4950.82
819.241,4954.92
819.515,4922.6
819.789,4937.92
820.063,4907.6
820.337,4921.56
820.611,4961.4
820.885,4946.16
821.159,4926.18
821.433,4948.62
821.707,4906.72
821.981,4898.66
822.255,4875.42
822.529,4875.14
822.803,4867.56
823.077,4856.5
823.351,4875.74
823.625,4882.3
823.899,4853.76
824.173,4868.86
824.447,4864.04
824.721,4868.42
824.995,4871.54
825.269,4871.76
825.543,4857.92
825.817,4872.8
826.091,4904.0
826.365,4873.92
826.639,4842.9
826.913,4825.32
827.187,4846.54
827.46,4858.82
827.734,4840.52
828.008,4805.84
828.282,4775.44
828.556,4789.8
828.83,4780.38
829.104,4813.36
829.377,4813.4
829.651,4795.62
829.925,4786.26
830.199,4777.86
830.473,4780.82
830.746,4787.34
831.02,4807.1
831.294,4759.86
831.568,4765.1
831.841,4774.3
832.115,4744.46
832.389,4773.32
832.663,4783.28
832.936,4755.64
833.21,4725.12
833.484,4726.1
833.758,4734.86
834.031,4726.6
834.305,4711.72
834.579,4734.86
834.852,4743.08
835.126,4735.04
835.4,4726.94
835.673,4692.64
835.947,4688.3
836.22,4703.38
836.494,4717.2
836.768,4719.04
837.041,4729.94
837.315,4706.5
837.589,4715.48
837.862,4706.64
838.136,4698.8
838.409,4701.84
838.683,4707.86
838.956,4705.52
839.23,4696.42
839.503,4683.82
839.777,4696.28
840.05,4694.98
840.324,4686.94
840.598,4689.98
840.871,4686.34
841.144,4684.3
841.418,4707.8
841.691,4723.5
841.965,4712.32
842.238,4692.08
842.512,4668.24
842.785,4647.16
843.059,4649.84
843.332,4655.78
843.606,4672.16
843.879,4654.26
844.152,4640.64
844.426,4634.02
844.699,4632.86
844.973,4621.26
845.246,4608.42
845.519,4603.92
845.793,4602.26
846.066,4604.04
846.339,4603.56
846.613,4587.34
846.886,4586.42
847.159,4592.24
847.433,4579.18
847.706,4582.98
847.979,4597.08
848.252,4592.58
848.526,4581.38
848.799,4567.54
849.072,4562.78
849.345,4556.48
849.619,4545.0
849.892,4538.18
850.165,4555.38
850.438,4571.02
850.712,4565.46
850.985,4554.64
851.258,4547.88
851.531,4561.42
851.804,4537.12
852.078,4550.26
852.351,4552.62
852.624,4551.72
852.897,4569.58
853.17,4544.84
853.443,4527.9
853.716,4530.3
853.989,4522.66
854.263,4505.44
854.536,4489.36
854.809,4500.0
855.082,4506.72
855.355,4521.2
855.628,4532.24
855.901,4506.4
856.174,4497.52
856.447,4509.8
856.72,4503.3
856.993,4508.96
857.266,4508.38
857.539,4504.98
857.812,4516.3
858.085,4506.62
858.358,4517.66
858.631,4525.72
858.904,4524.64
859.177,4529.28
859.45,4523.56
859.723,4520.9
859.996,4509.88
860.269,4513.66
860.542,4500.08
860.815,4497.88
861.087,4500.32
861.36,4483.68
861.633,4496.48
861.906,4480.9
862.179,4479.62
862.452,4486.84
862.725,4473.3
862.997,4482.0
863.27,4470.9
863.543,4468.96
863.816,4468.52
864.089,4479.4
864.362,4479.58
864.634,4489.58
864.907,4470.6
865.18,4451.98
865.453,4461.7
865.725,4440.74
865.998,4426.22
866.271,4433.26
866.544,4441.4
866.816,4432.0
867.089,4414.48
867.362,4424.4
867.634,4434.36
867.907,4433.14
868.18,4438.7
868.452,4444.46
868.725,4434.5
868.998,4431.54
869.27,4439.2
869.543,4443.54
869.816,4424.98
870.088,4423.76
870.361,4436.42
870.633,4459.88
870.906,4458.4
871.179,4436.1
871.451,4450.48
871.724,4466.98
871.996,4468.78
872.269,4481.74
872.541,4479.48
872.814,4459.56
873.086,4468.5
873.359,4468.1
873.631,4464.32
873.904,4463.5
874.176,4449.54
874.449,4445.68
874.721,4440.76
874.994,4421.54
875.266,4410.78
875.539,4404.12
875.811,4398.9
876.084,4416.16
876.356,4426.38
876.628,4417.78
876.901,4413.04
877.173,4391.48
877.446,4392.58
877.718,4396.6
877.99,4373.32
878.263,4380.32
878.535,4401.98
878.807,4388.46
879.08,4381.88
879.352,4374.04
879.624,4367.36
879.897,4346.4
880.169,4357.5
880.441,4356.68
880.713,4352.22
880.986,4348.6
881.258,4365.72
881.53,4367.92
881.802,4374.18
882.075,4373.44
882.347,4362.52
882.619,4352.34
882.891,4356.7
883.164,4354.18
883.436,4373.88
883.708,4352.64
883.98,4360.04
884.252,4354.32
884.524,4337.98
884.797,4332.92
885.069,4339.46
885.341,4330.76
885.613,4335.34
885.885,4340.84
886.157,4346.02
886.429,4335.04
886.701,4333.34
886.973,4333.0
887.245,4315.76
887.517,4299.72
887.79,4301.74
888.062,4293.86
888.334,4310.58
888.606,4321.24
888.878,4313.62
889.15,4286.42
889.422,4296.88
889.694,4313.38
889.966,4297.16
890.238,4284.9
890.509,4286.52
890.781,4281.54
891.053,4280.42
891.325,4291.56
891.597,4285.62
891.869,4282.1
892.141,4270.5
892.413,4266.18
892.685,4279.68
892.957,4274.18
893.229,4266.14
893.5,4255.52
893.772,4253.6
894.044,4241.58
894.316,4233.08
894.588,4238.26
894.86,4241.64
895.131,4218.84
895.403,4228.26
895.675,4234.16
895.947,4227.86
896.218,4223.24
896.49,4219.28
896.762,4219.38
897.034,4220.0
897.305,4220.52
897.577,4251.7
897.849,4273.86
898.121,4290.86
898.392,4307.9
898.664,4291.34
898.936,4266.0
899.207,4248.54
899.479,4244.34
899.751,4222.76
900.022,4217.46
900.294,4206.98
900.565,4186.16
900.837,4177.78
901.109,4174.24
901.38,4181.34
901.652,4170.16
901.923,4162.76
902.195,4159.2
902.466,4166.28
902.738,4168.8
903.01,4171.6
903.281,4167.54
903.553,4175.76
903.824,4172.4
904.096,4173.98
904.367,4169.56
904.639,4164.74
904.91,4163.18
905.181,4165.04
905.453,4159.74
905.724,4157.1
905.996,4157.06
906.267,4158.9
906.539,4162.46
906.81,4177.5
907.081,4183.48
907.353,4185.0
907.624,4189.2
907.895,4187.9
908.167,4189.84
908.438,4184.9
908.71,4185.52
908.981,4179.18
909.252,4166.38
909.523,4156.54
909.795,4140.72
910.066,4115.92
910.337,4116.84
910.609,4111.48
910.88,4114.72
911.151,4108.64
911.422,4111.06
911.694,4097.3
911.965,4088.4
912.236,4079.38
912.507,4082.76
912.778,4086.8
913.05,4082.76
913.321,4081.76
913.592,4075.18
913.863,4073.38
914.134,4072.2
914.405,4053.32
914.677,4056.22
914.948,4065.96
915.219,4064.56
915.49,4074.96
915.761,4066.98
916.032,4057.58
916.303,4056.06
916.574,4059.02
916.845,4056.38
917.116,4052.84
917.387,4050.9
917.658,4050.04
917.929,4052.04
918.2,4048.86
918.471,4040.36
918.742,4044.7
919.013,4044.7
919.284,4047.26
919.555,4046.64
919.826,4054.12
920.097,4044.0
920.368,4043.0
920.639,4040.36
920.91,4042.92
921.181,4040.58
921.452,4041.44
921.722,4033.5
921.993,4028.88
922.264,4022.64
922.535,4019.94
922.806,4021.6
923.077,4017.86
923.347,4018.58
923.618,4018.24
923.889,4009.2
924.16,4011.6
924.431,4007.88
924.701,4000.8
924.972,4003.34
925.243,4003.18
925.514,4009.94
925.784,4007.9
926.055,4005.72
926.326,3998.84
926.596,3996.38
926.867,3994.7
927.138,3989.96
927.409,3991.04
927.679,3987.06
927.95,3983.32
928.22,3986.36
928.491,3985.14
928.762,3982.62
929.032,3973.78
929.303,3963.34
929.574,3958.18
929.844,3958.02
930.115,3952.36
930.385,3955.78
930.656,3956.8
930.926,3951.92
931.197,3945.68
931.467,3946.86
931.738,3936.56
932.008,3933.24
932.279,3937.44
932.549,3933.92
932.82,3930.6
933.09,3933.26
933.361,3931.28
933.631,3926.42
933.902,3926.58
934.172,3927.44
934.442,3930.14
934.713,3923.6
934.983,3917.34
935.254,3914.26
935.524,3916.2
935.794,3911.72
936.065,3913.64
936.335,3916.1
936.605,3918.1
936.876,3915.78
937.146,3909.96
937.416,3908.82
937.687,3910.98
937.957,3905.6
938.227,3910.38
938.497,3911.14
938.768,3907.88
939.038,3904.9
939.308,3907.88
939.578,3909.1
939.849,3906.28
940.119,3906.88
940.389,3905.6
940.659,3905.76
940.929,3903.2
941.199,3903.7
941.47,3897.9
941.74,3900.54
942.01,3898.36
942.28,3894.46
942.55,3895.92
942.82,3892.96
943.09,3890.6
943.36,3890.3
943.63,3890.92
943.9,3888.48
944.171,3887.98
944.441,3885.0
944.711,3885.02
944.981,3885.32
945.251,3883.42
945.521,3881.9
945.791,3878.4
946.061,3876.74
946.331,3876.74
946.6,3880.76
946.87,3881.52
947.14,3876.02
947.41,3869.18
947.68,3865.38
947.95,3873.28
948.22,3874.92
948.49,3873.02
948.76,3871.26
949.03,3870.8
949.299,3871.54
949.569,3867.86
949.839,3868.16
950.109,3872.24
950.379,3866.96
950.649,3864.22
950.918,3864.16
951.188,3860.76
951.458,3860.68
951.728,3861.32
951.997,3860.8
952.267,3859.6
952.537,3860.48
952.807,3856.24
953.076,3858.78
953.346,3857.44
953.616,3857.72
953.885,3857.48
954.155,3857.06
954.425,3857.84
954.694,3856.06
954.964,3855.72
955.234,3853.24
955.503,3850.12
955.773,3850.44
956.042,3851.46
956.312,3853.04
956.582,3848.2
956.851,3847.26
957.121,3847.62
957.39,3849.16
957.66,3850.06
957.929,3849.34
958.199,3843.38
958.468,3843.18
958.738,3841.56
959.007,3840.42
959.277,3841.6
959.546,3842.1
959.816,3842.4
960.085,3841.24
960.354,3840.42
960.624,3839.52
960.893,3839.3
961.163,3841.5
961.432,3841.0
961.701,3839.32
961.971,3835.76
962.24,3834.22
962.509,3838.18
962.779,3836.28
963.048,3834.68
963.317,3834.22
963.587,3834.86
963.856,3836.12
964.125,3835.62
964.394,3835.0
964.664,3833.22
964.933,3833.6
965.202,3831.9
965.471,3830.36
965.741,3829.78
966.01,3829.4
966.279,3830.02
966.548,3830.44
966.817,3832.42
967.086,3833.02
967.356,3831.16
967.625,3830.1
967.894,3831.16
968.163,3829.9
968.432,3828.86
968.701,3828.58
968.97,3828.04
969.239,3826.3
969.508,3828.04
969.777,3827.16
970.047,3824.04
970.316,3825.84
970.585,3825.02
970.854,3827.1
971.123,3825.1
971.392,3824.96
971.66,3825.86
971.929,3825.92
972.198,3824.54
972.467,3824.1
972.736,3820.24
973.005,3819.4
973.274,3817.46
973.543,3816.82
973.812,3817.04
974.081,3817.44
974.35,3815.92
974.618,3815.46
974.887,3815.78
975.156,3814.12
975.425,3812.12
975.694,3813.4
975.963,3815.58
976.231,3814.82
976.5,3812.54
976.769,3812.32
977.038,3810.82
977.306,3810.86
977.575,3811.8
977.844,3811.26
978.113,3811.06
978.381,3811.34
978.65,3809.58
978.919,3806.74
979.187,3808.14
979.456,3809.76
979.725,3809.3
979.993,3808.84
980.262,3809.54
980.53,3809.52
980.799,3805.84
981.068,3805.46
981.336,3805.7
981.605,3806.62
981.873,3805.54
982.142,3805.82
982.41,3806.06
982.679,3805.88
982.947,3804.38
983.216,3805.04
983.484,3805.32
983.753,3805.86
984.021,3802.78
984.29,3801.4
984.558,3801.06
984.827,3800.92
985.095,3801.3
985.364,3801.7
985.632,3800.8
985.9,3801.76
986.169,3799.38
986.437,3800.34
986.705,3799.56
986.974,3799.16
987.242,3799.42
987.51,3800.84
987.779,3799.5
988.047,3796.58
988.315,3797.52
988.584,3799.38
988.852,3798.42
989.12,3797.66
989.388,3797.7
989.657,3797.14
989.925,3794.38
990.193,3794.98
990.461,3793.74
990.73,3794.78
990.998,3795.6
991.266,3793.26
991.534,3791.72
991.802,3791.42
992.07,3792.84
992.338,3791.64
992.607,3791.26
992.875,3792.54
993.143,3790.42
993.411,3789.72
993.679,3789.6
993.947,3789.44
994.215,3787.52
994.483,3787.46
994.751,3788.92
995.019,3790.44
995.287,3789.54
995.555,3788.36
995.823,3787.8
996.091,3787.5
996.359,3787.96
996.627,3789.68
996.895,3786.58
997.163,3785.26
997.431,3786.68
997.698,3784.58
997.966,3785.6
998.234,3784.74
998.502,3785.88
998.77,3785.34
999.038,3783.42
999.306,3784.7
999.573,3783.4
999.841,3782.16
1000.11,3780.62
1000.38,3781.14
1000.64,3782.06
1000.91,3780.88
1001.18,3781.04
1001.45,3780.28
1001.72,3782.34
1001.98,3781.84
1002.25,3781.5
1002.52,3780.02
1002.79,3778.16
1003.05,3777.74
1003.32,3779.9
1003.59,3778.48
1003.86,3779.36
1004.12,3777.96
1004.39,3779.14
1004.66,3776.32
1004.93,3775.8
1005.19,3776.38
1005.46,3775.04
1005.73,3774.42
1006.0,3774.76
1006.27,3774.18
1006.53,3774.64
1006.8,3773.86
1007.07,3774.4
1007.33,3774.82
1007.6,3773.64
1007.87,3774.32
1008.14,3773.46
1008.4,3774.06
1008.67,3772.88
1008.94,3771.94
1009.21,3772.64
1009.47,3771.82
1009.74,3772.9
1010.01,3771.82
1010.28,3772.1
1010.54,3771.7
1010.81,3771.72
1011.08,3770.56
1011.35,3770.66
1011.61,3771.1
1011.88,3770.34
1012.15,3770.5
1012.41,3770.14
1012.68,3770.82
1012.95,3771.3
1013.22,3769.16
1013.48,3770.4
1013.75,3771.9
1014.02,3770.44
1014.29,3769.22
1014.55,3768.74
1014.82,3768.1
1015.09,3768.28
1015.35,3769.78
1015.62,3768.82
1015.89,3768.56
1016.16,3768.68
1016.42,3768.4
1016.69,3766.38
1016.96,3766.88
1017.22,3767.34
1017.49,3767.58
1017.76,3766.48
1018.02,3767.06
1018.29,3767.08
1018.56,3766.6
1018.83,3766.72
1019.09,3765.58
1019.36,3765.82
1019.63,3766.42
1019.89,3766.44
1020.16,3765.28
1020.43,3764.5
1020.69,3764.46
1020.96,3766.56
1021.23,3766.32
1021.49,3765.38
1021.76,3765.58
1022.03,3764.88
1022.3,3765.84
1022.56,3766.22
1022.83,3766.7
1023.1,3765.78
1023.36,3766.32
1023.63,3766.48
1023.9,3764.66
1024.16,3764.7
1024.43,3764.62
1024.7,3764.1
1024.96,3764.46
1025.23,3764.46
1025.5,3762.74
1025.76,3763.5
1026.03,3762.56
1026.3,3762.74
1026.56,3761.34
1026.83,3760.4
1027.1,3760.2
1027.36,3760.1
1027.63,3759.56
1027.9,3760.86
1028.16,3760.22
1028.43,3759.9
1028.7,3758.92
1028.96,3759.5
1029.23,3758.74
1029.49,3759.4
1029.76,3759.42
1030.03,3758.32
1030.29,3759.08
1030.56,3758.46
1030.83,3757.48
1031.09,3758.7
1031.36,3757.46
1031.63,3757.6
1031.89,3756.72
1032.16,3758.98
1032.43,3758.34
1032.69,3757.72
1032.96,3757.36
1033.22,3758.38
1033.49,3756.74
1033.76,3757.96
1034.02,3757.76
1034.29,3757.84
1034.56,3756.18
1034.82,3758.3
1035.09,3758.28
1035.35,3757.98
1035.62,3757.68
1035.89,3757.6
1036.15,3757.64
1036.42,3757.06
1036.69,3757.06
1036.95,3756.88
1037.22,3755.12
1037.48,3755.94
1037.75,3756.4
1038.02,3756.18
1038.28,3755.38
1038.55,3754.68
1038.81,3754.92
1039.08,3755.9
1039.35,3753.64
1039.61,3754.34
1039.88,3755.04
1040.14,3755.06
1040.41,3754.42
1040.68,3753.8
1040.94,3753.92
1041.21,3753.8
1041.47,3753.72
1041.74,3754.32
1042.01,3753.32
1042.27,3753.22
1042.54,3752.44
1042.8,3753.34
1043.07,3754.02
1043.34,3753.62
1043.6,3753.72
1043.87,3753.56
1044.13,3752.52
1044.4,3754.36
1044.67,3751.74
1044.93,3752.82
1045.2,3752.56
1045.46,3752.44
1045.73,3752.9
1045.99,3752.28
1046.26,3751.44
1046.53,3751.94
1046.79,3752.98
1047.06,3752.22
1047.32,3751.98
1047.59,3751.64
1047.85,3751.82
1048.12,3751.44
1048.38,3752.52
1048.65,3752.48
1048.92,3751.72
1049.18,3751.56
1049.45,3751.4
1049.71,3751.68
1049.98,3751.1
1050.24,3751.04
1050.51,3751.96
1050.77,3752.7
1051.04,3751.54
1051.31,3751.7
1051.57,3752.04
1051.84,3751.7
1052.1,3751.72
1052.37,3751.76
1052.63,3751.22
1052.9,3751.64
1053.16,3751.22
1053.43,3751.28
1053.69,3750.26
1053.96,3750.96
1054.23,3749.7
1054.49,3750.86
1054.76,3750.9
1055.02,3751.16
1055.29,3750.98
1055.55,3751.66
1055.82,3750.16
1056.08,3751.38
1056.35,3750.32
1056.61,3751.94
1056.88,3751.06
1057.14,3750.4
1057.41,3750.58
1057.67,3750.0
1057.94,3749.98
1058.2,3749.88
1058.47,3749.7
1058.73,3749.38
1059.0,3750.26
1059.26,3749.68
1059.53,3750.1