File: spectra/VLFR_02-HDPE_nobio_Raman_e4d2c6ec.csv
nm,Intensity
528.65,1833.65
528.819,1832.8
528.987,1833.35
529.155,1832.7
529.324,1833.15
529.492,1832.6
529.66,1833.1
529.829,1834.95
529.997,1833.6
530.165,1833.7
530.334,1834.2
530.502,1835.25
530.67,1833.65
530.839,1832.4
531.007,1833.35
531.175,1833.45
531.344,1833.8
531.512,1837.15
531.68,1844.15
531.848,1984.7
532.017,2578.75
532.185,2477.2
532.353,1870.35
532.521,1834.2
532.69,1834.9
532.858,1834.0
533.026,1833.45
533.194,1834.6
533.363,1835.1
533.531,1848.6
533.699,1911.45
533.867,2016.95
534.036,2074.4
534.204,2086.1
534.372,2067.45
534.54,2068.75
534.708,2073.95
534.877,2081.25
535.045,2063.3
535.213,2046.9
535.381,2039.1
535.549,2011.55
535.717,1984.65
535.886,1966.9
536.054,1965.65
536.222,1961.05
536.39,1958.7
536.558,1950.15
536.726,1955.8
536.894,1945.75
537.062,1954.1
537.231,1951.1
537.399,1950.05
537.567,1957.5
537.735,1958.7
537.903,1956.15
538.071,1953.2
538.239,1940.95
538.407,1943.15
538.575,1934.7
538.743,1932.25
538.911,1927.8
539.079,1926.35
539.247,1924.75
539.415,1923.85
539.583,1921.2
539.751,1922.85
539.919,1917.25
540.087,1920.05
540.255,1915.2
540.423,1916.8
540.591,1914.3
540.759,1916.4
540.927,1915.15
541.095,1919.65
541.263,1915.3
541.431,1914.25
541.599,1913.55
541.767,1915.55
541.935,1912.45
542.103,1914.85
542.271,1914.05
542.439,1918.15
542.607,1918.35
542.775,1916.2
542.943,1910.95
543.111,1916.2
543.279,1913.9
543.446,1913.3
543.614,1915.3
543.782,1918.75
543.95,1913.0
544.118,1913.3
544.286,1912.2
544.454,1912.2
544.622,1910.4
544.789,1911.8
544.957,1914.35
545.125,1914.05
545.293,1916.3
545.461,1912.4
545.629,1914.2
545.796,1912.0
545.964,1915.25
546.132,1912.55
546.3,1913.2
546.468,1910.95
546.635,1913.6
546.803,1919.75
546.971,1921.3
547.139,1916.25
547.306,1914.3
547.474,1918.0
547.642,1919.0
547.81,1913.5
547.977,1914.8
548.145,1917.35
548.313,1916.45
548.481,1915.15
548.648,1910.55
548.816,1910.3
548.984,1916.6
549.151,1910.55
549.319,1917.0
549.487,1918.35
549.655,1918.65
549.822,1917.8
549.99,1917.9
550.158,1916.55
550.325,1916.25
550.493,1918.5
550.66,1916.45
550.828,1923.35
550.996,1915.1
551.163,1918.75
551.331,1921.05
551.499,1924.2
551.666,1920.95
551.834,1922.05
552.001,1920.75
552.169,1926.15
552.337,1923.5
552.504,1918.2
552.672,1919.65
552.839,1924.1
553.007,1927.75
553.174,1934.25
553.342,1932.7
553.509,1933.7
553.677,1934.85
553.844,1935.7
554.012,1937.2
554.179,1944.3
554.347,1940.65
554.514,1945.45
554.682,1938.3
554.849,1942.35
555.017,1943.1
555.184,1946.85
555.352,1947.55
555.519,1944.05
555.687,1944.8
555.854,1948.4
556.022,1951.3
556.189,1948.45
556.357,1952.3
556.524,1954.95
556.691,1958.7
556.859,1962.9
557.026,1963.9
557.194,1967.1
557.361,1979.8
557.528,1971.85
557.696,1975.1
557.863,1983.7
558.031,1987.7
558.198,1988.25
558.365,1985.65
558.533,1991.75
558.7,1988.35
558.867,1987.55
559.035,1976.9
559.202,1980.4
559.369,1975.85
559.537,1980.65
559.704,1982.05
559.871,1979.45
560.038,1974.5
560.206,1971.45
560.373,1971.8
560.54,1977.3
560.708,1973.7
560.875,1975.6
561.042,1979.2
561.209,1980.4
561.377,1979.35
561.544,1985.5
561.711,1985.45
561.878,1985.8
562.045,1988.75
562.213,1993.95
562.38,1997.45
562.547,2000.55
562.714,2007.55
562.881,2005.45
563.049,2012.55
563.216,2021.9
563.383,2036.45
563.55,2066.75
563.717,2183.8
563.884,2471.55
564.052,2662.5
564.219,2362.05
564.386,2152.0
564.553,2127.6
564.72,2121.0
564.887,2106.25
565.054,2078.4
565.221,2063.25
565.388,2068.5
565.556,2084.75
565.723,2140.65
565.89,2330.0
566.057,2722.55
566.224,2822.3
566.391,2335.15
566.558,2106.35
566.725,2060.15
566.892,2057.35
567.059,2056.55
567.226,2081.75
567.393,2111.7
567.56,2103.2
567.727,2059.0
567.894,2046.35
568.061,2039.75
568.228,2032.95
568.395,2046.6
568.562,2037.95
568.729,2040.65
568.896,2049.7
569.063,2047.3
569.23,2062.2
569.396,2054.25
569.563,2055.9
569.73,2072.8
569.897,2070.4
570.064,2069.35
570.231,2087.4
570.398,2102.55
570.565,2122.4
570.732,2134.55
570.898,2151.3
571.065,2176.3
571.232,2360.65
571.399,2857.1
571.566,3126.05
571.733,2585.7
571.9,2270.45
572.066,2212.2
572.233,2180.9
572.4,2155.65
572.567,2149.75
572.734,2144.0
572.9,2128.0
573.067,2136.0
573.234,2140.5
573.401,2135.65
573.567,2164.75
573.734,2188.45
573.901,2215.5
574.068,2215.7
574.234,2178.35
574.401,2171.85
574.568,2166.75
574.734,2178.5
574.901,2209.45
575.068,2226.95
575.235,2358.15
575.401,2612.8
575.568,2728.9
575.735,2555.85
575.901,2570.3
576.068,2731.85
576.235,2972.3
576.401,2918.75
576.568,2776.6
576.734,2727.75
576.901,2755.45
577.068,2739.1
577.234,2662.7
577.401,2545.1
577.567,2466.6
577.734,2447.55
577.901,2447.85
578.067,2427.15
578.234,2435.55
578.4,2454.5
578.567,2469.45
578.733,2476.3
578.9,2499.1
579.066,2513.85
579.233,2525.1
579.399,2553.15
579.566,2587.4
579.732,2588.75
579.899,2620.65
580.065,2631.15
580.232,2669.85
580.398,2668.0
580.565,2673.3
580.731,2730.2
580.898,2741.7
581.064,2766.55
581.231,2764.75
581.397,2820.95
581.563,2806.5
581.73,2848.55
581.896,2863.55
582.063,2870.15
582.229,2910.85
582.395,2918.9
582.562,2945.4
582.728,2988.45
582.895,2968.55
583.061,3006.65
583.227,3004.3
583.394,3070.2
583.56,3049.75
583.726,3056.55
583.893,3151.55
584.059,3137.75
584.225,3133.9
584.391,3159.3
584.558,3186.25
584.724,3198.35
584.89,3227.2
585.057,3197.05
585.223,3244.2
585.389,3267.75
585.555,3219.6
585.722,3274.55
585.888,3292.0
586.054,3341.25
586.22,3353.4
586.386,3329.5
586.553,3392.45
586.719,3421.9
586.885,3407.7
587.051,3413.95
587.217,3467.4
587.384,3453.65
587.55,3501.0
587.716,3508.3
587.882,3532.45
588.048,3544.9
588.214,3576.0
588.38,3576.45
588.546,3600.45
588.713,3598.35
588.879,3659.05
589.045,3652.0
589.211,3656.8
589.377,3662.7
589.543,3713.7
589.709,3684.65
589.875,3744.7
590.041,3742.3
590.207,3732.95
590.373,3793.75
590.539,3853.35
590.705,3824.3
590.871,3803.95
591.037,3865.95
591.203,3958.05
591.369,3914.65
591.535,3877.05
591.701,3973.95
591.867,4016.1
592.033,3960.85
592.199,4032.9
592.365,4029.1
592.531,3967.05
592.697,4008.95
592.863,4082.75
593.029,4001.25
593.195,4081.45
593.361,4031.7
593.526,4055.95
593.692,4075.2
593.858,4102.7
594.024,4123.8
594.19,4098.0
594.356,4146.7
594.522,4161.4
594.687,4103.2
594.853,4172.65
595.019,4165.4
595.185,4183.55
595.351,4162.05
595.516,4260.85
595.682,4208.25
595.848,4267.35
596.014,4221.25
596.18,4295.8
596.345,4259.05
596.511,4330.2
596.677,4292.85
596.843,4300.1
597.008,4281.55
597.174,4370.9
597.34,4320.6
597.505,4309.45
597.671,4267.7
597.837,4289.5
598.002,4392.1
598.168,4407.35
598.334,4345.0
598.499,4348.5
598.665,4415.95
598.831,4472.85
598.996,4440.75
599.162,4393.85
599.328,4449.5
599.493,4450.3
599.659,4478.1
599.824,4368.8
599.99,4470.7
600.156,4477.8
600.321,4427.55
600.487,4463.2
600.652,4509.6
600.818,4423.9
600.983,4420.65
601.149,4444.0
601.314,4436.45
601.48,4448.95
601.645,4403.95
601.811,4410.45
601.976,4427.15
602.142,4447.2
602.307,4407.2
602.473,4399.5
602.638,4292.15
602.804,4304.4
602.969,4323.25
603.135,4379.5
603.3,4278.65
603.466,4300.3
603.631,4231.15
603.796,4257.75
603.962,4183.3
604.127,4162.5
604.293,4165.85
604.458,4133.0
604.623,4104.85
604.789,4088.3
604.954,4030.5
605.119,4035.3
605.285,4046.15
605.45,3996.1
605.615,3944.2
605.781,3952.6
605.946,3931.15
606.111,3905.05
606.277,3843.75
606.442,3819.45
606.607,3850.05
606.772,3825.4
606.938,3771.9
607.103,3735.35
607.268,3725.75
607.433,3700.45
607.599,3686.4
607.764,3708.65
607.929,3628.1
608.094,3637.6
608.259,3600.6
608.425,3509.35
608.59,3591.9
608.755,3562.2
608.92,3493.1
609.085,3455.3
609.25,3438.85
609.415,3458.35
609.581,3442.3
609.746,3416.2
609.911,3434.25
610.076,3376.15
610.241,3382.6
610.406,3342.3
610.571,3373.8
610.736,3351.3
610.901,3342.4
611.066,3307.0
611.231,3276.25
611.396,3301.35
611.561,3296.7
611.727,3235.5
611.892,3225.35
612.057,3258.7
612.222,3267.5
612.386,3209.35
612.551,3176.35
612.716,3154.05
612.881,3149.55
613.046,3122.85
613.211,3121.75
613.376,3089.15
613.541,3121.25
613.706,3121.65
613.871,3089.7
614.036,3059.8
614.201,3066.0
614.366,3084.8
614.531,3056.6
614.695,3034.0
614.86,3003.7
615.025,3017.7
615.19,3010.4
615.355,3032.6
615.52,3012.85
615.684,2997.0
615.849,2964.7
616.014,2948.05
616.179,2961.2
616.344,2979.3
616.508,2898.85
616.673,2926.65
616.838,2943.3
617.003,2929.6
617.168,2930.9
617.332,2951.7
617.497,2921.45
617.662,2891.45
617.826,2914.3
617.991,2886.45
618.156,2916.15
618.32,2883.2
618.485,2871.8
618.65,2871.0
618.814,2858.55
618.979,2850.8
619.144,2849.15
619.308,2868.45
619.473,2867.6
619.638,2849.0
619.802,2855.85
619.967,2836.55
620.131,2851.8
620.296,2838.95
620.461,2812.9
620.625,2834.65
620.79,2805.6
620.954,2832.55
621.119,2841.9
621.283,2866.75
621.448,2895.4
621.612,2897.2
621.777,2942.9
621.941,2985.55
622.106,3032.3
622.27,3039.35
622.435,2996.1
622.599,2936.8
622.764,2861.85
622.928,2822.35
623.093,2812.85
623.257,2777.7
623.422,2773.15
623.586,2758.45
623.75,2760.15
623.915,2729.15
624.079,2754.4
624.244,2764.6
624.408,2735.65
624.572,2746.75
624.737,2731.55
624.901,2740.05
625.065,2741.5
625.23,2745.7
625.394,2768.2
625.558,2771.5
625.723,2778.6
625.887,2809.85
626.051,2835.55
626.215,2934.6
626.38,3123.65
626.544,3451.75
626.708,4030.3
626.872,5049.4
627.037,6068.85
627.201,6488.65
627.365,6222.25
627.529,5698.25
627.693,5094.0
627.858,4827.0
628.022,4765.8
628.186,5186.9
628.35,6069.0
628.514,6865.7
628.678,6333.65
628.843,5312.95
629.007,4892.4
629.171,4743.5
629.335,4579.7
629.499,4352.2
629.663,4216.9
629.827,3962.1
629.991,3883.75
630.155,3859.3
630.319,3832.25
630.483,3772.85
630.647,3598.8
630.812,3411.3
630.976,3224.9
631.14,3027.1
631.304,2918.3
631.468,2865.0
631.632,2814.3
631.796,2782.15
631.959,2808.1
632.123,2777.55
632.287,2752.15
632.451,2752.05
632.615,2767.25
632.779,2767.7
632.943,2755.5
633.107,2735.05
633.271,2741.55
633.435,2746.75
633.599,2752.5
633.763,2733.7
633.926,2744.45
634.09,2725.15
634.254,2719.05
634.418,2754.6
634.582,2701.8
634.746,2708.45
634.909,2748.75
635.073,2719.55
635.237,2738.3
635.401,2716.35
635.564,2740.25
635.728,2717.3
635.892,2696.7
636.056,2710.35
636.219,2716.7
636.383,2736.5
636.547,2722.35
636.711,2733.95
636.874,2701.3
637.038,2745.3
637.202,2716.1
637.365,2733.75
637.529,2696.25
637.693,2724.0
637.856,2689.1
638.02,2681.55
638.184,2728.3
638.347,2726.0
638.511,2696.9
638.674,2710.25
638.838,2734.35
639.002,2703.45
639.165,2714.7
639.329,2720.65
639.492,2684.35
639.656,2727.7
639.819,2733.05
639.983,2696.7
640.146,2679.1
640.31,2731.7
640.473,2713.8
640.637,2701.7
640.8,2694.2
640.964,2700.8
641.127,2702.65
641.291,2689.3
641.454,2732.4
641.618,2707.2
641.781,2674.5
641.944,2730.7
642.108,2704.35
642.271,2711.05
642.435,2729.05
642.598,2692.25
642.761,2694.15
642.925,2719.75
643.088,2703.75
643.251,2713.65
643.415,2697.45
643.578,2701.4
643.741,2699.2
643.905,2689.3
644.068,2717.45
644.231,2683.95
644.394,2702.65
644.558,2686.2
644.721,2695.85
644.884,2695.2
645.047,2705.1
645.211,2731.75
645.374,2672.4
645.537,2726.0
645.7,2691.55
645.863,2679.95
646.027,2692.75
646.19,2681.45
646.353,2673.5
646.516,2705.65
646.679,2703.7
646.842,2677.8
647.005,2676.65
647.169,2696.4
647.332,2667.8
647.495,2667.35
647.658,2673.55
647.821,2656.8
647.984,2680.8
648.147,2686.25
648.31,2635.8
648.473,2644.6
648.636,2664.2
648.799,2636.95
648.962,2671.15
649.125,2650.15
649.288,2616.55
649.451,2608.45
649.614,2645.2
649.777,2648.8
649.94,2633.15
650.103,2599.5
650.266,2635.8
650.429,2640.35
650.592,2613.6
650.755,2593.0
650.918,2611.5
651.08,2600.35
651.243,2607.3
651.406,2607.1
651.569,2584.6
651.732,2596.55
651.895,2580.4
652.058,2595.7
652.22,2610.95
652.383,2616.3
652.546,2545.65
652.709,2577.7
652.872,2569.8
653.034,2584.0
653.197,2562.6
653.36,2576.05
653.523,2566.35
653.685,2555.35
653.848,2543.2
654.011,2547.65
654.173,2516.35
654.336,2515.2
654.499,2553.1
654.662,2536.35
654.824,2529.65
654.987,2507.95
655.149,2498.0
655.312,2534.15
655.475,2505.8
655.637,2492.2
655.8,2495.95
655.963,2498.3
656.125,2479.6
656.288,2474.2
656.45,2468.6
656.613,2464.6
656.775,2437.8
656.938,2468.3
657.1,2457.3
657.263,2474.75
657.425,2432.8
657.588,2442.45
657.75,2449.05
657.913,2433.45
658.075,2444.5
658.238,2412.2
658.4,2393.5
658.563,2418.1
658.725,2401.95
658.888,2402.5
659.05,2413.1
659.212,2357.6
659.375,2364.2
659.537,2361.8
659.7,2363.85
659.862,2352.75
660.024,2349.65
660.187,2313.0
660.349,2346.25
660.511,2326.15
660.674,2340.9
660.836,2319.35
660.998,2306.05
661.079,2291.95