File: spectra/VLFR_02-HDPE_bio_Raman_8a0b2183.csv
nm,Intensity
528.626,1868.65
528.795,1869.88
528.963,1868.75
529.132,1870.03
529.3,1869.65
529.469,1868.78
529.637,1869.1
529.806,1869.25
529.974,1868.85
530.143,1868.57
530.311,1868.97
530.48,1870.57
530.648,1870.43
530.816,1869.75
530.985,1869.97
531.153,1869.78
531.322,1872.9
531.49,1875.05
531.658,1895.88
531.827,2203.38
531.995,3360.18
532.164,3190.18
532.332,2108.5
532.5,1873.0
532.669,1870.97
532.837,1869.47
533.006,1870.95
533.174,1871.03
533.342,1871.35
533.511,1879.82
533.679,1937.63
533.847,2069.55
534.016,2170.27
534.184,2210.8
534.352,2216.02
534.521,2217.38
534.689,2224.3
534.857,2231.68
535.025,2233.45
535.194,2248.6
535.362,2251.0
535.53,2238.5
535.699,2236.93
535.867,2226.9
536.035,2221.02
536.203,2224.55
536.372,2225.48
536.54,2226.45
536.708,2226.3
536.876,2235.35
537.044,2234.8
537.213,2235.5
537.381,2238.73
537.549,2254.4
537.717,2254.4
537.885,2251.93
538.054,2243.43
538.222,2237.13
538.39,2247.75
538.558,2252.75
538.726,2259.4
538.894,2260.65
539.063,2264.77
539.231,2269.15
539.399,2270.6
539.567,2271.38
539.735,2274.55
539.903,2276.52
540.071,2279.1
540.239,2290.85
540.408,2299.23
540.576,2301.05
540.744,2316.95
540.912,2327.98
541.08,2341.3
541.248,2347.27
541.416,2340.98
541.584,2340.02
541.752,2343.1
541.92,2352.8
542.088,2353.0
542.256,2368.32
542.424,2360.3
542.592,2366.75
542.76,2364.23
542.928,2377.65
543.096,2377.45
543.264,2355.98
543.432,2343.07
543.6,2336.65
543.768,2358.95
543.936,2357.4
544.104,2364.7
544.272,2365.23
544.44,2364.75
544.608,2368.38
544.776,2378.77
544.944,2385.57
545.112,2387.6
545.28,2385.0
545.448,2396.52
545.616,2372.68
545.784,2360.8
545.951,2359.75
546.119,2357.27
546.287,2359.57
546.455,2361.4
546.623,2352.13
546.791,2348.55
546.959,2346.07
547.127,2360.32
547.294,2359.35
547.462,2357.4
547.63,2350.55
547.798,2336.27
547.966,2332.48
548.134,2331.52
548.301,2336.52
548.469,2347.02
548.637,2345.93
548.805,2344.82
548.972,2354.48
549.14,2355.07
549.308,2348.95
549.476,2354.63
549.644,2334.75
549.811,2320.85
549.979,2332.3
550.147,2336.52
550.315,2339.73
550.482,2332.82
550.65,2318.48
550.818,2324.95
550.985,2326.52
551.153,2316.3
551.321,2324.35
551.488,2323.4
551.656,2322.07
551.824,2332.75
551.991,2322.23
552.159,2324.8
552.327,2313.63
552.494,2311.2
552.662,2306.5
552.83,2305.6
552.997,2305.65
553.165,2307.4
553.333,2308.48
553.5,2316.65
553.668,2299.2
553.835,2299.48
554.003,2303.55
554.171,2305.43
554.338,2304.4
554.506,2308.48
554.673,2304.43
554.841,2304.6
555.008,2307.88
555.176,2300.32
555.343,2301.32
555.511,2305.25
555.679,2302.4
555.846,2298.43
556.014,2303.4
556.181,2298.65
556.349,2310.95
556.516,2297.65
556.684,2303.93
556.851,2308.6
557.018,2296.65
557.186,2310.38
557.353,2308.18
557.521,2303.2
557.688,2301.65
557.856,2313.75
558.023,2314.13
558.191,2321.45
558.358,2330.18
558.525,2336.6
558.693,2351.63
558.86,2367.23
559.028,2348.0
559.195,2340.38
559.362,2331.9
559.53,2333.25
559.697,2336.95
559.864,2321.02
560.032,2317.1
560.199,2310.98
560.366,2319.73
560.534,2317.73
560.701,2327.23
560.868,2330.0
561.036,2334.5
561.203,2331.02
561.37,2332.8
561.538,2332.98
561.705,2342.0
561.872,2352.82
562.039,2355.38
562.207,2345.73
562.374,2347.8
562.541,2343.18
562.708,2352.35
562.876,2370.9
563.043,2383.35
563.21,2369.35
563.377,2379.57
563.545,2394.63
563.712,2409.8
563.879,2470.98
564.046,2486.23
564.213,2455.48
564.38,2452.63
564.548,2475.73
564.715,2538.7
564.882,2629.9
565.049,2675.32
565.216,2668.8
565.383,2590.82
565.551,2543.0
565.718,2549.02
565.885,2572.48
566.052,2610.48
566.219,2619.57
566.386,2526.3
566.553,2452.68
566.72,2457.4
566.887,2437.77
567.054,2431.9
567.221,2437.57
567.388,2430.93
567.555,2401.15
567.722,2393.15
567.889,2386.3
568.057,2399.55
568.224,2400.1
568.391,2403.7
568.558,2446.52
568.725,2481.6
568.892,2453.4
569.058,2405.82
569.225,2380.98
569.392,2372.52
569.559,2382.7
569.726,2401.27
569.893,2389.25
570.06,2415.18
570.227,2436.5
570.394,2425.73
570.561,2419.95
570.728,2409.1
570.895,2410.15
571.062,2401.13
571.229,2426.6
571.395,2485.6
571.562,2525.3
571.729,2468.13
571.896,2421.93
572.063,2425.9
572.23,2435.77
572.397,2452.5
572.563,2473.93
572.73,2521.15
572.897,2566.75
573.064,2582.5
573.231,2599.38
573.397,2572.07
573.564,2529.1
573.731,2515.13
573.898,2513.15
574.064,2527.43
574.231,2598.63
574.398,2736.5
574.565,2890.5
574.731,3006.18
574.898,2835.55
575.065,2612.02
575.232,2534.88
575.398,2564.7
575.565,2593.82
575.732,2583.63
575.898,2611.88
576.065,2649.57
576.232,2623.35
576.398,2558.05
576.565,2546.15
576.732,2511.13
576.898,2510.48
577.065,2488.48
577.232,2477.57
577.398,2453.73
577.565,2431.38
577.731,2431.85
577.898,2419.18
578.065,2405.07
578.231,2403.82
578.398,2411.48
578.564,2404.4
578.731,2404.13
578.897,2392.43
579.064,2412.57
579.23,2403.9
579.397,2405.15
579.563,2418.55
579.73,2396.63
579.896,2414.35
580.063,2417.52
580.229,2419.18
580.396,2423.2
580.562,2426.0
580.729,2432.63
580.895,2428.4
581.062,2451.88
581.228,2478.32
581.395,2494.1
581.561,2505.48
581.728,2501.48
581.894,2491.18
582.06,2481.73
582.227,2476.15
582.393,2478.6
582.56,2460.5
582.726,2460.43
582.892,2448.6
583.059,2450.07
583.225,2454.43
583.391,2450.65
583.558,2443.75
583.724,2448.57
583.89,2459.93
584.057,2457.75
584.223,2456.43
584.389,2456.4
584.556,2450.18
584.722,2462.85
584.888,2465.13
585.054,2458.2
585.221,2467.63
585.387,2469.15
585.553,2467.8
585.719,2470.18
585.886,2465.5
586.052,2472.32
586.218,2472.65
586.384,2475.02
586.55,2470.95
586.717,2471.13
586.883,2493.27
587.049,2494.8
587.215,2499.9
587.381,2485.5
587.548,2494.77
587.714,2490.88
587.88,2489.75
588.046,2509.13
588.212,2517.52
588.378,2501.05
588.544,2514.93
588.71,2514.43
588.876,2505.52
589.043,2502.82
589.209,2517.88
589.375,2526.68
589.541,2515.7
589.707,2518.2
589.873,2525.57
590.039,2526.32
590.205,2524.9
590.371,2539.68
590.537,2537.93
590.703,2553.3
590.869,2544.02
591.035,2562.85
591.201,2560.85
591.367,2562.27
591.533,2552.95
591.699,2565.57
591.865,2573.3
592.031,2578.45
592.197,2573.77
592.363,2580.8
592.529,2584.68
592.694,2587.07
592.86,2596.55
593.026,2591.02
593.192,2615.55
593.358,2583.13
593.524,2596.32
593.69,2598.0
593.856,2614.27
594.021,2618.43
594.187,2625.35
594.353,2619.18
594.519,2623.02
594.685,2625.38
594.851,2642.07
595.016,2638.45
595.182,2653.35
595.348,2659.48
595.514,2655.13
595.68,2681.35
595.845,2692.8
596.011,2688.7
596.177,2697.0
596.342,2694.2
596.508,2701.55
596.674,2710.2
596.84,2705.55
597.005,2713.15
597.171,2721.73
597.337,2722.57
597.502,2735.18
597.668,2743.05
597.834,2744.75
597.999,2757.3
598.165,2759.75
598.331,2765.15
598.496,2764.25
598.662,2774.75
598.828,2772.07
598.993,2786.5
599.159,2807.1
599.324,2798.9
599.49,2815.32
599.656,2815.9
599.821,2829.68
599.987,2828.2
600.152,2835.95
600.318,2848.63
600.483,2872.98
600.649,2855.65
600.814,2872.1
600.98,2860.93
601.145,2868.57
601.311,2879.85
601.476,2872.3
601.642,2902.35
601.807,2905.5
601.973,2923.48
602.138,2914.8
602.304,2924.07
602.469,2933.8
602.635,2924.95
602.8,2946.35
602.965,2947.05
603.131,2939.15
603.296,2969.8
603.462,2963.18
603.627,2952.63
603.792,2970.18
603.958,2979.9
604.123,2984.15
604.288,2983.38
604.454,2996.35
604.619,2996.18
604.784,3036.95
604.95,3007.05
605.115,3014.48
605.28,3025.45
605.446,3049.8
605.611,3037.88
605.776,3035.18
605.941,3040.65
606.107,3044.0
606.272,3061.55
606.437,3082.85
606.602,3077.9
606.767,3097.07
606.933,3082.38
607.098,3079.7
607.263,3117.43
607.428,3117.82
607.593,3111.3
607.759,3094.43
607.924,3117.32
608.089,3145.77
608.254,3141.45
608.419,3114.3
608.584,3157.05
608.749,3156.9
608.915,3140.75
609.08,3156.88
609.245,3168.2
609.41,3191.68
609.575,3169.7
609.74,3166.43
609.905,3211.68
610.07,3209.73
610.235,3191.63
610.4,3211.1
610.565,3229.02
610.73,3234.35
610.895,3253.77
611.06,3216.93
611.225,3256.25
611.39,3226.88
611.555,3223.23
611.72,3262.95
611.885,3255.75
612.05,3250.65
612.215,3246.9
612.38,3284.75
612.545,3279.13
612.71,3261.3
612.875,3263.6
613.04,3287.77
613.204,3261.23
613.369,3280.25
613.534,3289.48
613.699,3288.23
613.864,3332.5
614.029,3302.18
614.194,3341.05
614.358,3357.8
614.523,3316.63
614.688,3310.65
614.853,3347.13
615.018,3354.77
615.182,3367.27
615.347,3366.2
615.512,3367.8
615.677,3358.32
615.841,3396.7
616.006,3385.63
616.171,3371.88
616.336,3338.48
616.5,3391.88
616.665,3370.0
616.83,3376.98
616.994,3382.05
617.159,3415.88
617.324,3407.82
617.489,3402.6
617.653,3428.05
617.818,3395.07
617.982,3405.23
618.147,3436.98
618.312,3405.5
618.476,3398.73
618.641,3399.95
618.805,3389.88
618.97,3432.45
619.135,3456.9
619.299,3428.88
619.464,3428.35
619.628,3434.15
619.793,3430.93
619.957,3458.63
620.122,3445.98
620.286,3452.07
620.451,3425.2
620.615,3437.27
620.78,3450.45
620.944,3443.15
621.109,3486.77
621.273,3442.18
621.438,3486.82
621.602,3471.5
621.767,3475.48
621.931,3464.65
622.095,3498.55
622.26,3526.98
622.424,3516.23
622.589,3539.5
622.753,3535.5
622.917,3490.18
623.082,3511.18
623.246,3529.4
623.41,3492.98
623.575,3507.3
623.739,3523.7
623.903,3500.98
624.068,3519.02
624.232,3521.18
624.396,3559.18
624.561,3581.1
624.725,3550.3
624.889,3540.38
625.053,3562.57
625.218,3526.0
625.382,3526.32
625.546,3542.52
625.71,3517.9
625.875,3565.35
626.039,3590.8
626.203,3615.4
626.367,3578.02
626.531,3584.2
626.695,3697.65
626.86,3802.27
627.024,3943.3
627.188,3996.52
627.352,4010.18
627.516,4007.8
627.68,3922.7
627.844,3948.07
628.008,3965.0
628.172,4014.75
628.337,4095.6
628.501,4280.8
628.665,4232.0
628.829,4124.33
628.993,4144.95
629.157,4054.7
629.321,4087.85
629.485,4031.1
629.649,4007.82
629.813,3947.65
629.977,3872.18
630.141,3854.65
630.305,3826.0
630.469,3778.35
630.633,3855.1
630.797,3745.52
630.96,3707.5
631.124,3738.85
631.288,3674.8
631.452,3649.02
631.616,3683.57
631.78,3640.45
631.944,3610.85
632.108,3689.13
632.272,3607.38
632.435,3588.8
632.599,3538.45
632.763,3538.18
632.927,3523.75
633.091,3499.65
633.254,3454.1
633.418,3482.45
633.582,3424.9
633.746,3402.93
633.91,3465.65
634.073,3430.18
634.237,3445.65
634.401,3418.77
634.564,3376.1
634.728,3391.75
634.892,3399.45
635.056,3384.25
635.219,3394.4
635.383,3382.85
635.547,3376.55
635.71,3339.35
635.874,3386.65
636.038,3376.15
636.201,3363.77
636.365,3354.1
636.528,3369.6
636.692,3377.7
636.856,3351.93
637.019,3372.55
637.183,3371.1
637.346,3333.63
637.51,3333.43
637.673,3343.3
637.837,3331.48
638.0,3345.48
638.164,3357.38
638.327,3370.95
638.491,3351.55
638.654,3378.35
638.818,3334.68
638.981,3336.23
639.145,3319.98
639.308,3337.38
639.472,3358.57
639.635,3322.05
639.799,3281.4
639.962,3281.63
640.125,3345.88
640.289,3337.95
640.452,3311.88
640.616,3293.55
640.779,3298.77
640.942,3281.85
641.106,3302.73
641.269,3279.93
641.432,3303.0
641.596,3297.15
641.759,3293.35
641.922,3305.4
642.085,3273.9
642.249,3293.73
642.412,3267.02
642.575,3299.65
642.738,3302.2
642.902,3262.48
643.065,3274.55
643.228,3293.9
643.391,3268.35
643.555,3297.98
643.718,3317.23
643.881,3297.68
644.044,3317.1
644.207,3293.02
644.37,3311.13
644.534,3270.48
644.697,3241.13
644.86,3289.32
645.023,3290.4
645.186,3261.2
645.349,3273.98
645.512,3329.1
645.675,3273.57
645.838,3273.88
646.001,3255.2
646.164,3218.38
646.327,3227.63
646.49,3289.38
646.653,3235.65
646.816,3187.25
646.979,3261.57
647.142,3220.35
647.305,3254.38
647.468,3244.6
647.631,3245.32
647.794,3213.6
647.957,3184.9
648.12,3178.9
648.283,3194.7
648.446,3205.8
648.609,3193.82
648.772,3181.6
648.935,3182.18
649.098,3201.5
649.26,3163.1
649.423,3162.25
649.586,3203.13
649.749,3183.85
649.912,3124.35
650.075,3127.98
650.237,3146.15
650.4,3132.93
650.563,3155.95
650.726,3126.52
650.888,3115.7
651.051,3148.23
651.214,3128.57
651.377,3087.65
651.539,3105.85
651.702,3123.35
651.865,3139.68
652.027,3144.02
652.19,3080.1
652.353,3068.23
652.515,3055.25
652.678,3070.38
652.841,3032.43
653.003,3021.85
653.166,3038.75
653.329,3037.55
653.491,3021.98
653.654,3005.52
653.816,2994.98
653.979,3017.88
654.142,2999.07
654.304,2983.32
654.467,2968.52
654.629,2964.02
654.792,2900.9
654.954,2946.05
655.117,2966.07
655.279,2912.45
655.442,2911.3
655.604,2938.5
655.767,2927.95
655.929,2913.7
656.091,2905.8
656.254,2909.5
656.416,2871.57
656.579,2929.07
656.741,2910.38
656.904,2877.2
657.066,2886.1
657.228,2901.32
657.391,2868.63
657.553,2861.38
657.715,2831.93
657.878,2838.68
658.04,2848.38
658.202,2848.63
658.365,2817.0
658.527,2838.32
658.689,2817.57
658.851,2826.88
659.014,2786.82
659.176,2793.85
659.338,2776.63
659.5,2794.98
659.663,2789.2
659.825,2804.68
659.987,2790.25
660.149,2780.9
660.311,2784.98
660.474,2785.75
660.636,2772.52
660.798,2782.07
660.96,2774.45
661.041,2793.3