File: spectra/VLFR_07-PET_bio_Raman_8c2c42c3.csv
nm,Intensity
791.377,40174.6
791.652,40207.9
791.927,41445.6
792.202,40238.6
792.477,40630.4
792.752,40116.5
793.027,40785.3
793.301,41171.8
793.576,41135.4
793.851,41355.6
794.126,41521.1
794.401,41608.3
794.676,41467.1
794.951,41158.5
795.225,40792.2
795.5,41383.5
795.775,43080.9
796.05,40883.5
796.325,40110.9
796.599,41479.4
796.874,41905.4
797.149,41986.3
797.424,42139.6
797.698,41948.1
797.973,41722.4
798.248,41570.2
798.523,40751.9
798.797,41360.7
799.072,42542.4
799.347,41939.3
799.622,41015.6
799.896,42226.8
800.171,42634.9
800.446,41547.6
800.72,41207.3
800.995,41781.9
801.27,42516.1
801.544,42228.1
801.819,41516.4
802.094,42590.6
802.368,42354.4
802.643,41730.1
802.918,42074.3
803.192,42536.8
803.467,42637.1
803.742,41880.3
804.016,41407.9
804.291,42660.5
804.565,43195.5
804.84,41839.4
805.114,41538.6
805.389,42238.4
805.664,43226.8
805.938,42686.3
806.213,41843.8
806.487,41889.1
806.762,41609.9
807.036,42656.6
807.311,42757.7
807.585,42292.1
807.86,42261.6
808.134,41705.6
808.409,41830.1
808.683,41462.1
808.958,42169.9
809.232,43188.3
809.507,41899.6
809.781,43183.1
810.056,41410.9
810.33,41756.9
810.605,42884.3
810.879,42722.2
811.153,42155.1
811.428,41413.8
811.702,41463.6
811.977,41973.9
812.251,42644.9
812.525,42712.1
812.8,41462.2
813.074,41695.1
813.349,41431.1
813.623,41941.8
813.897,42150.4
814.172,43012.4
814.446,41453.9
814.72,42091.6
814.995,41702.1
815.269,41674.6
815.543,42233.1
815.818,42386.8
816.092,41518.4
816.366,42037.2
816.64,41340.9
816.915,41100.1
817.189,42005.7
817.463,41049.8
817.737,41526.3
818.012,40178.9
818.286,41353.8
818.56,42618.1
818.834,42200.5
819.109,42965.6
819.383,41577.4
819.657,41097.9
819.931,41578.3
820.205,41228.4
820.48,41928.5
820.754,41966.4
821.028,41139.3
821.302,41059.8
821.576,40965.8
821.85,41154.6
822.125,42749.9
822.399,41841.1
822.673,40932.1
822.947,41359.8
823.221,42440.8
823.495,40939.9
823.769,40926.9
824.043,41452.4
824.317,41669.5
824.591,40584.8
824.865,41050.4
825.14,41158.3
825.414,40965.4
825.688,41129.9
825.962,40840.0
826.236,40923.5
826.51,41075.5
826.784,41165.1
827.058,40543.3
827.332,39523.9
827.606,40259.1
827.88,42840.1
828.154,42461.4
828.428,40989.6
828.702,40249.1
828.976,40114.1
829.249,39747.4
829.523,39872.3
829.797,40084.9
830.071,40822.1
830.345,40703.4
830.619,40054.6
830.893,40261.4
831.167,41458.7
831.441,39942.9
831.715,40458.5
831.988,40632.6
832.262,39795.0
832.536,41011.1
832.81,40069.7
833.084,39043.2
833.358,40517.9
833.632,40917.3
833.905,39870.9
834.179,40254.1
834.453,40152.5
834.727,40540.7
835.001,38856.9
835.274,39436.1
835.548,39486.0
835.822,39522.0
836.096,39636.1
836.369,39666.4
836.643,40449.6
836.917,40032.6
837.191,40286.6
837.464,39093.3
837.738,38434.4
838.012,40109.1
838.285,39086.1
838.559,39699.1
838.833,40342.4
839.106,39866.1
839.38,38552.5
839.654,39352.1
839.927,39355.6
840.201,38749.1
840.475,39006.4
840.748,39099.4
841.022,39233.7
841.295,38840.8
841.569,40090.4
841.843,38724.6
842.116,38426.8
842.39,37807.9
842.663,38657.3
842.937,39848.3
843.211,38592.7
843.484,38840.9
843.758,38727.9
844.031,40079.8
844.305,39491.4
844.578,38075.9
844.852,37152.8
845.125,36593.3
845.399,38580.9
845.672,38577.1
845.946,38188.0
846.219,38114.5
846.493,38275.2
846.766,37768.8
847.039,38059.4
847.313,37189.7
847.586,38582.3
847.86,39112.6
848.133,38314.9
848.407,37566.1
848.68,37590.4
848.953,38265.6
849.227,37927.0
849.5,36521.8
849.773,36882.4
850.047,38865.1
850.32,39238.1
850.593,37634.1
850.867,36246.6
851.14,36735.9
851.413,38409.3
851.687,38675.6
851.96,36448.7
852.233,36277.1
852.507,37278.7
852.78,38068.1
853.053,36533.2
853.326,37542.4
853.6,37035.8
853.873,35681.1
854.146,36951.6
854.419,37383.8
854.693,36548.1
854.966,36590.9
855.239,36237.8
855.512,36840.6
855.785,35443.9
856.059,36544.9
856.332,36609.6
856.605,37031.9
856.878,36592.9
857.151,35946.3
857.424,35626.6
857.698,35472.6
857.971,35279.2
858.244,36930.8
858.517,37623.4
858.79,37214.5
859.063,36137.3
859.336,35760.4
859.609,34565.8
859.882,34300.5
860.155,35041.4
860.428,36350.6
860.701,36129.0
860.974,35912.8
861.247,35769.2
861.52,35049.8
861.793,35251.6
862.066,35653.9
862.339,34681.8
862.612,34286.1
862.885,35083.1
863.158,35580.3
863.431,35018.1
863.704,34625.6
863.977,34884.4
864.25,35085.4
864.523,34917.9
864.796,34836.4
865.069,34908.4
865.342,34745.6
865.615,34707.8
865.888,34352.6
866.16,34414.3
866.433,35456.8
866.706,34408.9
866.979,34151.8
867.252,34176.9
867.525,34442.6
867.798,34062.1
868.07,34419.9
868.343,34859.9
868.616,33784.3
868.889,34039.6
869.162,34291.8
869.434,34513.3
869.707,33579.1
869.98,32586.6
870.253,33565.9
870.525,33353.8
870.798,32919.9
871.071,33368.1
871.344,33676.7
871.616,34815.1
871.889,34590.1
872.162,33258.5
872.434,32472.9
872.707,33020.4
872.98,32668.3
873.252,33317.8
873.525,33581.1
873.798,32910.3
874.07,32372.3
874.343,32634.2
874.615,32523.7
874.888,32162.4
875.161,33280.6
875.433,32925.4
875.706,32487.2
875.978,32946.3
876.251,33058.4
876.524,32436.6
876.796,31455.9
877.069,32669.7
877.341,32743.5
877.614,32422.4
877.886,31837.6
878.159,31627.4
878.431,31916.4
878.704,31282.2
878.976,31454.9
879.249,31538.3
879.521,31844.9
879.794,31720.0
880.066,32413.8
880.338,32282.6
880.611,30738.2
880.883,30249.9
881.156,30964.7
881.428,31769.5
881.7,31277.2
881.973,32794.4
882.245,31603.8
882.518,30714.6
882.79,30435.8
883.062,31241.8
883.335,31128.1
883.607,30552.6
883.879,30471.5
884.152,30903.4
884.424,30884.7
884.696,30418.7
884.968,30183.6
885.241,30436.8
885.513,30099.8
885.785,30405.8
886.058,30414.2
886.33,31037.2
886.602,30073.1
886.874,29165.7
887.146,29522.4
887.419,30149.0
887.691,30410.8
887.963,30065.5
888.235,29635.9
888.507,29480.7
888.78,29406.6
889.052,29143.8
889.324,28967.5
889.596,29520.3
889.868,29712.0
890.14,29476.7
890.412,29611.5
890.684,29201.6
890.957,29386.2
891.229,30009.6
891.501,29454.2
891.773,28258.4
892.045,28401.9
892.317,28537.8
892.589,28172.3
892.861,28641.4
893.133,28496.1
893.405,28764.7
893.677,28364.6
893.949,27799.1
894.221,27951.8
894.493,28184.3
894.765,27889.0
895.037,27916.8
895.309,28213.8
895.581,28650.4
895.853,28167.7
896.125,27592.6
896.397,27370.0
896.668,26913.2
896.94,27278.0
897.212,27919.6
897.484,27551.4
897.756,27686.3
898.028,27319.1
898.3,27380.5
898.571,27244.9
898.843,27012.7
899.115,26836.4
899.387,27347.9
899.659,27263.1
899.931,26852.8
900.202,26921.2
900.474,26457.8
900.746,26888.2
901.018,26641.4
901.289,26427.4
901.561,25914.8
901.833,26530.0
902.105,26706.3
902.376,26020.9
902.648,25737.8
902.92,25857.8
903.191,25771.3
903.463,26842.6
903.735,26672.6
904.006,26068.1
904.278,26416.4
904.55,26030.9
904.821,25671.9
905.093,25390.3
905.365,25368.6
905.636,24405.5
905.908,24767.2
906.179,25183.7
906.451,25468.4
906.722,25329.4
906.994,25177.0
907.266,25724.8
907.537,26153.6
907.809,25889.7
908.08,25377.1
908.352,25230.8
908.623,24644.9
908.895,25228.0
909.166,25567.6
909.438,24873.8
909.709,24476.0
909.981,24126.8
910.252,23988.1
910.523,24304.0
910.795,24000.4
911.066,24051.8
911.338,24395.6
911.609,24140.9
911.881,23925.7
912.152,24306.7
912.423,24000.2
912.695,23440.9
912.966,23735.8
913.237,24633.8
913.509,24288.5
913.78,23650.8
914.051,23438.1
914.323,23042.0
914.594,23647.6
914.865,23592.3
915.136,23329.8
915.408,22957.3
915.679,22939.8
915.95,23041.8
916.221,22818.9
916.493,22902.7
916.764,23538.0
917.035,22954.4
917.306,22668.2
917.578,22665.3
917.849,23212.9
918.12,22416.5
918.391,22796.3
918.662,23069.1
918.933,22716.4
919.204,22671.1
919.476,22414.1
919.747,21998.9
920.018,21978.9
920.289,21152.3
920.56,21652.3
920.831,22054.3
921.102,22553.5
921.373,22505.0
921.644,22199.7
921.915,22378.2
922.186,22067.7
922.457,21603.9
922.728,21139.9
922.999,21266.9
923.27,21340.1
923.541,20945.9
923.812,20785.1
924.083,21066.7
924.354,21069.1
924.625,21475.8
924.896,21551.3
925.167,21904.3
925.438,21068.1
925.709,20394.8
925.98,20150.7
926.251,20068.3
926.522,20547.4
926.792,20467.2
927.063,20091.3
927.334,20183.1
927.605,19923.8
927.876,19994.9
928.147,20542.1
928.417,20258.8
928.688,20353.6
928.959,20040.5
929.23,19777.1
929.501,19798.6
929.771,19621.9
930.042,19501.2
930.313,19508.0
930.584,19937.1
930.854,19505.8
931.125,19200.9
931.396,19038.3
931.666,19277.0
931.937,18746.8
932.208,18680.7
932.478,18743.2
932.749,19067.6
933.02,19271.8
933.29,19150.1
933.561,19134.8
933.832,18714.2
934.102,18901.7
934.373,19122.9
934.643,18525.0
934.914,18163.1
935.184,18141.8
935.455,18270.3
935.726,18136.1
935.996,18143.7
936.267,18286.8
936.537,18236.8
936.808,18136.9
937.078,17999.8
937.349,17897.5
937.619,17834.8
937.89,17532.9
938.16,17787.8
938.43,18061.4
938.701,17235.9
938.971,17194.6
939.242,17520.0
939.512,17187.6
939.782,17049.8
940.053,17128.2
940.323,17268.2
940.594,16796.4
940.864,17229.8
941.134,17192.8
941.405,16863.6
941.675,16826.8
941.945,16941.8
942.216,16809.7
942.486,16779.7
942.756,16786.8
943.026,16519.4
943.297,16839.7
943.567,16971.6
943.837,17014.8
944.107,16669.3
944.378,16261.3
944.648,15949.0
944.918,15927.6
945.188,15766.8
945.458,15698.4
945.729,15915.2
945.999,15860.3
946.269,15872.2
946.539,15877.7
946.809,15615.5
947.079,15633.5
947.349,15796.5
947.62,15670.5
947.89,14920.0
948.16,14925.0
948.43,15635.1
948.7,15748.5
948.97,15437.5
949.24,15415.8
949.51,15451.7
949.78,15463.2
950.05,15426.5
950.32,15357.5
950.59,15309.2
950.86,15078.5
951.13,14995.2
951.4,15093.5
951.67,14920.8
951.94,14579.2
952.21,14546.1
952.48,14254.3
952.75,14211.8
953.02,14491.3
953.289,14485.0
953.559,14398.5
953.829,14424.9
954.099,14490.4
954.369,14605.7
954.639,14595.3
954.909,14524.4
955.178,14341.2
955.448,14338.0
955.718,14142.9
955.988,14167.8
956.257,13995.3
956.527,14117.1
956.797,14083.0
957.067,13761.0
957.336,13555.6
957.606,13534.5
957.876,13717.2
958.146,13775.8
958.415,13593.2
958.685,13460.8
958.955,13224.5
959.224,13093.3
959.494,13229.3
959.764,13301.2
960.033,13216.1
960.303,13509.8
960.572,13454.4
960.842,13240.7
961.112,13088.3
961.381,12942.3
961.651,12936.3
961.92,12761.8
962.19,12550.7
962.459,12857.7
962.729,12837.5
962.998,12661.5
963.268,12697.5
963.537,12740.5
963.807,12832.8
964.076,12791.7
964.346,12486.5
964.615,12418.5
964.885,12602.7
965.154,12628.7
965.424,12680.5
965.693,12440.4
965.962,12433.7
966.232,12585.5
966.501,12472.7
966.771,12100.3
967.04,12108.3
967.309,12149.0
967.579,12072.1
967.848,11631.3
968.117,11395.0
968.387,11679.4
968.656,12029.5
968.925,12154.8
969.194,12165.2
969.464,12013.6
969.733,11890.3
970.002,11451.5
970.271,11310.1
970.541,11517.0
970.81,11705.7
971.079,11724.5
971.348,11485.5
971.617,11181.8
971.887,11006.2
972.156,11173.5
972.425,11352.3
972.694,11570.9
972.963,11465.8
973.232,10992.5
973.501,11156.7
973.77,11007.5
974.04,10813.5
974.309,10819.1
974.578,10876.2
974.847,10781.0
975.116,10749.7
975.385,10801.0
975.654,10789.5
975.923,10751.2
976.192,10964.0
976.461,10902.2
976.73,10964.5
976.999,10889.8
977.268,10646.4
977.537,10591.0
977.806,10299.5
978.074,10308.5
978.343,10356.3
978.612,10317.8
978.881,10300.8
979.15,10232.8
979.419,10226.1
979.688,10289.9
979.957,10329.5
980.225,10041.6
980.494,10022.7
980.763,10021.3
981.032,9923.9
981.301,9926.2
981.569,10044.0
981.838,10131.4
982.107,10205.7
982.376,10107.6
982.644,9931.15
982.913,9759.9
983.182,9863.95
983.451,9671.9
983.719,9509.45
983.988,9487.55
984.257,9548.65
984.525,9570.95
984.794,9555.35
985.063,9615.05
985.331,9592.4
985.6,9585.4
985.868,9558.95
986.137,9512.0
986.406,9284.35
986.674,9408.25
986.943,9391.4
987.211,9279.95
987.48,9159.9
987.748,9042.8
988.017,9040.0
988.285,9108.55
988.554,9083.6
988.822,8853.7
989.091,8850.65
989.359,8712.25
989.628,8944.05
989.896,9164.25
990.164,9115.15
990.433,8992.8
990.701,8830.75
990.97,8737.65
991.238,8851.1
991.506,8920.2
991.775,8840.0
992.043,8707.9
992.311,8540.4
992.58,8533.15
992.848,8593.75
993.116,8474.75
993.385,8346.6
993.653,8479.55
993.921,8556.35
994.19,8368.0
994.458,8426.7
994.726,8464.85
994.994,8242.6
995.262,8206.05
995.531,8224.75
995.799,8203.8
996.067,8239.6
996.335,8305.9
996.603,8221.3
996.872,8171.6
997.14,8156.0
997.408,8079.0
997.676,8061.9
997.944,8097.55
998.212,8058.0
998.48,7952.05
998.748,7917.8
999.016,7952.8
999.284,7976.05
999.552,7968.6
999.82,7909.45
1000.09,7806.5
1000.36,7762.6
1000.62,7746.9
1000.89,7699.75
1001.16,7755.9
1001.43,7658.6
1001.7,7447.1
1001.96,7434.35
1002.23,7494.7
1002.5,7603.15
1002.77,7658.25
1003.04,7688.75
1003.3,7555.5
1003.57,7490.1
1003.84,7451.45
1004.11,7514.55
1004.38,7526.3
1004.64,7457.4
1004.91,7343.25
1005.18,7351.65
1005.45,7307.3
1005.71,7225.1
1005.98,7227.05
1006.25,7248.75
1006.52,7107.4
1006.79,7058.8
1007.05,7019.65
1007.32,7074.55
1007.59,7094.65
1007.86,6924.65
1008.12,6912.4
1008.39,6954.05
1008.66,6951.65
1008.93,6939.1
1009.19,6936.6
1009.46,6957.0
1009.73,6989.35
1010.0,6955.05
1010.26,6844.2
1010.53,6787.35
1010.8,6765.45
1011.07,6717.1
1011.33,6635.3
1011.6,6603.9
1011.87,6640.3
1012.14,6603.2
1012.4,6530.65
1012.67,6473.35
1012.94,6493.75
1013.21,6577.1
1013.47,6613.1
1013.74,6535.55
1014.01,6503.7
1014.28,6514.75
1014.54,6463.15
1014.81,6535.2
1015.08,6479.5
1015.35,6376.75
1015.61,6383.15
1015.88,6469.85
1016.15,6428.65
1016.42,6278.1
1016.68,6289.95
1016.95,6234.25
1017.22,6105.65
1017.48,6093.2
1017.75,6103.95
1018.02,6086.95
1018.29,6099.55
1018.55,6090.3
1018.82,6083.85
1019.09,6174.0
1019.36,6231.95
1019.62,6188.3
1019.89,6031.0
1020.16,6001.85
1020.42,5966.7
1020.69,5906.1
1020.96,5969.45
1021.23,5974.0
1021.49,5925.9
1021.76,5931.85
1022.03,5948.7
1022.29,5867.5
1022.56,5813.2
1022.83,5687.8
1023.09,5671.45
1023.36,5735.6
1023.63,5751.8
1023.9,5750.45
1024.16,5729.4
1024.43,5767.65
1024.7,5752.1
1024.96,5661.75
1025.23,5587.25
1025.5,5516.9
1025.76,5515.5
1026.03,5531.6
1026.3,5504.8
1026.56,5509.15
1026.83,5524.25
1027.1,5509.5
1027.37,5460.85
1027.63,5441.65
1027.9,5470.9
1028.17,5483.2
1028.43,5496.45
1028.7,5507.8
1028.97,5457.1
1029.23,5330.0
1029.5,5312.5
1029.77,5365.65
1030.03,5374.0
1030.3,5315.1
1030.57,5239.15
1030.83,5236.45
1031.1,5236.6
1031.37,5204.85
1031.63,5231.35
1031.9,5226.2
1032.17,5212.35
1032.43,5193.1
1032.7,5202.6
1032.97,5180.6
1033.23,5168.65
1033.5,5083.8
1033.77,5033.7
1034.03,5069.25
1034.3,5132.25
1034.57,5133.75
1034.83,5159.65
1035.1,5132.3
1035.36,5049.0
1035.63,5041.55
1035.9,5015.0
1036.16,5019.95
1036.43,5028.7
1036.7,4989.05
1036.96,4994.4
1037.23,4964.3
1037.5,4976.1
1037.76,4968.0
1038.03,4913.9
1038.3,4881.15
1038.56,4853.55
1038.83,4843.85
1039.09,4840.1
1039.36,4863.15
1039.63,4881.45
1039.89,4867.95
1040.16,4834.6
1040.43,4814.45
1040.69,4845.65
1040.96,4828.5
1041.22,4796.0
1041.49,4798.7
1041.76,4791.35
1042.02,4761.5
1042.29,4732.8
1042.55,4734.8
1042.82,4727.05
1043.09,4714.85
1043.35,4689.25
1043.62,4694.7
1043.89,4680.65
1044.15,4682.7
1044.42,4664.3
1044.68,4653.45
1044.95,4616.65
1045.22,4594.2
1045.48,4613.7
1045.75,4622.65
1046.01,4609.1
1046.28,4603.7
1046.55,4598.15
1046.81,4561.1
1047.08,4542.75
1047.34,4552.8
1047.61,4571.0
1047.88,4569.45
1048.14,4549.55
1048.41,4536.55
1048.67,4531.35
1048.94,4512.2
1049.2,4496.15
1049.47,4500.5
1049.74,4509.1
1050.0,4482.4
1050.27,4475.65
1050.53,4495.6
1050.8,4480.2
1051.06,4456.45
1051.33,4451.4
1051.6,4495.7
1051.86,4512.05
1052.13,4500.05
1052.39,4475.2
1052.66,4447.15
1052.92,4429.3
1053.19,4437.1
1053.46,4439.1
1053.72,4449.5
1053.99,4423.35
1054.25,4399.3
1054.52,4384.2
1054.78,4390.2
1055.05,4391.1
1055.32,4423.05
1055.58,4431.3
1055.85,4408.15
1056.11,4383.45
1056.38,4353.65
1056.64,4340.2
1056.91,4352.45
1057.17,4376.45
1057.44,4395.05
1057.7,4376.95
1057.97,4354.9
1058.24,4324.5
1058.5,4324.4
1058.77,4314.4
1059.03,4324.7
1059.3,4333.2
1059.56,4325.65
1059.83,4312.0
1060.09,4302.5
1060.36,4298.9
1060.62,4297.35
1060.89,4303.2
1061.15,4282.1
1061.42,4287.7
1061.68,4294.3
1061.95,4293.55
1062.22,4269.1
1062.48,4260.6
1062.75,4260.45
1063.01,4263.45
1063.28,4277.15
1063.54,4269.45
1063.81,4252.55
1064.07,4257.35
1064.34,4257.1
1064.6,4252.95
1064.87,4255.35
1065.13,4230.25
1065.4,4224.75
1065.66,4221.05
1065.93,4210.35
1066.19,4213.9
1066.46,4220.35
1066.72,4236.6
1066.99,4233.15
1067.25,4205.75
1067.52,4195.25
1067.78,4181.0
1068.05,4179.8