File: spectra/VLFR_01-LDPE_nobio_Raman_9db99332.csv
cm-1,Intensity
-123.878,1852.55
-117.855,1852.4
-111.836,1852.9
-105.821,1852.15
-99.8104,1852.2
-93.8036,1853.15
-87.8007,1853.3
-81.8019,1852.95
-75.807,1853.35
-69.8161,1852.4
-63.8293,1853.05
-57.8464,1854.45
-51.8675,1853.75
-45.8926,1854.1
-39.9216,1853.3
-33.9547,1855.25
-27.9917,1856.9
-22.0326,1863.25
-16.0776,1886.1
-10.1265,2351.6
-4.17932,3735.1
1.76388,3031.8
7.70313,1972.7
13.6384,1856.0
19.5698,1854.9
25.4972,1854.0
31.4207,1854.3
37.3403,1854.15
43.256,1856.65
49.1677,1872.85
55.0755,1951.75
60.9794,2098.95
66.8794,2173.9
72.7754,2189.55
78.6676,2194.55
84.5559,2176.1
90.4402,2171.75
96.3207,2167.35
102.197,2162.0
108.07,2162.15
113.939,2158.3
119.804,2144.45
125.665,2128.4
131.522,2121.0
137.375,2112.9
143.225,2116.2
149.07,2110.15
154.912,2104.55
160.75,2103.95
166.584,2094.65
172.414,2093.0
178.241,2093.2
184.063,2103.3
189.882,2111.5
195.697,2108.7
201.508,2112.75
207.315,2098.95
213.119,2105.9
218.918,2110.3
224.714,2115.5
230.506,2108.7
236.294,2117.2
242.078,2117.1
247.859,2115.45
253.636,2094.65
259.409,2096.5
265.178,2086.7
270.943,2078.75
276.705,2076.25
282.463,2073.6
288.217,2071.15
293.967,2070.85
299.713,2075.0
305.456,2071.55
311.195,2072.65
316.93,2072.4
322.662,2078.3
328.389,2064.05
334.113,2075.35
339.834,2075.2
345.55,2067.5
351.263,2074.05
356.972,2077.15
362.677,2087.25
368.379,2076.45
374.077,2084.7
379.771,2076.7
385.461,2074.55
391.148,2071.3
396.831,2078.65
402.51,2069.75
408.186,2076.95
413.858,2068.75
419.526,2067.7
425.19,2068.05
430.851,2061.95
436.508,2065.6
442.162,2061.5
447.811,2070.9
453.458,2063.3
459.1,2066.05
464.739,2062.35
470.374,2067.3
476.005,2067.5
481.633,2062.45
487.257,2062.6
492.878,2056.45
498.494,2056.25
504.107,2073.6
509.717,2064.4
515.323,2063.6
520.925,2054.0
526.524,2063.9
532.119,2058.8
537.71,2063.6
543.298,2064.0
548.882,2068.05
554.462,2067.05
560.039,2067.55
565.613,2065.95
571.182,2059.5
576.748,2067.85
582.311,2071.2
587.87,2069.9
593.425,2060.2
598.977,2059.8
604.525,2067.85
610.069,2067.35
615.61,2073.3
621.148,2068.25
626.682,2060.25
632.212,2078.1
637.739,2072.85
643.262,2069.45
648.781,2079.35
654.297,2075.45
659.81,2074.2
665.319,2069.1
670.824,2075.8
676.326,2072.7
681.824,2074.9
687.319,2065.6
692.81,2063.8
698.298,2060.2
703.782,2058.7
709.262,2073.55
714.739,2077.05
720.213,2074.9
725.683,2077.25
731.15,2072.35
736.613,2072.7
742.072,2076.15
747.528,2081.8
752.981,2079.3
758.43,2072.35
763.875,2087.25
769.317,2083.5
774.756,2090.55
780.191,2083.15
785.623,2082.7
791.051,2083.2
796.475,2081.3
801.897,2093.6
807.314,2086.25
812.729,2089.3
818.139,2087.65
823.547,2095.85
828.951,2088.55
834.351,2101.8
839.748,2096.2
845.142,2100.9
850.532,2107.05
855.918,2116.9
861.302,2118.2
866.681,2130.7
872.058,2122.95
877.431,2121.7
882.8,2128.6
888.166,2116.95
893.529,2119.35
898.888,2127.35
904.244,2115.7
909.596,2113.35
914.945,2112.65
920.291,2115.05
925.633,2105.55
930.972,2108.45
936.308,2098.45
941.64,2093.2
946.968,2094.4
952.294,2110.05
957.615,2113.65
962.934,2105.7
968.249,2114.1
973.561,2113.65
978.869,2108.0
984.174,2105.2
989.476,2117.6
994.774,2129.7
1000.07,2128.6
1005.36,2132.85
1010.65,2137.45
1015.93,2128.8
1021.22,2139.45
1026.49,2146.6
1031.77,2151.05
1037.04,2156.9
1042.31,2178.3
1047.57,2190.75
1052.83,2264.15
1058.09,2402.4
1063.35,2480.5
1068.6,2384.5
1073.85,2262.25
1079.09,2249.9
1084.33,2246.55
1089.57,2242.45
1094.81,2226.55
1100.04,2195.1
1105.27,2197.1
1110.49,2213.3
1115.71,2231.3
1120.93,2348.75
1126.15,2505.0
1131.36,2488.85
1136.57,2318.95
1141.77,2235.1
1146.98,2197.55
1152.18,2195.95
1157.37,2189.6
1162.56,2186.85
1167.75,2214.3
1172.94,2194.75
1178.12,2186.0
1183.3,2171.25
1188.48,2174.5
1193.65,2172.3
1198.82,2180.25
1203.99,2177.8
1209.15,2178.1
1214.31,2178.75
1219.46,2193.65
1224.62,2181.9
1229.77,2188.2
1234.92,2201.95
1240.06,2198.15
1245.2,2194.15
1250.34,2206.2
1255.47,2218.25
1260.6,2226.0
1265.73,2242.0
1270.85,2252.6
1275.97,2267.75
1281.09,2295.7
1286.21,2411.0
1291.32,2682.45
1296.43,2886.25
1301.53,2641.0
1306.63,2441.15
1311.73,2381.0
1316.83,2343.65
1321.92,2317.7
1327.01,2291.4
1332.1,2276.0
1337.18,2265.45
1342.26,2263.75
1347.34,2256.0
1352.41,2255.85
1357.48,2263.05
1362.55,2285.3
1367.61,2315.2
1372.67,2295.85
1377.73,2285.55
1382.78,2245.8
1387.84,2250.1
1392.88,2250.7
1397.93,2262.15
1402.97,2280.65
1408.01,2318.9
1413.05,2410.4
1418.08,2496.7
1423.11,2530.75
1428.14,2589.1
1433.16,2700.55
1438.18,2863.95
1443.2,2839.0
1448.21,2761.05
1453.22,2706.7
1458.23,2680.0
1463.23,2664.4
1468.23,2590.9
1473.23,2506.85
1478.23,2422.6
1483.22,2391.4
1488.21,2408.6
1493.2,2384.95
1498.18,2376.75
1503.16,2368.8
1508.14,2391.75
1513.11,2396.6
1518.08,2393.2
1523.05,2411.65
1528.01,2406.6
1532.97,2415.25
1537.93,2434.55
1542.89,2427.15
1547.84,2423.75
1552.79,2457.45
1557.73,2485.6
1562.68,2470.7
1567.62,2481.35
1572.56,2511.4
1577.49,2503.55
1582.42,2490.1
1587.35,2521.85
1592.27,2528.5
1597.19,2523.5
1602.11,2535.15
1607.03,2558.55
1611.94,2562.25
1616.85,2561.45
1621.76,2564.0
1626.66,2606.45
1631.56,2601.2
1636.46,2574.45
1641.36,2594.3
1646.25,2616.25
1651.14,2652.35
1656.02,2672.6
1660.9,2661.7
1665.78,2669.15
1670.66,2686.5
1675.54,2696.6
1680.41,2677.85
1685.27,2698.6
1690.14,2723.35
1695.0,2689.2
1699.86,2734.3
1704.71,2749.6
1709.57,2735.5
1714.42,2758.15
1719.26,2773.25
1724.11,2776.65
1728.95,2783.55
1733.79,2800.25
1738.62,2848.4
1743.46,2838.05
1748.28,2841.85
1753.11,2848.1
1757.93,2905.8
1762.75,2915.05
1767.57,2899.75
1772.39,2898.7
1777.2,2954.65
1782.01,2960.95
1786.81,3003.0
1791.62,3030.55
1796.41,3007.1
1801.21,2993.25
1806.01,3085.95
1810.8,3044.1
1815.59,3077.95
1820.37,3052.65
1825.15,3112.25
1829.93,3095.35
1834.71,3129.95
1839.48,3107.25
1844.25,3121.4
1849.02,3145.15
1853.79,3214.65
1858.55,3248.2
1863.31,3233.95
1868.06,3271.1
1872.82,3246.8
1877.57,3317.9
1882.31,3314.55
1887.06,3334.65
1891.8,3341.15
1896.54,3330.35
1901.28,3365.1
1906.01,3318.5
1910.74,3375.9
1915.47,3389.9
1920.19,3356.15
1924.91,3379.65
1929.63,3405.55
1934.35,3433.3
1939.06,3452.7
1943.77,3344.05
1948.48,3487.5
1953.19,3452.7
1957.89,3396.05
1962.59,3485.9
1967.28,3426.0
1971.98,3496.3
1976.67,3492.6
1981.35,3523.75
1986.04,3477.8
1990.72,3557.6
1995.4,3538.45
2000.08,3550.05
2004.75,3600.55
2009.42,3581.55
2014.09,3512.7
2018.75,3590.6
2023.42,3600.85
2028.08,3636.9
2032.73,3595.65
2037.39,3616.2
2042.04,3568.55
2046.69,3601.3
2051.33,3670.35
2055.97,3599.45
2060.61,3662.2
2065.25,3709.6
2069.88,3667.5
2074.52,3665.8
2079.15,3656.95
2083.77,3788.1
2088.39,3747.85
2093.01,3753.35
2097.63,3737.7
2102.25,3742.3
2106.86,3698.05
2111.47,3792.15
2116.08,3762.6
2120.68,3796.95
2125.28,3806.2
2129.88,3791.1
2134.47,3740.95
2139.07,3739.45
2143.66,3801.3
2148.24,3778.05
2152.83,3798.2
2157.41,3787.45
2161.99,3720.65
2166.57,3714.35
2171.14,3778.95
2175.71,3744.5
2180.28,3762.25
2184.84,3773.7
2189.41,3701.25
2193.97,3721.6
2198.52,3654.05
2203.08,3704.75
2207.63,3733.55
2212.18,3645.7
2216.73,3604.35
2221.27,3676.1
2225.81,3613.75
2230.35,3536.65
2234.89,3555.5
2239.42,3616.45
2243.95,3499.9
2248.48,3527.45
2253.0,3490.65
2257.52,3480.9
2262.04,3453.1
2266.56,3429.55
2271.07,3442.4
2275.58,3397.55
2280.09,3386.05
2284.6,3355.35
2289.1,3299.9
2293.6,3366.4
2298.1,3366.95
2302.6,3272.65
2307.09,3243.3
2311.58,3266.85
2316.07,3274.8
2320.55,3235.75
2325.03,3203.05
2329.51,3199.45
2333.99,3199.8
2338.46,3185.55
2342.93,3130.85
2347.4,3159.75
2351.87,3142.55
2356.33,3162.6
2360.79,3072.75
2365.25,3065.45
2369.71,3079.45
2374.16,3078.2
2378.61,3025.95
2383.06,3012.55
2387.5,3039.2
2391.94,3036.1
2396.38,3021.3
2400.82,2990.75
2405.26,2985.1
2409.69,2972.4
2414.12,2999.95
2418.54,2968.2
2422.97,2999.15
2427.39,2972.0
2431.81,2981.65
2436.22,2945.2
2440.64,2938.35
2445.05,2947.05
2449.46,2915.5
2453.86,2874.15
2458.27,2941.6
2462.67,2883.2
2467.06,2858.6
2471.46,2861.2
2475.85,2838.2
2480.24,2880.95
2484.63,2866.6
2489.02,2866.6
2493.4,2834.4
2497.78,2807.15
2502.16,2802.65
2506.53,2809.85
2510.9,2822.2
2515.27,2811.25
2519.64,2801.8
2524.0,2828.55
2528.37,2802.65
2532.73,2778.05
2537.08,2776.45
2541.44,2795.25
2545.79,2760.85
2550.14,2721.35
2554.48,2765.75
2558.83,2752.25
2563.17,2737.15
2567.51,2774.85
2571.85,2718.55
2576.18,2712.8
2580.51,2716.05
2584.84,2740.65
2589.17,2718.2
2593.49,2744.6
2597.81,2726.45
2602.13,2721.3
2606.45,2712.55
2610.76,2719.95
2615.07,2707.9
2619.38,2704.05
2623.69,2727.6
2627.99,2679.45
2632.29,2702.3
2636.59,2687.8
2640.89,2688.2
2645.18,2674.3
2649.47,2701.7
2653.76,2691.35
2658.05,2714.45
2662.33,2698.3
2666.61,2671.5
2670.89,2706.3
2675.17,2669.3
2679.44,2679.35
2683.71,2666.55
2687.98,2692.5
2692.25,2708.35
2696.51,2714.3
2700.77,2705.65
2705.03,2760.05
2709.29,2781.5
2713.54,2790.65
2717.79,2844.25
2722.04,2836.8
2726.29,2806.35
2730.53,2783.1
2734.77,2744.05
2739.01,2689.15
2743.25,2675.9
2747.48,2655.85
2751.71,2639.4
2755.94,2625.5
2760.17,2598.6
2764.39,2618.5
2768.61,2618.35
2772.83,2608.65
2777.05,2607.9
2781.27,2570.45
2785.48,2625.2
2789.69,2612.25
2793.89,2621.0
2798.1,2606.2
2802.3,2644.95
2806.5,2655.95
2810.7,2632.5
2814.89,2678.9
2819.09,2727.75
2823.28,2754.6
2827.46,2884.7
2831.65,3175.3
2835.83,3677.2
2840.01,4495.3
2844.19,5491.2
2848.37,6057.6
2852.54,5806.95
2856.71,5341.1
2860.88,4987.7
2865.05,4750.65
2869.21,4695.35
2873.37,4983.9
2877.53,5730.7
2881.69,6280.5
2885.84,6072.5
2889.99,5281.55
2894.14,4994.15
2898.29,4881.95
2902.43,4650.1
2906.58,4506.9
2910.72,4285.45
2914.85,4096.55
2918.99,3994.9
2923.12,3930.1
2927.25,3943.55
2931.38,3837.3
2935.5,3712.8
2939.63,3547.6
2943.75,3300.7
2947.87,3060.2
2951.98,2914.35
2956.1,2851.15
2960.21,2763.8
2964.32,2755.0
2968.42,2717.9
2972.53,2678.25
2976.63,2676.3
2980.73,2615.9
2984.83,2631.55
2988.92,2625.8
2993.01,2600.8
2997.1,2601.45
3001.19,2624.55
3005.28,2601.6
3009.36,2580.4
3013.44,2591.5
3017.52,2599.45
3021.6,2590.15
3025.67,2578.6
3029.74,2590.8
3033.81,2524.15
3037.88,2556.75
3041.94,2595.65
3046.01,2569.05
3050.07,2552.95
3054.12,2587.0
3058.18,2581.95
3062.23,2540.65
3066.28,2537.85
3070.33,2591.45
3074.38,2557.5
3078.42,2573.85
3082.46,2543.15
3086.5,2557.75
3090.54,2554.95
3094.57,2581.8
3098.6,2557.5
3102.63,2571.4
3106.66,2574.45
3110.69,2562.15
3114.71,2536.7
3118.73,2564.25
3122.75,2582.15
3126.77,2560.9
3130.78,2574.95
3134.79,2587.05
3138.8,2563.15
3142.81,2575.3
3146.81,2588.75
3150.82,2561.7
3154.82,2538.5
3158.81,2555.0
3162.81,2611.35
3166.8,2602.15
3170.79,2564.8
3174.78,2561.45
3178.77,2570.7
3182.75,2589.4
3186.74,2607.25
3190.72,2581.65
3194.69,2588.95
3198.67,2621.35
3202.64,2577.85
3206.61,2594.5
3210.58,2596.15
3214.55,2584.75
3218.51,2595.45
3222.47,2616.45
3226.43,2595.75
3230.39,2602.65
3234.35,2614.2
3238.3,2575.95
3242.25,2642.45
3246.2,2584.25
3250.15,2587.7
3254.09,2594.65
3258.03,2660.65
3261.97,2590.3
3265.91,2601.5
3269.84,2639.4
3273.78,2604.85
3277.71,2617.7
3281.64,2619.5
3285.56,2632.05
3289.49,2623.4
3293.41,2632.7
3297.33,2631.3
3301.25,2617.95
3305.16,2616.0
3309.07,2622.9
3312.99,2615.0
3316.89,2630.15
3320.8,2625.75
3324.7,2610.0
3328.61,2632.75
3332.51,2614.65
3336.4,2619.15
3340.3,2580.15
3344.19,2630.25
3348.08,2612.9
3351.97,2629.4
3355.86,2589.0
3359.74,2588.25
3363.63,2628.4
3367.51,2601.05
3371.39,2575.85
3375.26,2590.75
3379.13,2620.55
3383.01,2609.9
3386.88,2595.5
3390.74,2562.3
3394.61,2530.15
3398.47,2577.1
3402.33,2591.05
3406.19,2593.65
3410.05,2565.95
3413.9,2544.1
3417.75,2567.5
3421.6,2587.05
3425.45,2603.75
3429.3,2580.8
3433.14,2594.85
3436.98,2603.0
3440.82,2583.3
3444.66,2543.9
3448.49,2540.45
3452.32,2557.45
3456.15,2587.55
3459.98,2564.5
3463.81,2580.7
3467.63,2578.05
3471.46,2551.55
3475.28,2546.5
3479.09,2590.5
3482.91,2520.0
3486.72,2515.85
3490.53,2534.2
3494.34,2530.5
3498.15,2572.45
3501.96,2546.35
3505.76,2517.4
3509.56,2524.15
3513.36,2487.25
3517.15,2489.9
3520.95,2514.05
3524.74,2485.1
3528.53,2514.55
3532.32,2499.1
3536.11,2492.0
3539.89,2494.25
3543.67,2524.65
3547.45,2473.45
3551.23,2462.6
3555.0,2456.4
3558.78,2455.75
3562.55,2480.45
3566.32,2467.5
3570.09,2454.45
3573.85,2454.7
3577.61,2458.25
3581.37,2474.05
3585.13,2405.0
3588.89,2415.95
3592.64,2415.15
3596.4,2429.4
3600.15,2411.35
3603.9,2413.75
3607.64,2406.55
3611.39,2387.5
3615.13,2421.5
3618.87,2375.9
3622.61,2354.35
3626.34,2327.5
3630.08,2377.15
3633.81,2379.85
3637.54,2328.95
3641.27,2343.9
3644.99,2354.3
3648.72,2355.5
3652.44,2341.75
3656.16,2337.6
3659.87,2321.7
3663.59,2330.95
3665.45,2332.7