File: spectra/VLFR_02-HDPE_bio_Raman_bb327efc.csv
nm,Intensity
528.635,1837.7
528.803,1838.0
528.972,1835.3
529.14,1836.2
529.308,1837.3
529.477,1834.6
529.645,1838.0
529.814,1837.2
529.982,1838.3
530.151,1837.3
530.319,1835.9
530.487,1839.0
530.656,1838.2
530.824,1837.0
530.993,1839.7
531.161,1839.9
531.329,1843.5
531.498,1843.9
531.666,1878.1
531.835,2485.6
532.003,4735.7
532.171,4593.4
532.34,2001.1
532.508,1840.6
532.676,1839.5
532.845,1837.0
533.013,1839.1
533.181,1837.7
533.35,1841.0
533.518,1861.3
533.686,1984.7
533.854,2203.2
534.023,2332.7
534.191,2345.9
534.359,2345.5
534.528,2347.5
534.696,2352.1
534.864,2375.6
535.032,2366.3
535.201,2314.6
535.369,2231.2
535.537,2167.1
535.705,2133.9
535.874,2103.0
536.042,2089.0
536.21,2069.7
536.378,2069.4
536.546,2064.0
536.715,2041.3
536.883,2045.7
537.051,2040.2
537.219,2046.9
537.387,2040.7
537.556,2055.9
537.724,2043.8
537.892,2040.9
538.06,2023.8
538.228,2027.8
538.396,2006.0
538.565,2021.1
538.733,2006.4
538.901,2004.4
539.069,1990.1
539.237,1987.0
539.405,1987.7
539.573,1984.0
539.741,1973.8
539.909,1983.7
540.077,1971.0
540.246,1973.1
540.414,1966.0
540.582,1971.6
540.75,1967.9
540.918,1969.7
541.086,1969.5
541.254,1964.1
541.422,1966.9
541.59,1964.4
541.758,1974.0
541.926,1973.0
542.094,1964.5
542.262,1960.0
542.43,1956.7
542.598,1961.6
542.766,1959.8
542.934,1960.8
543.102,1957.3
543.27,1962.7
543.438,1966.3
543.606,1967.3
543.774,1957.7
543.942,1962.7
544.11,1958.4
544.278,1949.3
544.445,1954.5
544.613,1959.2
544.781,1962.7
544.949,1961.5
545.117,1955.3
545.285,1957.2
545.453,1947.0
545.621,1942.0
545.789,1954.0
545.957,1958.5
546.124,1954.0
546.292,1948.8
546.46,1952.5
546.628,1945.3
546.796,1951.8
546.964,1952.1
547.131,1954.0
547.299,1949.6
547.467,1954.3
547.635,1958.8
547.803,1957.6
547.97,1954.9
548.138,1955.9
548.306,1947.6
548.474,1951.4
548.642,1957.6
548.809,1946.4
548.977,1945.2
549.145,1949.0
549.313,1946.0
549.48,1947.2
549.648,1948.1
549.816,1948.6
549.983,1952.9
550.151,1945.2
550.319,1951.6
550.487,1948.3
550.654,1947.5
550.822,1941.7
550.99,1946.3
551.157,1947.1
551.325,1952.0
551.493,1959.4
551.66,1954.4
551.828,1952.4
551.996,1949.8
552.163,1956.6
552.331,1946.9
552.499,1950.3
552.666,1952.6
552.834,1957.0
553.001,1963.5
553.169,1971.0
553.337,1981.8
553.504,1971.7
553.672,1973.6
553.839,1975.1
554.007,1976.3
554.174,1977.0
554.342,1984.6
554.509,1980.0
554.677,1983.7
554.845,1980.0
555.012,1978.5
555.18,1984.0
555.347,1982.9
555.515,1986.6
555.682,1995.5
555.85,1994.2
556.017,1996.1
556.185,2007.9
556.352,2001.9
556.52,2015.3
556.687,2002.5
556.854,2014.1
557.022,2008.2
557.189,2021.1
557.357,2032.6
557.524,2029.1
557.692,2035.0
557.859,2042.4
558.026,2064.5
558.194,2054.1
558.361,2056.6
558.529,2053.8
558.696,2063.1
558.863,2037.5
559.031,2036.0
559.198,2047.0
559.365,2031.2
559.533,2038.2
559.7,2022.7
559.867,2030.2
560.035,2033.1
560.202,2025.1
560.369,2020.9
560.537,2022.0
560.704,2027.5
560.871,2024.0
561.039,2027.4
561.206,2021.6
561.373,2029.9
561.54,2033.8
561.708,2029.5
561.875,2036.4
562.042,2037.8
562.209,2059.6
562.377,2056.6
562.544,2067.0
562.711,2068.3
562.878,2077.4
563.046,2068.4
563.213,2094.8
563.38,2106.6
563.547,2178.2
563.714,2443.4
563.881,3017.4
564.049,3362.7
564.216,2772.5
564.383,2306.8
564.55,2288.5
564.717,2257.6
564.884,2229.7
565.052,2190.1
565.219,2162.3
565.386,2169.4
565.553,2190.1
565.72,2279.8
565.887,2630.1
566.054,3409.9
566.221,3556.2
566.388,2707.4
566.555,2235.7
566.722,2143.7
566.889,2123.4
567.056,2133.5
567.224,2198.4
567.391,2282.6
567.558,2249.0
567.725,2130.2
567.892,2085.0
568.059,2075.9
568.226,2072.6
568.393,2082.0
568.56,2079.1
568.727,2070.9
568.893,2086.2
569.06,2073.3
569.227,2083.4
569.394,2081.5
569.561,2085.4
569.728,2064.3
569.895,2086.2
570.062,2090.3
570.229,2093.3
570.396,2123.5
570.563,2154.5
570.73,2183.6
570.897,2181.6
571.063,2244.9
571.23,2589.4
571.397,3543.8
571.564,4198.9
571.731,3163.6
571.898,2439.9
572.064,2264.9
572.231,2209.0
572.398,2160.4
572.565,2121.5
572.732,2099.5
572.899,2089.5
573.065,2071.2
573.232,2068.1
573.399,2076.6
573.566,2088.5
573.732,2123.7
573.899,2184.1
574.066,2174.3
574.233,2094.9
574.399,2068.1
574.566,2060.7
574.733,2066.2
574.9,2071.8
575.066,2116.0
575.233,2330.5
575.4,2789.5
575.566,3128.5
575.733,2735.3
575.9,2650.2
576.066,3057.3
576.233,3525.9
576.4,3401.5
576.566,3034.7
576.733,2954.8
576.899,2946.8
577.066,2931.7
577.233,2725.4
577.399,2481.8
577.566,2278.0
577.732,2205.0
577.899,2122.4
578.066,2116.7
578.232,2104.8
578.399,2086.0
578.565,2076.4
578.732,2058.0
578.898,2070.0
579.065,2074.7
579.231,2056.3
579.398,2061.8
579.564,2048.1
579.731,2041.6
579.897,2049.8
580.064,2042.3
580.23,2052.8
580.397,2051.5
580.563,2042.3
580.73,2030.7
580.896,2034.2
581.063,2035.8
581.229,2041.5
581.396,2039.2
581.562,2033.8
581.728,2043.2
581.895,2037.1
582.061,2030.0
582.228,2030.8
582.394,2024.2
582.56,2026.8
582.727,2038.9
582.893,2021.6
583.059,2023.4
583.226,2027.0
583.392,2018.8
583.558,2032.8
583.725,2014.2
583.891,2015.3
584.057,2023.0
584.224,2015.4
584.39,2016.7
584.556,2024.7
584.722,2022.3
584.889,2009.8
585.055,2020.2
585.221,2016.0
585.387,2024.5
585.554,2016.1
585.72,2012.0
585.886,2017.7
586.052,2019.4
586.219,2010.9
586.385,2017.6
586.551,2028.0
586.717,2023.2
586.883,2029.5
587.049,2015.2
587.216,2025.6
587.382,2023.1
587.548,2016.3
587.714,2016.8
587.88,2024.9
588.046,2025.6
588.212,2020.3
588.379,2024.6
588.545,2023.3
588.711,2014.3
588.877,2023.5
589.043,2029.4
589.209,2022.2
589.375,2024.7
589.541,2025.2
589.707,2012.1
589.873,2018.7
590.039,2024.7
590.205,2009.9
590.371,2025.3
590.537,2016.4
590.703,2021.4
590.869,2027.2
591.035,2017.0
591.201,2024.8
591.367,2021.0
591.533,2018.3
591.699,2026.3
591.865,2021.8
592.031,2020.7
592.197,2034.1
592.363,2017.6
592.529,2034.1
592.695,2026.9
592.86,2025.0
593.026,2033.3
593.192,2039.2
593.358,2035.8
593.524,2034.5
593.69,2028.9
593.856,2030.1
594.022,2039.4
594.187,2036.1
594.353,2031.2
594.519,2028.1
594.685,2033.8
594.851,2043.0
595.016,2055.2
595.182,2045.6
595.348,2045.9
595.514,2035.7
595.679,2051.7
595.845,2054.5
596.011,2046.7
596.177,2062.3
596.342,2062.4
596.508,2058.4
596.674,2054.2
596.84,2060.1
597.005,2065.5
597.171,2079.5
597.337,2074.1
597.502,2065.8
597.668,2063.9
597.834,2082.3
597.999,2082.7
598.165,2083.2
598.331,2092.4
598.496,2074.8
598.662,2080.8
598.827,2079.7
598.993,2094.8
599.159,2093.8
599.324,2111.6
599.49,2109.7
599.655,2109.1
599.821,2121.6
599.987,2118.5
600.152,2105.3
600.318,2101.9
600.483,2112.7
600.649,2110.1
600.814,2116.1
600.98,2106.3
601.145,2107.4
601.311,2111.2
601.476,2130.8
601.642,2123.7
601.807,2138.6
601.973,2167.5
602.138,2153.7
602.303,2142.3
602.469,2127.3
602.634,2125.6
602.8,2110.4
602.965,2107.2
603.13,2118.0
603.296,2097.9
603.461,2113.4
603.627,2108.8
603.792,2122.3
603.957,2119.1
604.123,2115.4
604.288,2114.4
604.453,2104.7
604.619,2089.7
604.784,2106.4
604.949,2091.0
605.115,2098.1
605.28,2083.3
605.445,2100.9
605.61,2094.7
605.776,2092.0
605.941,2081.7
606.106,2094.4
606.272,2075.5
606.437,2079.3
606.602,2082.9
606.767,2077.6
606.932,2068.9
607.098,2070.8
607.263,2078.2
607.428,2064.6
607.593,2062.7
607.758,2071.1
607.923,2069.4
608.089,2062.3
608.254,2061.2
608.419,2074.2
608.584,2065.1
608.749,2065.1
608.914,2069.1
609.079,2062.3
609.244,2065.0
609.41,2059.9
609.575,2061.6
609.74,2060.8
609.905,2066.7
610.07,2065.5
610.235,2064.4
610.4,2062.3
610.565,2069.1
610.73,2085.5
610.895,2100.5
611.06,2093.2
611.225,2105.1
611.39,2074.0
611.555,2070.5
611.72,2053.1
611.885,2067.5
612.05,2064.3
612.215,2053.7
612.38,2062.0
612.545,2048.1
612.709,2053.9
612.874,2051.7
613.039,2052.9
613.204,2052.0
613.369,2039.1
613.534,2052.0
613.699,2055.2
613.864,2044.7
614.028,2052.6
614.193,2061.7
614.358,2049.2
614.523,2053.8
614.688,2048.5
614.853,2059.2
615.017,2056.5
615.182,2068.9
615.347,2057.1
615.512,2068.9
615.676,2075.1
615.841,2073.1
616.006,2062.9
616.171,2078.6
616.335,2090.5
616.5,2083.2
616.665,2123.3
616.829,2138.8
616.994,2150.5
617.159,2162.6
617.324,2157.8
617.488,2165.8
617.653,2162.1
617.818,2164.2
617.982,2170.5
618.147,2158.7
618.311,2158.9
618.476,2159.9
618.641,2136.5
618.805,2142.6
618.97,2165.6
619.134,2172.0
619.299,2188.7
619.463,2206.5
619.628,2207.1
619.793,2215.9
619.957,2208.3
620.122,2180.7
620.286,2193.7
620.451,2219.6
620.615,2218.4
620.78,2226.8
620.944,2268.5
621.109,2300.9
621.273,2340.1
621.438,2426.3
621.602,2505.4
621.766,2550.2
621.931,2704.9
622.095,2784.1
622.26,2811.6
622.424,2776.8
622.588,2605.4
622.753,2467.3
622.917,2360.6
623.082,2308.5
623.246,2258.6
623.41,2223.2
623.575,2216.7
623.739,2223.5
623.903,2210.7
624.068,2194.2
624.232,2201.0
624.396,2211.2
624.56,2200.8
624.725,2210.6
624.889,2213.6
625.053,2234.0
625.218,2243.6
625.382,2274.2
625.546,2318.7
625.71,2360.6
625.874,2425.6
626.039,2496.9
626.203,2689.4
626.367,3085.6
626.531,3862.5
626.695,5349.5
626.86,7401.3
627.024,9841.5
627.188,11111.2
627.352,10206.2
627.516,8811.9
627.68,7587.0
627.844,7124.8
628.008,7094.7
628.172,7704.0
628.337,10112.2
628.501,11426.9
628.665,9606.2
628.829,7432.0
628.993,6777.7
629.157,6490.8
629.321,6104.3
629.485,5635.4
629.649,5212.8
629.813,4848.2
629.977,4708.2
630.141,4520.9
630.305,4444.2
630.469,4424.4
630.633,4113.0
630.797,3638.0
630.961,3170.9
631.124,2791.7
631.288,2565.8
631.452,2447.2
631.616,2351.7
631.78,2327.2
631.944,2268.8
632.108,2232.4
632.272,2213.2
632.436,2205.8
632.599,2196.0
632.763,2177.8
632.927,2169.9
633.091,2172.3
633.255,2165.0
633.418,2149.6
633.582,2133.1
633.746,2118.6
633.91,2110.6
634.074,2090.9
634.237,2094.0
634.401,2087.4
634.565,2073.1
634.728,2072.9
634.892,2054.6
635.056,2067.9
635.22,2050.6
635.383,2045.1
635.547,2036.8
635.711,2049.4
635.874,2041.3
636.038,2030.7
636.202,2044.3
636.365,2041.3
636.529,2036.5
636.692,2034.4
636.856,2023.7
637.02,2013.6
637.183,2006.7
637.347,1997.6
637.51,1994.2
637.674,1979.7
637.837,1991.0
638.001,1995.3
638.164,1976.0
638.328,1990.1
638.491,1976.1
638.655,1969.3
638.818,1976.7
638.982,1978.8
639.145,1967.8
639.309,1965.2
639.472,1964.7
639.636,1966.5
639.799,1962.1
639.963,1963.6
640.126,1958.1
640.289,1972.2
640.453,1968.5
640.616,1959.4
640.78,1947.8
640.943,1954.7
641.106,1967.5
641.27,1959.0
641.433,1949.8
641.596,1958.5
641.76,1961.3
641.923,1960.8
642.086,1953.3
642.249,1955.0
642.413,1957.8
642.576,1955.3
642.739,1947.8
642.903,1950.9
643.066,1950.8
643.229,1949.2
643.392,1954.7
643.555,1954.6
643.719,1949.0
643.882,1956.5
644.045,1950.8
644.208,1951.4
644.371,1950.4
644.534,1944.5
644.698,1953.1
644.861,1951.9
645.024,1960.1
645.187,1947.7
645.35,1942.7
645.513,1952.3
645.676,1949.0
645.839,1956.2
646.002,1951.9
646.165,1947.4
646.329,1946.8
646.492,1947.8
646.655,1945.7
646.818,1944.1
646.981,1941.7
647.144,1947.7
647.307,1948.1
647.47,1947.0
647.633,1948.2
647.796,1941.1
647.958,1947.3
648.121,1952.7
648.284,1949.2
648.447,1952.9
648.61,1943.7
648.773,1948.8
648.936,1939.5
649.099,1943.5
649.262,1949.7
649.425,1942.5
649.587,1942.1
649.75,1945.5
649.913,1946.3
650.076,1950.9
650.239,1944.9
650.402,1948.1
650.564,1960.0
650.727,1943.2
650.89,1946.1
651.053,1945.3
651.215,1950.6
651.378,1950.9
651.541,1949.8
651.704,1942.2
651.866,1948.9
652.029,1945.4
652.192,1939.1
652.354,1939.7
652.517,1944.5
652.68,1947.8
652.842,1946.5
653.005,1949.0
653.168,1943.1
653.33,1941.7
653.493,1941.9
653.656,1939.7
653.818,1940.2
653.981,1943.5
654.143,1938.1
654.306,1935.8
654.468,1940.0
654.631,1942.9
654.794,1935.4
654.956,1946.0
655.119,1935.6
655.281,1936.3
655.444,1934.5
655.606,1940.8
655.769,1935.3
655.931,1943.5
656.093,1942.1
656.256,1935.8
656.418,1935.1
656.581,1943.0
656.743,1940.1
656.906,1936.7
657.068,1936.4
657.23,1943.3
657.393,1939.5
657.555,1937.7
657.718,1938.5
657.88,1934.2
658.042,1932.9
658.205,1937.8
658.367,1932.3
658.529,1928.2
658.691,1932.4
658.854,1935.8
659.016,1925.6
659.178,1940.7
659.341,1934.5
659.503,1934.3
659.665,1943.3
659.827,1945.3
659.989,1943.0
660.152,1944.8
660.314,1941.0
660.476,1929.0
660.638,1936.6
660.8,1933.6
660.963,1927.0
661.044,1932.6