File: spectra/VLFR_02-HDPE_bio_Raman_0a487a0d.csv
nm,Intensity
526.547,830.9
526.684,832.6
526.821,831.9
526.958,832.55
527.095,832.05
527.232,831.75
527.368,832.6
527.505,832.4
527.642,833.65
527.779,832.0
527.916,831.55
528.052,831.6
528.189,832.3
528.326,832.15
528.463,831.35
528.599,831.75
528.736,831.85
528.873,831.45
529.009,832.15
529.146,832.1
529.283,831.6
529.419,831.8
529.556,832.0
529.693,832.8
529.829,831.9
529.966,831.7
530.103,831.3
530.239,832.25
530.376,832.15
530.512,832.25
530.649,831.9
530.785,831.65
530.922,831.55
531.059,831.9
531.195,832.15
531.332,832.05
531.468,832.2
531.605,831.95
531.741,831.45
531.878,832.3
532.014,844.25
532.151,892.1
532.287,883.15
532.423,839.8
532.56,832.45
532.696,832.65
532.833,831.9
532.969,832.6
533.106,831.25
533.242,831.95
533.378,832.9
533.515,832.75
533.651,832.95
533.787,838.15
533.924,857.45
534.06,879.05
534.196,883.8
534.333,882.55
534.469,881.2
534.605,878.6
534.742,878.15
534.878,878.65
535.014,875.8
535.15,875.6
535.287,874.35
535.423,868.2
535.559,863.25
535.695,863.65
535.832,858.9
535.968,858.2
536.104,858.7
536.24,856.3
536.376,857.4
536.513,856.25
536.649,855.3
536.785,854.3
536.921,852.35
537.057,852.45
537.193,855.0
537.329,854.6
537.465,853.4
537.602,853.5
537.738,853.7
537.874,853.65
538.01,854.65
538.146,854.1
538.282,851.95
538.418,853.35
538.554,851.7
538.69,851.8
538.826,850.2
538.962,851.75
539.098,849.6
539.234,851.9
539.37,850.75
539.506,849.4
539.642,848.1
539.778,848.2
539.914,848.1
540.05,847.4
540.186,848.9
540.322,847.8
540.458,847.8
540.594,846.55
540.729,846.6
540.865,848.2
541.001,847.3
541.137,847.45
541.273,846.45
541.409,847.1
541.545,846.95
541.68,848.0
541.816,848.1
541.952,847.35
542.088,847.8
542.224,847.3
542.36,847.1
542.495,847.45
542.631,847.5
542.767,847.55
542.903,849.05
543.038,848.15
543.174,846.7
543.31,848.8
543.446,848.45
543.581,848.05
543.717,848.35
543.853,849.25
543.988,847.2
544.124,847.95
544.26,850.0
544.395,848.95
544.531,850.4
544.667,850.5
544.802,851.5
544.938,849.75
545.074,848.75
545.209,850.3
545.345,849.05
545.481,849.5
545.616,849.0
545.752,849.9
545.887,851.75
546.023,853.2
546.158,852.35
546.294,851.1
546.43,852.8
546.565,850.7
546.701,850.1
546.836,849.05
546.972,849.8
547.107,849.5
547.243,847.8
547.378,847.75
547.514,848.95
547.649,849.1
547.785,848.45
547.92,848.5
548.056,847.65
548.191,848.1
548.326,848.75
548.462,847.2
548.597,846.75
548.733,848.7
548.868,848.0
549.004,847.7
549.139,848.5
549.274,848.75
549.41,848.2
549.545,848.3
549.68,848.35
549.816,849.8
549.951,849.95
550.086,849.45
550.222,851.0
550.357,849.4
550.492,850.95
550.628,851.95
550.763,850.8
550.898,851.25
551.034,851.8
551.169,851.1
551.304,851.4
551.439,850.5
551.575,850.65
551.71,850.35
551.845,848.85
551.98,849.2
552.116,848.95
552.251,849.3
552.386,847.75
552.521,848.0
552.656,848.4
552.792,848.95
552.927,848.55
553.062,849.2
553.197,849.8
553.332,849.65
553.467,849.8
553.603,851.25
553.738,849.15
553.873,849.7
554.008,849.85
554.143,850.15
554.278,851.75
554.413,850.2
554.548,850.45
554.683,850.35
554.819,850.9
554.954,850.75
555.089,851.25
555.224,851.45
555.359,850.7
555.494,850.25
555.629,852.2
555.764,851.85
555.899,851.65
556.034,850.7
556.169,853.7
556.304,852.75
556.439,853.5
556.574,853.2
556.709,852.1
556.844,853.45
556.979,854.55
557.114,853.3
557.249,853.05
557.384,854.65
557.519,855.75
557.653,855.3
557.788,856.25
557.923,855.3
558.058,855.6
558.193,855.35
558.328,855.75
558.463,856.6
558.598,856.95
558.733,854.95
558.867,855.95
559.002,855.7
559.137,855.55
559.272,855.6
559.407,856.0
559.542,855.85
559.677,855.35
559.811,855.35
559.946,857.15
560.081,854.7
560.216,855.35
560.351,854.55
560.485,853.5
560.62,855.8
560.755,854.9
560.89,854.1
561.024,855.95
561.159,855.75
561.294,855.25
561.429,857.65
561.563,855.6
561.698,857.95
561.833,857.5
561.967,866.25
562.102,873.95
562.237,890.05
562.371,902.85
562.506,904.1
562.641,890.9
562.775,874.2
562.91,863.4
563.045,861.6
563.179,860.7
563.314,860.7
563.449,862.1
563.583,863.25
563.718,867.55
563.853,884.9
563.987,933.8
564.122,963.45
564.256,913.35
564.391,879.85
564.525,874.85
564.66,873.3
564.795,875.2
564.929,871.5
565.064,871.3
565.198,868.7
565.333,867.05
565.467,867.55
565.602,870.6
565.736,873.45
565.871,880.4
566.005,904.25
566.14,973.8
566.274,994.1
566.409,922.35
566.543,880.3
566.678,870.65
566.812,866.45
566.947,867.2
567.081,865.35
567.216,864.4
567.35,869.6
567.484,875.25
567.619,873.25
567.753,865.85
567.888,861.15
568.022,861.5
568.156,861.3
568.291,860.95
568.425,861.0
568.56,862.1
568.694,861.15
568.828,861.8
568.963,860.75
569.097,863.05
569.231,863.45
569.366,863.65
569.5,862.25
569.634,864.2
569.769,862.65
569.903,864.45
570.037,863.95
570.172,862.35
570.306,866.8
570.44,869.55
570.575,868.3
570.709,873.05
570.843,873.5
570.977,873.3
571.112,874.7
571.246,878.55
571.38,905.2
571.514,1004.2
571.649,1034.75
571.783,934.0
571.917,896.0
572.051,888.65
572.185,884.7
572.32,880.35
572.454,876.35
572.588,874.25
572.722,873.75
572.856,872.45
572.991,871.45
573.125,873.25
573.259,872.15
573.393,872.3
573.527,871.95
573.661,876.25
573.795,877.05
573.93,881.15
574.064,884.65
574.198,878.25
574.332,877.2
574.466,878.2
574.6,875.6
574.734,878.25
574.868,877.6
575.002,876.75
575.136,881.1
575.271,887.1
575.405,907.15
575.539,954.85
575.673,952.9
575.807,922.35
575.941,919.2
576.075,931.6
576.209,963.95
576.343,989.0
576.477,974.45
576.611,953.3
576.745,947.5
576.879,950.5
577.013,949.25
577.147,948.3
577.281,943.4
577.415,931.15
577.549,918.2
577.683,912.8
577.817,910.6
577.951,910.0
578.085,908.65
578.218,911.35
578.352,912.9
578.486,909.2
578.62,914.7
578.754,915.55
578.888,917.25
579.022,921.1
579.156,919.8
579.29,921.45
579.424,926.15
579.557,928.85
579.691,927.05
579.825,929.6
579.959,935.65
580.093,938.05
580.227,938.4
580.361,939.05
580.494,938.7
580.628,944.35
580.762,943.65
580.896,947.15
581.03,947.0
581.164,951.7
581.297,952.35
581.431,954.75
581.565,957.5
581.699,955.65
581.832,960.5
581.966,960.05
582.1,964.7
582.234,964.15
582.368,968.2
582.501,969.9
582.635,969.15
582.769,971.7
582.903,975.5
583.036,972.45
583.17,975.55
583.304,974.55
583.437,979.2
583.571,975.0
583.705,976.85
583.838,976.35
583.972,981.4
584.106,976.5
584.24,976.8
584.373,978.2
584.507,978.05
584.641,976.8
584.774,974.45
584.908,975.7
585.041,979.65
585.175,978.95
585.309,976.1
585.442,976.1
585.576,976.3
585.71,975.9
585.843,977.9
585.977,977.25
586.11,973.5
586.244,978.9
586.378,976.3
586.511,976.25
586.645,973.8
586.778,973.35
586.912,974.25
587.045,972.55
587.179,973.8
587.313,971.95
587.446,971.85
587.58,968.35
587.713,969.4
587.847,970.55
587.98,969.5
588.114,966.95
588.247,965.35
588.381,964.9
588.514,965.65
588.648,965.35
588.781,965.95
588.915,961.65
589.048,962.4
589.182,963.35
589.315,962.1
589.449,964.8
589.582,963.05
589.715,961.25
589.849,962.05
589.982,964.95
590.116,962.25
590.249,963.85
590.383,959.9
590.516,963.25
590.649,961.45
590.783,965.2
590.916,962.2
591.05,962.8
591.183,958.7
591.316,961.45
591.45,959.2
591.583,961.65
591.717,961.9
591.85,959.6
591.983,962.2
592.117,961.6
592.25,959.65
592.383,961.2
592.517,961.05
592.65,961.6
592.783,961.45
592.917,961.45
593.05,957.3
593.183,958.5
593.317,957.65
593.45,959.05
593.583,960.65
593.717,957.75
593.85,959.35
593.983,956.95
594.116,959.25
594.25,959.65
594.383,961.0
594.516,958.35
594.649,962.55
594.783,956.45
594.916,959.05
595.049,958.5
595.182,961.2
595.316,960.4
595.449,961.15
595.582,961.6
595.715,961.6
595.849,960.85
595.982,960.6
596.115,961.05
596.248,961.0
596.381,962.0
596.514,961.1
596.648,960.95
596.781,962.0
596.914,962.95
597.047,964.25
597.18,964.25
597.313,964.35
597.447,961.45
597.58,963.25
597.713,962.15
597.846,963.95
597.979,964.45
598.112,964.95
598.245,968.55
598.379,968.3
598.512,968.45
598.645,965.0
598.778,967.7
598.911,970.6
599.044,970.0
599.177,971.5
599.31,972.45
599.443,968.5
599.576,969.0
599.709,967.3
599.842,971.5
599.975,973.15
600.109,970.05
600.242,971.35
600.375,967.6
600.508,971.95
600.641,968.45
600.774,970.95
600.907,970.5
601.04,969.55
601.173,970.85
601.306,967.0
601.439,969.05
601.572,970.45
601.705,967.15
601.838,973.3
601.971,969.9
602.104,971.05
602.237,972.6
602.37,969.85
602.503,970.9
602.636,967.35
602.768,966.8
602.901,967.6
603.034,968.75
603.167,963.05
603.3,963.2
603.433,963.95
603.566,963.55
603.699,963.5
603.832,960.95
603.965,961.7
604.098,960.5
604.231,960.75
604.364,954.95
604.496,956.85
604.629,958.35
604.762,952.8
604.895,955.0
605.028,950.35
605.161,947.95
605.294,949.15
605.427,947.5
605.559,946.75
605.692,945.4
605.825,946.85
605.958,944.7
606.091,944.75
606.224,941.15
606.356,941.1
606.489,939.1
606.622,939.25
606.755,939.85
606.888,936.35
607.02,932.7
607.153,933.9
607.286,934.9
607.419,936.25
607.552,935.9
607.684,933.0
607.817,934.85
607.95,931.55
608.083,931.85
608.215,934.45
608.348,931.75
608.481,930.45
608.614,932.8
608.746,928.4
608.879,929.55
609.012,928.2
609.145,927.05
609.277,929.5
609.41,924.4
609.543,925.55
609.675,924.95
609.808,924.5
609.941,922.95
610.074,921.3
610.206,921.95
610.339,922.45
610.472,919.3
610.604,921.8
610.737,921.1
610.87,921.3
611.002,919.9
611.135,920.2
611.268,923.6
611.4,918.7
611.533,918.8
611.666,916.6
611.798,921.0
611.931,915.85
612.063,917.75
612.196,918.6
612.329,913.1
612.461,915.7
612.594,916.6
612.727,914.25
612.859,916.2
612.992,913.95
613.124,916.25
613.257,913.9
613.39,914.3
613.522,913.5
613.655,911.9
613.787,914.85
613.92,913.7
614.052,911.7
614.185,912.1
614.317,912.55
614.45,910.8
614.583,912.6
614.715,908.15
614.848,910.8
614.98,911.4
615.113,911.6
615.245,910.5
615.378,909.55
615.51,906.5
615.643,909.15
615.775,907.3
615.908,908.1
616.04,910.0
616.173,908.65
616.305,908.75
616.438,912.05
616.57,908.0
616.703,907.25
616.835,910.6
616.968,913.4
617.1,912.9
617.233,912.85
617.365,913.7
617.498,913.65
617.63,912.1
617.762,910.15
617.895,913.5
618.027,909.15
618.16,914.7
618.292,913.0
618.425,911.95
618.557,913.7
618.689,912.95
618.822,913.05
618.954,912.8
619.087,910.15
619.219,910.7
619.351,912.65
619.484,914.55
619.616,915.5
619.749,914.3
619.881,915.75
620.013,918.85
620.146,913.2
620.278,912.9
620.41,917.3
620.543,915.1
620.675,915.9
620.808,917.15
620.94,918.75
621.072,917.05
621.205,922.25
621.337,924.5
621.469,928.4
621.602,930.6
621.734,933.1
621.866,939.25
621.998,945.3
622.131,949.3
622.263,956.45
622.395,955.35
622.528,953.55
622.66,942.95
622.792,937.95
622.925,933.0
623.057,927.35
623.189,923.05
623.321,924.65
623.454,921.2
623.586,919.9
623.718,920.45
623.85,920.35
623.983,917.6
624.115,917.45
624.247,919.95
624.379,920.9
624.512,921.4
624.644,922.25
624.776,924.8
624.908,923.65
625.041,925.15
625.173,924.15
625.305,926.85
625.437,927.85
625.569,932.1
625.702,930.3
625.834,936.85
625.966,938.1
626.098,941.3
626.23,949.9
626.363,964.1
626.495,982.15
626.627,1027.65
626.759,1091.15
626.891,1206.75
627.024,1371.6
627.156,1541.25
627.288,1607.4
627.42,1552.6
627.552,1452.9
627.684,1375.05
627.816,1320.2
627.949,1284.65
628.081,1278.8
628.213,1293.5
628.345,1366.2
628.477,1555.25
628.609,1745.15
628.741,1591.5
628.874,1391.35
629.006,1333.4
629.138,1304.85
629.27,1284.85
629.402,1265.6
629.534,1235.75
629.666,1202.5
629.798,1179.2
629.93,1158.35
630.062,1150.7
630.195,1144.65
630.327,1137.55
630.459,1139.15
630.591,1123.9
630.723,1104.0
630.855,1075.75
630.987,1047.5
631.119,1016.75
631.251,988.5
631.383,974.95
631.515,967.55
631.647,964.6
631.779,960.15
631.911,953.3
632.043,951.95
632.175,950.0
632.307,948.85
632.439,947.25
632.571,947.45
632.703,946.4
632.835,948.75
632.967,942.9
633.099,944.25
633.231,942.95
633.363,943.85
633.495,944.15
633.627,944.15
633.759,943.5
633.891,942.95
634.023,938.3
634.155,940.1
634.287,940.15
634.419,941.65
634.551,939.15
634.683,941.45
634.815,939.85
634.947,939.45
635.079,939.85
635.211,934.7
635.343,936.55
635.475,937.65
635.607,938.3
635.739,937.6
635.871,936.6
636.003,936.2
636.135,936.3
636.267,934.95
636.398,937.3
636.53,936.75
636.662,935.9
636.794,936.05
636.926,934.2
637.058,931.65
637.19,934.25
637.322,931.65
637.454,930.2
637.586,929.2
637.717,928.85
637.849,927.0
637.981,928.45
638.113,928.85
638.245,923.8
638.377,931.35
638.509,927.15
638.641,924.1
638.773,923.35
638.904,925.45
639.036,927.15
639.168,923.75
639.3,924.85
639.432,924.35
639.564,924.75
639.695,923.55
639.827,920.1
639.959,920.55
640.091,921.8
640.223,921.3
640.355,924.3
640.486,918.6
640.618,921.7
640.75,919.8
640.882,920.65
641.014,914.75
641.146,920.7
641.277,920.25
641.409,918.5
641.541,920.4
641.673,916.9
641.805,919.0
641.936,918.6
642.068,917.45
642.2,918.45
642.332,916.1
642.464,917.2
642.595,913.95
642.727,915.7
642.859,915.6
642.991,915.75
643.122,913.1
643.254,911.8
643.386,912.2
643.518,913.1
643.649,912.85
643.781,911.2
643.913,911.1
644.045,911.1
644.176,912.35
644.308,911.9
644.44,910.0
644.572,910.25
644.703,908.85
644.835,910.4
644.967,911.4
645.099,911.35
645.23,909.4
645.362,908.9
645.494,908.3
645.625,909.1
645.757,907.9
645.889,910.45
646.021,908.55
646.152,908.65
646.284,903.85
646.416,907.95
646.547,910.9
646.679,907.7
646.811,908.8
646.942,906.95
647.074,906.65
647.206,906.45
647.337,906.7
647.469,909.1
647.601,907.6
647.732,908.75
647.864,906.3
647.996,904.15
648.127,906.2
648.259,905.4
648.391,905.0
648.522,905.15
648.654,906.15
648.786,905.1
648.917,905.95
649.049,903.35
649.181,902.7
649.312,901.95
649.444,903.95
649.576,904.3
649.707,903.9
649.839,903.65
649.971,900.25
650.102,904.3
650.234,905.35
650.365,904.85
650.497,902.4
650.629,902.2
650.76,902.15
650.892,902.0
651.023,902.3
651.155,901.8
651.287,903.7
651.418,902.0
651.55,902.8
651.682,902.05
651.813,899.05
651.945,900.5
652.076,902.05
652.208,903.2
652.339,900.4
652.471,902.4
652.603,900.4
652.734,902.95
652.866,898.75
652.997,902.5
653.129,902.7
653.261,901.1
653.392,899.95
653.524,899.15
653.655,899.75
653.787,899.6
653.918,900.4
654.05,900.5
654.181,903.3
654.313,900.35
654.445,898.1
654.576,899.3
654.708,898.1
654.839,898.6
654.971,899.85
655.102,901.7
655.234,898.7
655.365,899.3
655.497,899.65
655.628,899.4
655.76,898.95
655.892,896.95
656.023,896.9
656.155,896.9
656.286,898.15
656.418,896.5
656.549,897.9
656.681,897.2
656.812,896.1
656.944,896.3
657.075,896.5
657.207,896.3
657.338,894.6
657.47,895.8
657.601,896.3
657.733,895.1
657.864,896.55
657.996,895.5
658.127,894.65
658.259,895.75
658.39,893.95
658.522,892.6
658.653,893.9
658.785,893.45
658.916,893.85
659.048,892.0
659.179,893.8
659.311,893.3
659.442,889.75
659.574,892.7
659.705,891.55
659.836,891.5
659.968,893.55
660.099,893.4
660.231,891.25
660.362,891.05
660.494,890.65
660.625,888.45
660.757,890.55
660.888,889.15
661.02,887.0
661.151,888.9
661.283,887.65
661.414,887.8
661.545,886.85
661.677,888.2
661.808,883.8
661.94,886.2
662.071,886.5
662.203,886.7
662.334,884.9
662.466,882.55
662.597,883.75
662.728,883.3
662.86,883.25
662.991,882.35
663.123,879.5