File: spectra/VLFR_06-PET_bio_Raman_95da8dbb.csv
nm,Intensity
528.637,1840.3
528.806,1838.7
528.974,1839.6
529.143,1839.0
529.311,1839.2
529.48,1838.3
529.648,1837.8
529.816,1838.9
529.985,1840.0
530.153,1839.8
530.322,1840.8
530.49,1841.2
530.659,1838.4
530.827,1842.1
530.995,1842.3
531.164,1844.7
531.332,1843.2
531.5,1850.5
531.669,1903.0
531.837,2600.3
532.006,4789.1
532.174,3937.7
532.342,1980.1
532.511,1847.6
532.679,1844.1
532.847,1846.5
533.016,1844.1
533.184,1849.9
533.352,1876.4
533.521,2082.9
533.689,3263.7
533.857,5238.9
534.025,6107.2
534.194,5954.4
534.362,5654.1
534.53,5221.8
534.699,4994.5
534.867,4570.9
535.035,4266.9
535.203,3973.4
535.372,3720.1
535.54,3452.2
535.708,3256.3
535.876,3047.4
536.045,2883.8
536.213,2772.6
536.381,2710.1
536.549,2675.8
536.717,2634.8
536.886,2583.0
537.054,2548.6
537.222,2558.6
537.39,2531.9
537.558,2548.3
537.726,2498.4
537.895,2514.7
538.063,2543.1
538.231,2525.2
538.399,2564.5
538.567,2526.2
538.735,2518.1
538.903,2550.2
539.072,2552.2
539.24,2581.0
539.408,2583.9
539.576,2657.8
539.744,2653.9
539.912,2679.7
540.08,2651.1
540.248,2612.2
540.416,2529.9
540.584,2480.5
540.752,2477.6
540.92,2469.0
541.088,2447.2
541.256,2437.6
541.425,2457.9
541.593,2412.8
541.761,2441.8
541.929,2435.7
542.097,2444.6
542.265,2451.9
542.433,2443.4
542.601,2465.7
542.769,2469.5
542.937,2463.9
543.104,2463.4
543.272,2450.0
543.44,2458.0
543.608,2476.6
543.776,2496.2
543.944,2518.1
544.112,2494.3
544.28,2502.9
544.448,2502.8
544.616,2495.0
544.784,2487.5
544.952,2505.2
545.12,2502.7
545.288,2512.1
545.455,2494.5
545.623,2539.7
545.791,2528.7
545.959,2518.0
546.127,2522.4
546.295,2547.0
546.463,2549.4
546.63,2561.5
546.798,2576.7
546.966,2574.2
547.134,2583.7
547.302,2581.4
547.47,2586.5
547.637,2568.2
547.805,2587.3
547.973,2597.9
548.141,2604.2
548.308,2617.1
548.476,2597.5
548.644,2617.1
548.812,2618.0
548.98,2624.1
549.147,2616.3
549.315,2601.9
549.483,2619.8
549.65,2641.3
549.818,2620.7
549.986,2655.2
550.154,2644.6
550.321,2734.5
550.489,3087.0
550.657,3389.3
550.824,3003.9
550.992,2730.3
551.16,2724.9
551.327,2715.7
551.495,2743.2
551.663,2702.5
551.83,2724.6
551.998,2744.2
552.166,2746.5
552.333,2780.3
552.501,2810.0
552.668,2934.7
552.836,3038.1
553.004,2907.9
553.171,2778.2
553.339,2771.2
553.506,2775.9
553.674,2806.6
553.842,2824.1
554.009,2826.2
554.177,2816.4
554.344,2826.7
554.512,2872.4
554.679,2843.0
554.847,2852.7
555.014,2912.3
555.182,2915.9
555.349,3050.5
555.517,3124.7
555.684,3190.2
555.852,3184.5
556.019,3158.7
556.187,3192.7
556.354,3219.2
556.522,3220.4
556.689,3239.3
556.857,3304.9
557.024,3363.6
557.192,3563.1
557.359,3905.7
557.526,4109.1
557.694,3888.3
557.861,3542.6
558.029,3388.1
558.196,3430.7
558.363,3387.8
558.531,3382.1
558.698,3331.4
558.866,3265.0
559.033,3190.5
559.2,3132.2
559.368,3090.3
559.535,3031.3
559.702,3121.6
559.87,3056.2
560.037,3088.1
560.204,3074.2
560.372,3063.4
560.539,3064.7
560.706,3106.8
560.873,3120.8
561.041,3132.0
561.208,3174.6
561.375,3185.2
561.543,3186.6
561.71,3170.2
561.877,3217.5
562.044,3247.3
562.211,3317.2
562.379,3272.7
562.546,3282.3
562.713,3318.7
562.88,3393.7
563.048,3381.9
563.215,3347.9
563.382,3322.0
563.549,3282.9
563.716,3319.8
563.883,3280.2
564.051,3323.6
564.218,3262.9
564.385,3378.0
564.552,3431.7
564.719,3462.5
564.886,3620.2
565.053,3642.6
565.221,3785.4
565.388,3857.3
565.555,4023.8
565.722,4026.9
565.889,4071.5
566.056,3922.4
566.223,3807.8
566.39,3593.0
566.557,3476.6
566.724,3432.6
566.891,3467.3
567.058,3443.6
567.225,3482.9
567.392,3634.1
567.559,3821.6
567.726,3809.8
567.893,3700.8
568.06,3557.5
568.227,3558.3
568.394,3501.7
568.561,3483.6
568.728,3536.1
568.895,3511.2
569.062,3522.4
569.229,3518.9
569.396,3566.7
569.563,3651.8
569.73,3653.9
569.897,3727.3
570.064,3798.5
570.231,3856.6
570.398,4072.0
570.564,4266.3
570.731,4410.5
570.898,4685.3
571.065,4915.0
571.232,5224.0
571.399,5069.6
571.566,4854.8
571.732,4526.0
571.899,4401.3
572.066,4195.2
572.233,4056.1
572.4,3953.4
572.566,3767.6
572.733,3761.2
572.9,3755.6
573.067,3780.2
573.234,3757.8
573.4,3739.3
573.567,3748.7
573.734,3810.6
573.901,3857.3
574.067,3877.1
574.234,3896.3
574.401,3800.7
574.568,3822.0
574.734,3831.2
574.901,3827.0
575.068,3933.3
575.234,4076.8
575.401,3992.6
575.568,3990.5
575.734,3931.3
575.901,3951.1
576.068,4024.6
576.234,4033.4
576.401,4126.0
576.568,4087.6
576.734,4098.0
576.901,4104.1
577.067,4011.7
577.234,3914.0
577.401,3943.0
577.567,3908.9
577.734,3862.1
577.9,3856.7
578.067,3904.8
578.233,3916.2
578.4,3921.3
578.567,3901.5
578.733,3931.8
578.9,3884.2
579.066,3940.1
579.233,4004.9
579.399,3940.6
579.566,3902.6
579.732,3981.2
579.899,4020.3
580.065,4006.6
580.231,3979.7
580.398,4002.7
580.564,4078.8
580.731,4106.9
580.897,4137.3
581.064,4193.8
581.23,4172.4
581.397,4287.8
581.563,4633.7
581.729,5406.6
581.896,7187.0
582.062,9187.3
582.228,8946.9
582.395,6227.7
582.561,4698.5
582.728,4294.2
582.894,4192.1
583.06,4240.4
583.227,4176.5
583.393,4074.4
583.559,4145.5
583.726,4172.5
583.892,4159.1
584.058,4152.0
584.224,4216.2
584.391,4250.7
584.557,4248.8
584.723,4257.0
584.889,4320.1
585.056,4282.9
585.222,4644.2
585.388,5049.0
585.554,5966.1
585.721,6777.5
585.887,7317.8
586.053,7177.6
586.219,6557.8
586.385,6130.7
586.552,5290.4
586.718,4801.5
586.884,4536.5
587.05,4378.4
587.216,4309.8
587.382,4332.2
587.549,4261.3
587.715,4308.8
587.881,4320.0
588.047,4214.9
588.213,4204.5
588.379,4327.8
588.545,4278.3
588.711,4286.5
588.877,4285.5
589.043,4220.7
589.209,4220.9
589.375,4224.5
589.542,4277.7
589.708,4224.5
589.874,4246.7
590.04,4266.3
590.206,4223.4
590.372,4213.4
590.538,4282.9
590.704,4255.4
590.87,4173.1
591.036,4262.2
591.201,4327.8
591.367,4277.4
591.533,4274.4
591.699,4234.7
591.865,4323.8
592.031,4355.0
592.197,4321.0
592.363,4289.7
592.529,4321.1
592.695,4333.9
592.861,4307.3
593.027,4345.9
593.192,4257.5
593.358,4309.5
593.524,4301.5
593.69,4239.7
593.856,4329.2
594.022,4315.3
594.187,4302.0
594.353,4339.3
594.519,4362.1
594.685,4368.3
594.851,4290.6
595.016,4354.8
595.182,4379.6
595.348,4363.7
595.514,4363.2
595.679,4401.7
595.845,4333.9
596.011,4387.0
596.177,4404.5
596.342,4387.5
596.508,4394.4
596.674,4415.1
596.84,4442.5
597.005,4375.6
597.171,4371.4
597.337,4416.8
597.502,4358.1
597.668,4409.6
597.833,4387.8
597.999,4392.7
598.165,4386.6
598.33,4445.8
598.496,4422.5
598.662,4466.4
598.827,4387.1
598.993,4397.1
599.158,4438.8
599.324,4426.1
599.489,4474.1
599.655,4473.2
599.821,4416.4
599.986,4443.2
600.152,4484.0
600.317,4503.1
600.483,4388.8
600.648,4473.2
600.814,4502.0
600.979,4457.8
601.145,4496.2
601.31,4434.6
601.476,4472.5
601.641,4466.0
601.807,4482.3
601.972,4454.5
602.137,4472.6
602.303,4430.5
602.468,4451.8
602.634,4470.7
602.799,4502.2
602.964,4551.2
603.13,4483.2
603.295,4478.0
603.461,4526.5
603.626,4500.9
603.791,4525.1
603.957,4469.2
604.122,4488.1
604.287,4436.0
604.453,4478.1
604.618,4477.8
604.783,4437.2
604.949,4465.2
605.114,4459.1
605.279,4443.8
605.444,4516.4
605.61,4528.5
605.775,4492.1
605.94,4483.5
606.105,4541.6
606.271,4439.1
606.436,4426.9
606.601,4534.8
606.766,4559.4
606.931,4559.5
607.097,4437.3
607.262,4498.1
607.427,4539.4
607.592,4509.5
607.757,4564.0
607.922,4539.3
608.088,4510.6
608.253,4502.9
608.418,4571.6
608.583,4498.0
608.748,4511.5
608.913,4495.2
609.078,4461.9
609.243,4593.5
609.408,4475.9
609.573,4543.5
609.738,4516.7
609.903,4464.9
610.068,4544.3
610.233,4574.3
610.399,4574.2
610.564,4492.6
610.729,4542.8
610.894,4518.1
611.058,4625.1
611.223,4523.7
611.388,4585.4
611.553,4515.0
611.718,4489.7
611.883,4604.6
612.048,4563.5
612.213,4533.4
612.378,4567.4
612.543,4581.7
612.708,4514.7
612.873,4551.2
613.038,4637.5
613.202,4521.6
613.367,4584.0
613.532,4506.6
613.697,4539.4
613.862,4575.5
614.027,4650.8
614.192,4575.4
614.356,4592.6
614.521,4629.2
614.686,4606.2
614.851,4544.1
615.016,4580.8
615.18,4566.7
615.345,4606.4
615.51,4609.5
615.675,4651.9
615.839,4654.8
616.004,4618.0
616.169,4538.5
616.333,4597.1
616.498,4563.8
616.663,4603.0
616.827,4642.8
616.992,4616.2
617.157,4643.9
617.321,4645.1
617.486,4714.3
617.651,4676.7
617.815,4589.2
617.98,4705.0
618.145,4661.7
618.309,4643.7
618.474,4703.8
618.638,4637.5
618.803,4738.6
618.968,4668.3
619.132,4720.6
619.297,4654.1
619.461,4642.5
619.626,4715.6
619.79,4672.2
619.955,4601.4
620.119,4614.2
620.284,4723.7
620.448,4717.3
620.613,4691.0
620.777,4653.9
620.942,4735.5
621.106,4700.9
621.271,4673.2
621.435,4701.1
621.599,4636.1
621.764,4724.7
621.928,4711.1
622.093,4747.0
622.257,4700.9
622.421,4670.3
622.586,4688.1
622.75,4749.8
622.915,4767.3
623.079,4662.5
623.243,4751.6
623.408,4764.5
623.572,4707.3
623.736,4694.8
623.9,4752.7
624.065,4826.5
624.229,4845.4
624.393,4780.2
624.558,4774.4
624.722,4755.5
624.886,4793.9
625.05,4908.1
625.215,4780.7
625.379,4830.7
625.543,4735.5
625.707,4753.1
625.871,4875.5
626.036,4810.8
626.2,4877.7
626.364,4807.5
626.528,4787.7
626.692,4767.3
626.856,4845.9
627.02,4749.0
627.185,4833.6
627.349,4919.2
627.513,4925.9
627.677,4884.5
627.841,4831.0
628.005,4882.3
628.169,4906.3
628.333,4932.0
628.497,5078.1
628.661,5077.3
628.825,5076.7
628.989,5063.8
629.153,5099.1
629.317,5105.7
629.481,5083.4
629.645,5039.9
629.809,5158.4
629.973,5072.7
630.137,5116.4
630.301,4965.7
630.465,5060.9
630.629,5094.1
630.793,5187.8
630.957,5269.9
631.121,5438.4
631.285,5730.3
631.449,5848.1
631.612,5946.0
631.776,5906.1
631.94,5901.7
632.104,5862.6
632.268,5728.4
632.432,5559.8
632.596,5480.3
632.759,5493.3
632.923,5399.0
633.087,5436.9
633.251,5595.7
633.414,5439.2
633.578,5308.2
633.742,5415.9
633.906,5432.2
634.069,5295.1
634.233,5251.6
634.397,5233.7
634.561,5215.2
634.724,5265.3
634.888,5256.7
635.052,5334.2
635.215,5281.6
635.379,5252.0
635.543,5358.1
635.706,5439.3
635.87,5586.4
636.034,5777.9
636.197,5937.4
636.361,6185.2
636.524,6196.3
636.688,6155.3
636.852,5813.1
637.015,5608.5
637.179,5574.9
637.342,5405.1
637.506,5405.1
637.669,5374.9
637.833,5385.9
637.996,5317.5
638.16,5235.4
638.323,5304.9
638.487,5273.8
638.65,5218.0
638.814,5297.9
638.977,5242.4
639.141,5273.1
639.304,5290.6
639.468,5262.1
639.631,5283.3
639.794,5273.0
639.958,5217.4
640.121,5281.5
640.285,5241.8
640.448,5230.8
640.611,5164.0
640.775,5302.3
640.938,5254.6
641.101,5190.7
641.265,5215.1
641.428,5260.9
641.591,5199.0
641.755,5365.2
641.918,5254.1
642.081,5234.6
642.244,5296.6
642.408,5344.5
642.571,5296.9
642.734,5191.4
642.897,5316.3
643.061,5346.0
643.224,5229.3
643.387,5170.6
643.55,5242.1
643.713,5298.0
643.876,5271.5
644.04,5249.8
644.203,5273.5
644.366,5272.7
644.529,5161.1
644.692,5219.2
644.855,5230.6
645.018,5212.3
645.181,5183.4
645.345,5390.9
645.508,5335.7
645.671,5269.7
645.834,5196.1
645.997,5228.7
646.16,5286.1
646.323,5384.3
646.486,5206.8
646.649,5166.5
646.812,5248.7
646.975,5167.4
647.138,5252.6
647.301,5244.9
647.464,5310.6
647.627,5278.6
647.79,5186.6
647.953,5178.4
648.115,5228.0
648.278,5026.3
648.441,5156.1
648.604,5129.9
648.767,5243.5
648.93,5055.1
649.093,5170.5
649.256,5071.4
649.418,5289.9
649.581,5114.0
649.744,5136.9
649.907,5131.3
650.07,5048.3
650.233,5069.1
650.395,5140.6
650.558,5037.8
650.721,4990.8
650.884,5177.2
651.046,5195.6
651.209,5139.5
651.372,5009.0
651.534,5062.5
651.697,5083.8
651.86,5075.9
652.023,5067.2
652.185,4986.5
652.348,5067.3
652.511,5004.5
652.673,5144.8
652.836,4913.5
652.998,4845.3
653.161,4978.3
653.324,4906.2
653.486,4935.6
653.649,4936.2
653.811,4902.8
653.974,4941.3
654.137,4810.7
654.299,4766.1
654.462,4816.0
654.624,4877.5
654.787,4804.7
654.949,4874.9
655.112,4807.7
655.274,4961.3
655.437,4890.9
655.599,4796.8
655.761,4756.7
655.924,4745.6
656.086,4671.5
656.249,4763.7
656.411,4724.4
656.574,4754.1
656.736,4715.9
656.898,4761.6
657.061,4650.7
657.223,4690.4
657.385,4814.5
657.548,4600.3
657.71,4690.3
657.872,4621.7
658.035,4665.6
658.197,4575.6
658.359,4694.2
658.522,4542.7
658.684,4683.7
658.846,4597.9
659.008,4542.1
659.171,4535.0
659.333,4535.7
659.495,4454.4
659.657,4499.4
659.82,4440.1
659.982,4603.2
660.144,4503.0
660.306,4481.7
660.468,4473.5
660.63,4430.7
660.793,4511.2
660.955,4489.8
661.036,4440.6