File: spectra/VLFR_02-HDPE_bio_Raman_6bf2f0cc.csv
nm,Intensity
526.547,831.8
526.684,832.7
526.821,831.8
526.958,832.3
527.095,831.7
527.232,832.05
527.368,833.05
527.505,832.35
527.642,831.9
527.779,832.0
527.916,832.35
528.052,832.6
528.189,832.35
528.326,832.95
528.463,831.45
528.599,831.25
528.736,832.45
528.873,832.5
529.009,832.2
529.146,832.15
529.283,831.75
529.419,831.8
529.556,831.9
529.693,831.2
529.829,831.7
529.966,831.6
530.103,831.5
530.239,831.75
530.376,831.7
530.512,833.55
530.649,831.95
530.785,832.6
530.922,832.35
531.059,831.65
531.195,832.65
531.332,832.15
531.468,831.8
531.605,831.3
531.741,832.3
531.878,831.5
532.014,840.6
532.151,873.8
532.287,866.65
532.423,837.15
532.56,832.75
532.696,831.1
532.833,831.95
532.969,832.9
533.106,830.9
533.242,832.55
533.378,832.3
533.515,831.75
533.651,833.05
533.787,840.25
533.924,872.95
534.06,911.4
534.196,923.25
534.333,923.2
534.469,920.6
534.605,919.1
534.742,920.4
534.878,924.65
535.014,919.5
535.15,918.3
535.287,913.55
535.423,910.9
535.559,904.7
535.695,900.45
535.832,895.9
535.968,894.05
536.104,891.55
536.24,889.6
536.376,888.3
536.513,890.35
536.649,887.1
536.785,884.9
536.921,885.85
537.057,887.9
537.193,885.15
537.329,883.9
537.465,885.65
537.602,887.4
537.738,885.5
537.874,883.5
538.01,886.3
538.146,884.85
538.282,882.9
538.418,882.85
538.554,883.1
538.69,881.4
538.826,880.7
538.962,882.2
539.098,880.65
539.234,880.25
539.37,880.9
539.506,877.3
539.642,877.7
539.778,879.0
539.914,878.05
540.05,877.4
540.186,880.6
540.322,878.7
540.458,875.4
540.594,876.6
540.729,876.75
540.865,878.35
541.001,877.35
541.137,877.9
541.273,877.15
541.409,879.2
541.545,877.65
541.68,878.9
541.816,874.55
541.952,879.05
542.088,876.9
542.224,877.25
542.36,877.25
542.495,877.9
542.631,877.55
542.767,877.7
542.903,878.65
543.038,878.3
543.174,877.55
543.31,878.15
543.446,875.85
543.581,879.4
543.717,876.2
543.853,879.05
543.988,878.7
544.124,878.8
544.26,880.6
544.395,876.85
544.531,880.45
544.667,879.35
544.802,879.65
544.938,879.5
545.074,879.5
545.209,880.35
545.345,879.35
545.481,880.15
545.616,880.9
545.752,881.2
545.887,880.35
546.023,880.15
546.158,880.4
546.294,880.3
546.43,883.8
546.565,881.4
546.701,881.8
546.836,881.45
546.972,881.7
547.107,880.1
547.243,881.55
547.378,881.25
547.514,880.4
547.649,881.45
547.785,880.4
547.92,882.45
548.056,879.15
548.191,881.05
548.326,880.45
548.462,881.45
548.597,880.85
548.733,881.05
548.868,882.7
549.004,879.1
549.139,881.8
549.274,881.0
549.41,881.05
549.545,879.9
549.68,881.15
549.816,881.6
549.951,881.65
550.086,880.8
550.222,881.15
550.357,879.95
550.492,882.75
550.628,881.1
550.763,881.7
550.898,882.3
551.034,880.25
551.169,880.75
551.304,881.9
551.439,880.05
551.575,880.45
551.71,883.25
551.845,881.6
551.98,881.0
552.116,881.3
552.251,880.95
552.386,880.3
552.521,880.2
552.656,880.15
552.792,881.2
552.927,881.0
553.062,882.35
553.197,881.3
553.332,881.25
553.467,882.65
553.603,882.75
553.738,882.25
553.873,880.8
554.008,883.9
554.143,883.95
554.278,882.1
554.413,882.95
554.548,883.5
554.683,882.1
554.819,884.2
554.954,883.55
555.089,882.65
555.224,882.15
555.359,884.6
555.494,883.45
555.629,883.75
555.764,884.05
555.899,880.95
556.034,879.65
556.169,882.55
556.304,884.7
556.439,882.3
556.574,881.8
556.709,882.05
556.844,883.15
556.979,884.4
557.114,885.6
557.249,884.1
557.384,885.05
557.519,883.2
557.653,884.55
557.788,886.0
557.923,885.45
558.058,887.0
558.193,885.45
558.328,887.0
558.463,885.4
558.598,885.95
558.733,886.95
558.867,884.55
559.002,884.3
559.137,885.5
559.272,885.5
559.407,884.8
559.542,884.1
559.677,885.9
559.811,885.2
559.946,884.05
560.081,887.35
560.216,886.65
560.351,888.5
560.485,886.25
560.62,884.6
560.755,882.65
560.89,884.9
561.024,884.95
561.159,888.55
561.294,885.95
561.429,886.8
561.563,884.4
561.698,886.0
561.833,888.2
561.967,886.3
562.102,888.45
562.237,889.4
562.371,888.3
562.506,889.05
562.641,890.2
562.775,891.2
562.91,892.0
563.045,892.85
563.179,893.65
563.314,894.0
563.449,896.3
563.583,899.15
563.718,902.85
563.853,920.75
563.987,972.55
564.122,996.4
564.256,947.45
564.391,913.25
564.525,909.35
564.66,910.0
564.795,906.75
564.929,908.65
565.064,905.75
565.198,901.6
565.333,900.5
565.467,899.3
565.602,899.35
565.736,903.15
565.871,909.6
566.005,925.45
566.14,970.85
566.274,990.4
566.409,941.8
566.543,908.6
566.678,901.65
566.812,899.75
566.947,900.5
567.081,901.45
567.216,901.9
567.35,904.6
567.484,919.65
567.619,914.65
567.753,902.75
567.888,899.25
568.022,898.4
568.156,898.5
568.291,900.9
568.425,901.1
568.56,898.65
568.694,901.2
568.828,900.85
568.963,900.5
569.097,900.35
569.231,901.05
569.366,902.05
569.5,901.5
569.634,904.05
569.769,907.85
569.903,905.35
570.037,905.5
570.172,904.55
570.306,905.65
570.44,907.45
570.575,910.65
570.709,912.8
570.843,910.85
570.977,914.2
571.112,915.6
571.246,920.5
571.38,948.25
571.514,1040.7
571.649,1082.75
571.783,977.8
571.917,940.3
572.051,928.0
572.185,925.05
572.32,918.7
572.454,916.7
572.588,915.35
572.722,912.75
572.856,913.65
572.991,912.95
573.125,914.7
573.259,913.2
573.393,914.55
573.527,914.65
573.661,917.85
573.795,916.85
573.93,927.0
574.064,926.8
574.198,924.1
574.332,921.05
574.466,920.35
574.6,919.45
574.734,919.85
574.868,921.25
575.002,920.65
575.136,922.8
575.271,928.45
575.405,940.9
575.539,974.25
575.673,980.0
575.807,961.25
575.941,959.95
576.075,983.65
576.209,1027.85
576.343,1074.95
576.477,1058.2
576.611,1019.25
576.745,1006.75
576.879,1008.7
577.013,1013.9
577.147,1019.65
577.281,1005.75
577.415,986.95
577.549,971.55
577.683,964.7
577.817,957.5
577.951,959.8
578.085,954.6
578.218,955.5
578.352,957.7
578.486,963.2
578.62,966.1
578.754,963.5
578.888,966.15
579.022,966.2
579.156,965.75
579.29,970.0
579.424,973.15
579.557,975.35
579.691,977.8
579.825,979.1
579.959,981.0
580.093,983.7
580.227,986.85
580.361,989.85
580.494,987.15
580.628,994.85
580.762,995.05
580.896,995.1
581.03,999.35
581.164,1001.6
581.297,1004.6
581.431,1005.35
581.565,1009.85
581.699,1015.2
581.832,1013.95
581.966,1018.05
582.1,1018.8
582.234,1023.65
582.368,1025.25
582.501,1027.8
582.635,1032.9
582.769,1034.5
582.903,1033.15
583.036,1038.85
583.17,1042.25
583.304,1042.35
583.437,1043.25
583.571,1047.1
583.705,1052.85
583.838,1050.85
583.972,1055.95
584.106,1057.15
584.24,1057.05
584.373,1059.85
584.507,1062.45
584.641,1061.85
584.774,1069.3
584.908,1069.85
585.041,1074.4
585.175,1076.2
585.309,1074.3
585.442,1080.15
585.576,1081.65
585.71,1090.05
585.843,1090.15
585.977,1088.0
586.11,1097.3
586.244,1100.1
586.378,1098.5
586.511,1100.9
586.645,1104.7
586.778,1111.1
586.912,1115.0
587.045,1115.55
587.179,1118.8
587.313,1121.2
587.446,1124.25
587.58,1124.9
587.713,1131.35
587.847,1127.5
587.98,1139.95
588.114,1142.95
588.247,1138.05
588.381,1143.55
588.514,1146.35
588.648,1145.5
588.781,1153.7
588.915,1152.85
589.048,1159.3
589.182,1161.0
589.315,1165.25
589.449,1165.8
589.582,1165.7
589.715,1166.1
589.849,1173.35
589.982,1173.35
590.116,1176.3
590.249,1181.65
590.383,1179.2
590.516,1183.3
590.649,1194.05
590.783,1195.05
590.916,1198.95
591.05,1200.3
591.183,1208.65
591.316,1201.45
591.45,1206.65
591.583,1212.2
591.717,1208.05
591.85,1213.95
591.983,1214.8
592.117,1215.95
592.25,1217.45
592.383,1220.6
592.517,1217.25
592.65,1219.6
592.783,1225.45
592.917,1224.4
593.05,1227.8
593.183,1231.15
593.317,1228.2
593.45,1234.3
593.583,1233.9
593.717,1232.45
593.85,1236.3
593.983,1236.75
594.116,1239.0
594.25,1241.3
594.383,1245.5
594.516,1247.75
594.649,1254.05
594.783,1256.3
594.916,1254.85
595.049,1251.8
595.182,1254.75
595.316,1258.9
595.449,1260.4
595.582,1263.2
595.715,1273.1
595.849,1272.1
595.982,1275.3
596.115,1271.4
596.248,1276.05
596.381,1277.05
596.514,1281.2
596.648,1283.4
596.781,1282.5
596.914,1295.65
597.047,1290.65
597.18,1295.65
597.313,1295.05
597.447,1294.8
597.58,1295.8
597.713,1307.75
597.846,1313.35
597.979,1304.0
598.112,1311.35
598.245,1313.7
598.379,1320.4
598.512,1322.9
598.645,1326.65
598.778,1322.95
598.911,1321.1
599.044,1328.55
599.177,1334.65
599.31,1333.1
599.443,1337.35
599.576,1336.85
599.709,1336.25
599.842,1334.05
599.975,1338.6
600.109,1337.65
600.242,1332.5
600.375,1334.3
600.508,1340.9
600.641,1337.2
600.774,1333.0
600.907,1335.85
601.04,1331.4
601.173,1332.45
601.306,1339.2
601.439,1327.6
601.572,1328.9
601.705,1323.65
601.838,1329.85
601.971,1323.55
602.104,1325.5
602.237,1326.0
602.37,1323.45
602.503,1319.9
602.636,1319.8
602.768,1312.5
602.901,1312.3
603.034,1307.3
603.167,1302.35
603.3,1303.8
603.433,1296.45
603.566,1299.5
603.699,1293.45
603.832,1288.1
603.965,1289.65
604.098,1284.55
604.231,1280.8
604.364,1276.65
604.496,1268.05
604.629,1266.35
604.762,1261.45
604.895,1260.9
605.028,1255.25
605.161,1248.55
605.294,1242.95
605.427,1234.2
605.559,1229.0
605.692,1225.95
605.825,1220.1
605.958,1216.0
606.091,1214.7
606.224,1209.5
606.356,1204.65
606.489,1197.95
606.622,1202.2
606.755,1201.9
606.888,1192.15
607.02,1188.5
607.153,1190.45
607.286,1185.2
607.419,1184.8
607.552,1179.45
607.684,1176.1
607.817,1179.05
607.95,1169.95
608.083,1166.95
608.215,1169.6
608.348,1167.65
608.481,1163.5
608.614,1162.5
608.746,1160.6
608.879,1155.5
609.012,1159.35
609.145,1148.05
609.277,1147.25
609.41,1146.05
609.543,1141.3
609.675,1143.05
609.808,1142.15
609.941,1138.65
610.074,1133.4
610.206,1130.5
610.339,1128.65
610.472,1132.0
610.604,1125.8
610.737,1122.3
610.87,1124.85
611.002,1119.6
611.135,1119.7
611.268,1118.35
611.4,1121.65
611.533,1118.25
611.666,1115.15
611.798,1112.0
611.931,1113.5
612.063,1109.25
612.196,1106.2
612.329,1113.65
612.461,1104.0
612.594,1106.35
612.727,1109.15
612.859,1105.6
612.992,1101.35
613.124,1105.85
613.257,1101.1
613.39,1098.8
613.522,1095.75
613.655,1101.65
613.787,1094.85
613.92,1095.05
614.052,1095.45
614.185,1095.25
614.317,1094.0
614.45,1091.55
614.583,1089.4
614.715,1084.55
614.848,1088.6
614.98,1083.5
615.113,1084.3
615.245,1081.65
615.378,1080.45
615.51,1080.55
615.643,1074.45
615.775,1075.55
615.908,1076.75
616.04,1075.15
616.173,1073.25
616.305,1068.8
616.438,1070.1
616.57,1072.7
616.703,1071.65
616.835,1073.0
616.968,1071.3
617.1,1071.8
617.233,1072.1
617.365,1068.75
617.498,1069.15
617.63,1068.95
617.762,1064.95
617.895,1065.35
618.027,1068.15
618.16,1069.05
618.292,1064.8
618.425,1063.45
618.557,1062.6
618.689,1057.15
618.822,1060.75
618.954,1057.45
619.087,1057.35
619.219,1054.95
619.351,1058.2
619.484,1060.0
619.616,1061.3
619.749,1055.4
619.881,1054.9
620.013,1056.25
620.146,1053.3
620.278,1053.25
620.41,1047.15
620.543,1051.85
620.675,1050.25
620.808,1051.55
620.94,1050.6
621.072,1056.95
621.205,1053.65
621.337,1063.7
621.469,1065.5
621.602,1071.1
621.734,1075.75
621.866,1080.5
621.998,1094.7
622.131,1098.9
622.263,1110.15
622.395,1108.15
622.528,1099.35
622.66,1084.45
622.792,1073.85
622.925,1067.1
623.057,1057.7
623.189,1053.0
623.321,1045.55
623.454,1048.25
623.586,1042.0
623.718,1042.1
623.85,1039.9
623.983,1039.55
624.115,1041.8
624.247,1042.55
624.379,1042.1
624.512,1037.65
624.644,1040.45
624.776,1036.8
624.908,1041.35
625.041,1041.1
625.173,1036.7
625.305,1036.85
625.437,1047.4
625.569,1045.8
625.702,1048.15
625.834,1048.1
625.966,1055.45
626.098,1061.7
626.23,1072.8
626.363,1084.85
626.495,1122.95
626.627,1185.0
626.759,1290.5
626.891,1464.2
627.024,1706.4
627.156,1951.55
627.288,2027.75
627.42,1923.55
627.552,1794.4
627.684,1673.0
627.816,1600.9
627.949,1550.7
628.081,1535.35
628.213,1564.6
628.345,1678.25
628.477,1950.3
628.609,2191.2
628.741,1930.4
628.874,1626.3
629.006,1535.65
629.138,1506.85
629.27,1485.6
629.402,1463.3
629.534,1418.85
629.666,1377.7
629.798,1336.65
629.93,1309.4
630.062,1296.05
630.195,1293.2
630.327,1288.7
630.459,1281.75
630.591,1270.55
630.723,1248.75
630.855,1210.8
630.987,1169.45
631.119,1130.6
631.251,1095.0
631.383,1078.75
631.515,1066.95
631.647,1059.75
631.779,1056.25
631.911,1052.6
632.043,1046.95
632.175,1047.25
632.307,1049.0
632.439,1044.95
632.571,1041.7
632.703,1040.85
632.835,1042.55
632.967,1045.1
633.099,1042.0
633.231,1039.65
633.363,1041.75
633.495,1041.95
633.627,1036.05
633.759,1042.5
633.891,1040.3
634.023,1039.95
634.155,1034.85
634.287,1037.75
634.419,1040.9
634.551,1036.25
634.683,1039.3
634.815,1035.95
634.947,1035.7
635.079,1038.05
635.211,1042.15
635.343,1034.55
635.475,1036.6
635.607,1038.7
635.739,1036.15
635.871,1037.65
636.003,1038.3
636.135,1036.1
636.267,1040.4
636.398,1043.2
636.53,1041.7
636.662,1041.65
636.794,1043.6
636.926,1043.05
637.058,1045.2
637.19,1041.2
637.322,1045.4
637.454,1038.6
637.586,1039.7
637.717,1038.75
637.849,1044.55
637.981,1040.85
638.113,1039.2
638.245,1037.7
638.377,1041.95
638.509,1045.0
638.641,1046.15
638.773,1043.25
638.904,1042.1
639.036,1045.85
639.168,1047.15
639.3,1045.8
639.432,1048.6
639.564,1048.0
639.695,1047.5
639.827,1049.5
639.959,1049.55
640.091,1048.35
640.223,1049.2
640.355,1053.05
640.486,1047.45
640.618,1053.6
640.75,1050.3
640.882,1049.55
641.014,1056.1
641.146,1053.1
641.277,1054.1
641.409,1056.35
641.541,1059.75
641.673,1054.6
641.805,1058.1
641.936,1052.2
642.068,1060.8
642.2,1060.4
642.332,1059.4
642.464,1057.9
642.595,1059.85
642.727,1059.9
642.859,1057.3
642.991,1060.3
643.122,1061.25
643.254,1061.55
643.386,1058.05
643.518,1063.85
643.649,1059.85
643.781,1066.7
643.913,1065.15
644.045,1061.55
644.176,1060.75
644.308,1061.75
644.44,1061.25
644.572,1059.35
644.703,1064.4
644.835,1062.5
644.967,1061.7
645.099,1062.4
645.23,1062.4
645.362,1061.25
645.494,1062.05
645.625,1063.6
645.757,1063.2
645.889,1060.8
646.021,1062.8
646.152,1061.35
646.284,1065.55
646.416,1064.55
646.547,1060.2
646.679,1065.2
646.811,1066.5
646.942,1062.55
647.074,1068.25
647.206,1065.5
647.337,1067.65
647.469,1065.65
647.601,1066.1
647.732,1065.55
647.864,1067.3
647.996,1071.55
648.127,1071.1
648.259,1065.1
648.391,1066.4
648.522,1066.25
648.654,1064.6
648.786,1065.3
648.917,1066.05
649.049,1066.7
649.181,1061.75
649.312,1065.0
649.444,1065.3
649.576,1064.75
649.707,1063.65
649.839,1063.9
649.971,1065.9
650.102,1063.7
650.234,1060.15
650.365,1065.6
650.497,1064.3
650.629,1059.15
650.76,1063.55
650.892,1065.05
651.023,1066.85
651.155,1059.25
651.287,1060.2
651.418,1060.8
651.55,1064.3
651.682,1065.35
651.813,1064.7
651.945,1063.85
652.076,1060.2
652.208,1066.2
652.339,1063.7
652.471,1065.2
652.603,1066.25
652.734,1065.2
652.866,1064.1
652.997,1062.6
653.129,1065.4
653.261,1062.8
653.392,1062.8
653.524,1063.5
653.655,1063.8
653.787,1063.75
653.918,1063.5
654.05,1059.35
654.181,1063.05
654.313,1061.75
654.445,1061.05
654.576,1056.65
654.708,1061.2
654.839,1060.75
654.971,1059.7
655.102,1058.2
655.234,1056.4
655.365,1054.8
655.497,1054.95
655.628,1055.75
655.76,1059.35
655.892,1053.2
656.023,1054.5
656.155,1052.3
656.286,1054.3
656.418,1055.35
656.549,1049.9
656.681,1051.8
656.812,1047.8
656.944,1050.45
657.075,1051.4
657.207,1046.9
657.338,1049.15
657.47,1042.9
657.601,1046.35
657.733,1044.8
657.864,1043.75
657.996,1040.2
658.127,1042.85
658.259,1038.65
658.39,1037.95
658.522,1038.9
658.653,1035.15
658.785,1035.5
658.916,1031.15
659.048,1030.7
659.179,1030.85
659.311,1032.9
659.442,1031.15
659.574,1024.85
659.705,1021.65
659.836,1024.2
659.968,1029.8
660.099,1027.8
660.231,1024.45
660.362,1017.75
660.494,1021.9
660.625,1018.25
660.757,1016.1
660.888,1013.2
661.02,1009.35
661.151,1008.0
661.283,1006.35
661.414,1002.9
661.545,1004.4
661.677,999.25
661.808,1001.55
661.94,1004.4
662.071,997.3
662.203,997.75
662.334,998.4
662.466,993.5
662.597,992.8
662.728,993.5
662.86,989.4
662.991,988.2
663.123,986.4