File: spectra/VLFR_06-PET_nobio_Raman_8f812500.csv
nm,Intensity
526.508,829.6
526.645,829.7
526.782,831.5
526.919,829.9
527.055,830.3
527.192,830.4
527.329,830.3
527.465,830.1
527.602,830.5
527.739,829.0
527.875,831.2
528.012,831.3
528.149,830.2
528.285,830.8
528.422,829.2
528.558,830.3
528.695,831.6
528.832,829.6
528.968,830.0
529.105,828.8
529.241,828.7
529.378,830.4
529.514,829.4
529.651,830.7
529.787,830.1
529.924,830.0
530.061,829.6
530.197,829.2
530.334,830.2
530.47,830.1
530.606,829.7
530.743,829.6
530.879,830.3
531.016,829.8
531.152,830.8
531.289,831.0
531.425,830.0
531.562,830.9
531.698,830.4
531.834,830.8
531.971,834.0
532.107,870.2
532.244,879.3
532.38,843.6
532.516,831.4
532.653,830.0
532.789,830.1
532.925,829.9
533.062,830.4
533.198,831.2
533.334,831.6
533.471,832.1
533.607,840.5
533.743,918.2
533.879,1317.4
534.016,1952.0
534.152,2215.1
534.288,2165.4
534.424,2034.3
534.561,1919.4
534.697,1829.7
534.833,1726.3
534.969,1632.2
535.106,1526.8
535.242,1450.2
535.378,1383.2
535.514,1327.8
535.65,1274.3
535.786,1214.8
535.923,1175.1
536.059,1137.8
536.195,1095.5
536.331,1072.5
536.467,1056.4
536.603,1042.5
536.739,1024.6
536.876,1023.9
537.012,1009.8
537.148,1007.4
537.284,1003.6
537.42,991.7
537.556,993.0
537.692,987.3
537.828,983.2
537.964,987.5
538.1,989.3
538.236,992.5
538.372,988.3
538.508,995.6
538.644,987.1
538.78,986.1
538.916,990.5
539.052,994.1
539.188,987.3
539.324,993.0
539.46,997.2
539.596,1006.5
539.732,1014.5
539.868,1018.0
540.004,1025.2
540.14,1010.1
540.275,998.4
540.411,989.3
540.547,980.0
540.683,969.3
540.819,964.9
540.955,960.7
541.091,958.1
541.227,950.9
541.362,956.1
541.498,952.1
541.634,949.3
541.77,956.1
541.906,949.9
542.041,951.6
542.177,949.1
542.313,948.9
542.449,949.8
542.585,954.3
542.72,953.9
542.856,951.1
542.992,952.1
543.128,952.5
543.263,953.3
543.399,950.8
543.535,952.2
543.67,947.6
543.806,957.9
543.942,966.5
544.078,963.7
544.213,959.0
544.349,961.0
544.485,957.1
544.62,954.2
544.756,957.5
544.892,959.4
545.027,961.0
545.163,965.1
545.298,961.0
545.434,965.6
545.57,961.3
545.705,967.3
545.841,966.6
545.976,961.5
546.112,968.2
546.248,965.4
546.383,968.7
546.519,966.4
546.654,964.6
546.79,968.3
546.925,966.9
547.061,967.2
547.196,971.1
547.332,974.5
547.467,969.3
547.603,973.0
547.738,970.8
547.874,974.3
548.009,974.6
548.145,974.9
548.28,973.2
548.416,975.9
548.551,979.7
548.686,975.2
548.822,979.2
548.957,977.6
549.093,978.6
549.228,978.8
549.363,977.8
549.499,977.9
549.634,978.0
549.77,980.3
549.905,977.2
550.04,981.6
550.176,986.5
550.311,980.6
550.446,1000.7
550.582,1072.2
550.717,1193.6
550.852,1110.8
550.988,1013.1
551.123,991.6
551.258,988.0
551.394,992.6
551.529,991.5
551.664,988.3
551.799,989.4
551.935,994.9
552.07,1001.5
552.205,1000.3
552.34,998.8
552.476,997.1
552.611,1003.0
552.746,1034.3
552.881,1069.3
553.016,1054.2
553.152,1024.4
553.287,1007.9
553.422,1001.1
553.557,1005.8
553.692,1006.4
553.827,1007.1
553.963,1008.3
554.098,1010.3
554.233,1002.8
554.368,1003.0
554.503,1007.1
554.638,1008.5
554.773,1014.0
554.908,1010.9
555.043,1014.0
555.179,1020.9
555.314,1023.3
555.449,1041.0
555.584,1071.7
555.719,1097.3
555.854,1080.4
555.989,1071.0
556.124,1083.4
556.259,1089.3
556.394,1089.0
556.529,1100.5
556.664,1099.6
556.799,1096.2
556.934,1100.5
557.069,1108.3
557.204,1132.8
557.339,1188.7
557.474,1256.7
557.609,1300.4
557.744,1270.7
557.879,1180.6
558.014,1124.2
558.149,1117.4
558.284,1112.2
558.419,1121.7
558.553,1128.2
558.688,1119.0
558.823,1093.6
558.958,1085.9
559.093,1071.9
559.228,1062.2
559.363,1049.8
559.498,1044.2
559.632,1039.5
559.767,1049.5
559.902,1047.5
560.037,1045.4
560.172,1044.6
560.307,1039.2
560.441,1042.6
560.576,1039.9
560.711,1045.5
560.846,1046.9
560.981,1048.6
561.115,1056.0
561.25,1053.0
561.385,1051.4
561.52,1057.4
561.654,1056.2
561.789,1060.6
561.924,1061.0
562.059,1069.1
562.193,1089.0
562.328,1076.0
562.463,1076.6
562.598,1082.1
562.732,1090.1
562.867,1093.3
563.002,1098.3
563.136,1100.8
563.271,1097.0
563.406,1094.3
563.54,1096.0
563.675,1087.2
563.81,1083.2
563.944,1085.9
564.079,1082.6
564.213,1077.9
564.348,1085.3
564.483,1092.1
564.617,1103.5
564.752,1112.9
564.887,1132.2
565.021,1150.1
565.156,1164.4
565.29,1193.0
565.425,1203.9
565.559,1226.7
565.694,1236.6
565.828,1251.9
565.963,1251.7
566.098,1222.6
566.232,1190.9
566.367,1162.1
566.501,1139.3
566.636,1120.0
566.77,1109.6
566.905,1103.2
567.039,1102.3
567.174,1097.5
567.308,1106.6
567.443,1128.4
567.577,1162.8
567.711,1194.9
567.846,1193.2
567.98,1153.1
568.115,1130.3
568.249,1118.4
568.384,1118.3
568.518,1109.8
568.652,1110.6
568.787,1118.9
568.921,1111.4
569.056,1115.5
569.19,1111.1
569.324,1124.0
569.459,1125.1
569.593,1138.5
569.727,1140.5
569.862,1151.0
569.996,1154.0
570.131,1169.7
570.265,1176.9
570.399,1206.6
570.534,1244.1
570.668,1279.9
570.802,1308.7
570.936,1350.8
571.071,1404.4
571.205,1458.2
571.339,1494.0
571.474,1479.6
571.608,1420.7
571.742,1355.8
571.876,1314.6
572.011,1300.0
572.145,1272.8
572.279,1230.2
572.413,1202.9
572.548,1190.9
572.682,1171.2
572.816,1169.1
572.95,1156.4
573.084,1150.9
573.219,1149.5
573.353,1156.9
573.487,1162.9
573.621,1158.8
573.755,1167.2
573.889,1177.3
574.024,1192.9
574.158,1195.7
574.292,1188.6
574.426,1182.9
574.56,1171.3
574.694,1164.7
574.828,1177.2
574.963,1182.4
575.097,1192.6
575.231,1211.8
575.365,1224.7
575.499,1232.0
575.633,1202.4
575.767,1176.3
575.901,1177.7
576.035,1182.1
576.169,1197.4
576.303,1216.2
576.437,1223.3
576.571,1228.0
576.706,1234.7
576.84,1226.5
576.974,1226.7
577.108,1212.6
577.242,1203.8
577.376,1195.6
577.51,1197.2
577.644,1178.9
577.778,1190.2
577.912,1180.2
578.046,1180.4
578.179,1183.2
578.313,1186.9
578.447,1188.0
578.581,1189.2
578.715,1192.1
578.849,1194.1
578.983,1189.4
579.117,1195.4
579.251,1190.1
579.385,1187.3
579.519,1195.9
579.653,1194.4
579.787,1197.0
579.921,1202.6
580.054,1200.3
580.188,1202.2
580.322,1199.3
580.456,1209.0
580.59,1210.6
580.724,1216.4
580.858,1223.9
580.991,1234.2
581.125,1234.6
581.259,1233.3
581.393,1246.6
581.527,1273.4
581.661,1323.4
581.794,1436.0
581.928,1678.3
582.062,2154.4
582.196,2646.1
582.33,2374.7
582.463,1707.8
582.597,1383.3
582.731,1295.8
582.865,1263.0
582.998,1242.5
583.132,1246.8
583.266,1237.4
583.4,1237.2
583.533,1233.9
583.667,1240.5
583.801,1233.7
583.935,1227.8
584.068,1237.2
584.202,1243.4
584.336,1247.8
584.469,1251.2
584.603,1259.5
584.737,1255.5
584.87,1262.7
585.004,1275.4
585.138,1287.7
585.271,1306.0
585.405,1381.0
585.539,1503.9
585.672,1689.2
585.806,1879.0
585.94,1981.4
586.073,1995.0
586.207,1935.6
586.34,1819.1
586.474,1695.5
586.608,1547.9
586.741,1429.8
586.875,1352.8
587.008,1318.7
587.142,1295.8
587.276,1274.9
587.409,1279.7
587.543,1277.6
587.676,1262.8
587.81,1257.7
587.943,1267.6
588.077,1262.0
588.21,1267.1
588.344,1261.9
588.478,1261.7
588.611,1262.5
588.745,1257.2
588.878,1257.2
589.012,1253.3
589.145,1261.5
589.279,1258.6
589.412,1268.0
589.546,1260.6
589.679,1250.1
589.812,1267.8
589.946,1270.8
590.079,1254.9
590.213,1255.5
590.346,1262.5
590.48,1262.1
590.613,1263.9
590.747,1262.8
590.88,1266.6
591.013,1259.0
591.147,1270.8
591.28,1271.8
591.414,1267.9
591.547,1272.8
591.68,1272.3
591.814,1265.1
591.947,1265.3
592.081,1273.7
592.214,1269.4
592.347,1272.6
592.481,1268.7
592.614,1265.0
592.747,1268.8
592.881,1263.4
593.014,1272.1
593.147,1269.3
593.281,1266.0
593.414,1275.4
593.547,1274.5
593.681,1274.2
593.814,1272.7
593.947,1273.0
594.081,1278.1
594.214,1284.7
594.347,1270.4
594.48,1281.7
594.614,1283.0
594.747,1271.5
594.88,1278.1
595.014,1278.2
595.147,1285.3
595.28,1278.2
595.413,1285.4
595.547,1284.0
595.68,1295.6
595.813,1291.2
595.946,1290.6
596.079,1288.2
596.213,1284.5
596.346,1292.8
596.479,1285.5
596.612,1290.3
596.745,1290.5
596.879,1299.1
597.012,1293.5
597.145,1295.6
597.278,1290.9
597.411,1289.8
597.545,1293.2
597.678,1293.2
597.811,1294.3
597.944,1297.1
598.077,1296.4
598.21,1300.8
598.343,1309.3
598.476,1290.0
598.61,1305.2
598.743,1302.5
598.876,1310.2
599.009,1302.9
599.142,1299.8
599.275,1299.8
599.408,1310.8
599.541,1300.4
599.674,1304.4
599.807,1310.9
599.941,1309.2
600.074,1306.2
600.207,1310.4
600.34,1307.4
600.473,1303.6
600.606,1307.0
600.739,1307.4
600.872,1297.9
601.005,1299.3
601.138,1300.5
601.271,1310.9
601.404,1300.8
601.537,1308.4
601.67,1309.9
601.803,1303.2
601.936,1301.2
602.069,1311.1
602.202,1307.7
602.335,1306.3
602.468,1302.1
602.601,1301.9
602.734,1315.1
602.867,1306.9
603.0,1305.6
603.133,1316.1
603.266,1307.7
603.399,1316.9
603.532,1309.6
603.664,1321.8
603.797,1320.2
603.93,1317.7
604.063,1320.4
604.196,1317.4
604.329,1309.7
604.462,1310.5
604.595,1308.3
604.728,1312.6
604.861,1308.9
604.994,1306.2
605.126,1308.9
605.259,1304.7
605.392,1303.7
605.525,1305.1
605.658,1311.2
605.791,1305.5
605.924,1310.0
606.056,1308.6
606.189,1303.7
606.322,1302.6
606.455,1302.6
606.588,1297.4
606.721,1308.7
606.853,1298.7
606.986,1302.7
607.119,1307.8
607.252,1308.2
607.385,1323.0
607.517,1306.8
607.65,1312.3
607.783,1305.2
607.916,1312.6
608.049,1316.3
608.181,1308.7
608.314,1308.4
608.447,1318.9
608.58,1316.7
608.712,1316.8
608.845,1318.4
608.978,1309.3
609.111,1319.5
609.243,1319.8
609.376,1315.7
609.509,1314.7
609.641,1311.0
609.774,1320.0
609.907,1319.1
610.04,1316.4
610.172,1319.1
610.305,1316.8
610.438,1312.4
610.57,1317.9
610.703,1319.7
610.836,1325.5
610.968,1319.6
611.101,1315.8
611.234,1323.1
611.366,1306.1
611.499,1323.1
611.632,1318.6
611.764,1319.2
611.897,1322.7
612.03,1326.0
612.162,1327.2
612.295,1334.2
612.428,1334.9
612.56,1325.5
612.693,1325.5
612.825,1333.9
612.958,1344.5
613.091,1337.3
613.223,1340.7
613.356,1342.1
613.488,1346.7
613.621,1341.3
613.754,1346.8
613.886,1341.6
614.019,1354.7
614.151,1347.0
614.284,1354.1
614.416,1351.7
614.549,1352.3
614.681,1341.5
614.814,1351.3
614.947,1348.1
615.079,1353.7
615.212,1354.0
615.344,1342.4
615.477,1347.6
615.609,1348.7
615.742,1343.7
615.874,1354.8
616.007,1353.2
616.139,1346.7
616.272,1337.4
616.404,1358.7
616.537,1344.8
616.669,1357.5
616.802,1352.3
616.934,1359.5
617.067,1359.1
617.199,1361.6
617.332,1362.9
617.464,1371.6
617.596,1362.6
617.729,1360.9
617.861,1368.6
617.994,1369.8
618.126,1376.4
618.259,1376.0
618.391,1391.6
618.524,1379.0
618.656,1375.5
618.788,1377.2
618.921,1378.3
619.053,1371.9
619.186,1367.9
619.318,1367.9
619.45,1370.5
619.583,1363.8
619.715,1372.3
619.848,1374.6
619.98,1364.8
620.112,1370.0
620.245,1358.1
620.377,1376.6
620.509,1374.1
620.642,1365.0
620.774,1364.8
620.907,1366.4
621.039,1371.8
621.171,1370.1
621.304,1372.9
621.436,1371.3
621.568,1374.3
621.701,1371.7
621.833,1370.9
621.965,1380.9
622.097,1377.8
622.23,1379.8
622.362,1378.3
622.494,1387.9
622.627,1388.9
622.759,1395.5
622.891,1385.7
623.024,1397.0
623.156,1400.5
623.288,1398.0
623.42,1398.4
623.553,1402.7
623.685,1399.1
623.817,1406.0
623.949,1407.3
624.082,1399.0
624.214,1405.6
624.346,1405.1
624.479,1412.0
624.611,1412.4
624.743,1407.6
624.875,1414.8
625.007,1415.6
625.14,1430.6
625.272,1420.0
625.404,1425.7
625.536,1424.2
625.669,1406.3
625.801,1421.5
625.933,1419.9
626.065,1419.7
626.197,1416.9
626.33,1422.6
626.462,1415.7
626.594,1418.0
626.726,1424.9
626.858,1422.4
626.99,1422.5
627.123,1426.5
627.255,1416.1
627.387,1433.3
627.519,1431.4
627.651,1444.3
627.783,1436.2
627.916,1432.6
628.048,1448.7
628.18,1447.9
628.312,1449.2
628.444,1465.2
628.576,1466.6
628.708,1475.0
628.84,1471.4
628.973,1492.5
629.105,1479.5
629.237,1492.5
629.369,1494.8
629.501,1489.7
629.633,1495.3
629.765,1499.5
629.897,1496.9
630.029,1495.1
630.161,1490.8
630.294,1488.0
630.426,1495.0
630.558,1502.0
630.69,1506.7
630.822,1518.1
630.954,1540.3
631.086,1569.0
631.218,1607.4
631.35,1644.0
631.482,1693.9
631.614,1724.3
631.746,1741.7
631.878,1744.1
632.01,1730.4
632.142,1704.6
632.274,1678.2
632.406,1656.0
632.538,1643.6
632.67,1632.0
632.802,1609.4
632.934,1603.7
633.066,1599.7
633.198,1605.1
633.33,1597.0
633.462,1599.2
633.594,1586.0
633.726,1578.0
633.858,1576.7
633.99,1562.6
634.122,1564.9
634.254,1548.9
634.386,1550.6
634.518,1550.5
634.65,1545.7
634.782,1552.6
634.914,1535.8
635.046,1533.5
635.178,1545.6
635.31,1555.5
635.442,1573.0
635.574,1573.7
635.706,1604.2
635.838,1637.6
635.97,1665.2
636.102,1693.9
636.234,1724.8
636.365,1763.3
636.497,1825.6
636.629,1860.2
636.761,1825.3
636.893,1779.6
637.025,1723.2
637.157,1674.9
637.289,1638.9
637.421,1618.0
637.553,1602.5
637.685,1608.1
637.816,1592.7
637.948,1592.4
638.08,1592.3
638.212,1586.9
638.344,1575.7
638.476,1572.6
638.608,1589.2
638.74,1575.0
638.871,1581.6
639.003,1575.7
639.135,1577.0
639.267,1588.3
639.399,1586.4
639.531,1588.0
639.662,1588.9
639.794,1594.7
639.926,1596.4
640.058,1589.1
640.19,1599.0
640.322,1587.7
640.453,1598.7
640.585,1593.5
640.717,1593.5
640.849,1593.0
640.981,1607.5
641.113,1601.6
641.244,1603.8
641.376,1606.3
641.508,1607.1
641.64,1620.0
641.772,1611.7
641.903,1617.1
642.035,1622.3
642.167,1641.9
642.299,1631.9
642.43,1633.3
642.562,1625.8
642.694,1635.6
642.826,1622.1
642.958,1628.4
643.089,1621.9
643.221,1617.6
643.353,1606.1
643.485,1622.1
643.616,1613.6
643.748,1621.5
643.88,1611.3
644.012,1609.0
644.143,1616.5
644.275,1610.8
644.407,1619.8
644.538,1619.9
644.67,1617.3
644.802,1621.5
644.934,1610.0
645.065,1612.2
645.197,1637.4
645.329,1630.3
645.461,1631.8
645.592,1619.2
645.724,1633.5
645.856,1626.0
645.987,1632.1
646.119,1634.5
646.251,1641.3
646.382,1626.0
646.514,1638.2
646.646,1630.7
646.777,1649.4
646.909,1631.0
647.041,1645.6
647.172,1653.4
647.304,1662.2
647.436,1657.7
647.567,1660.6
647.699,1655.9
647.831,1649.3
647.962,1651.8
648.094,1660.5
648.226,1647.9
648.357,1650.7
648.489,1657.0
648.621,1658.6
648.752,1655.9
648.884,1656.6
649.016,1649.2
649.147,1655.1
649.279,1641.8
649.411,1654.5
649.542,1661.2
649.674,1664.2
649.805,1659.2
649.937,1648.2
650.069,1667.8
650.2,1655.8
650.332,1658.5
650.463,1654.9
650.595,1653.9
650.727,1644.3
650.858,1658.3
650.99,1665.0
651.121,1667.7
651.253,1667.0
651.385,1676.9
651.516,1668.1
651.648,1676.8
651.779,1654.0
651.911,1667.5
652.043,1667.1
652.174,1672.9
652.306,1664.4
652.437,1663.6
652.569,1682.1
652.7,1675.1
652.832,1666.3
652.963,1680.2
653.095,1669.6
653.227,1677.3
653.358,1679.7
653.49,1675.2
653.621,1680.5
653.753,1689.5
653.884,1695.8
654.016,1676.2
654.147,1675.3
654.279,1683.2
654.41,1680.6
654.542,1676.7
654.674,1688.7
654.805,1665.0
654.937,1681.5
655.068,1675.9
655.2,1688.3
655.331,1685.7
655.463,1685.1
655.594,1681.7
655.726,1675.7
655.857,1679.8
655.989,1687.6
656.12,1690.9
656.252,1688.7
656.383,1680.1
656.515,1689.7
656.646,1690.1
656.778,1680.9
656.909,1690.2
657.041,1698.8
657.172,1701.5
657.304,1700.0
657.435,1696.3
657.567,1680.7
657.698,1693.7
657.829,1686.5
657.961,1690.7
658.092,1696.4
658.224,1689.2
658.355,1696.6
658.487,1710.3
658.618,1680.2
658.75,1688.3
658.881,1696.7
659.013,1685.3
659.144,1694.1
659.275,1701.7
659.407,1707.8
659.538,1705.6
659.67,1696.8
659.801,1693.8
659.933,1695.9
660.064,1702.6
660.196,1705.7
660.327,1696.3
660.458,1705.3
660.59,1702.4
660.721,1691.4
660.853,1695.5
660.984,1698.2
661.116,1700.4
661.247,1702.0
661.378,1694.8
661.51,1696.2
661.641,1687.4
661.773,1696.4
661.904,1679.1
662.035,1680.3
662.167,1672.9
662.298,1676.2
662.43,1678.8
662.561,1687.6
662.692,1689.0
662.824,1678.6
662.955,1682.8
663.087,1684.0