File: spectra/VLFR_02-HDPE_nobio_Raman_aa962f45.csv
nm,Intensity
526.486,830.9
526.622,830.7
526.759,829.0
526.896,832.2
527.033,830.2
527.169,830.3
527.306,830.3
527.443,830.8
527.579,829.8
527.716,828.8
527.853,830.5
527.989,829.9
528.126,830.0
528.263,829.2
528.399,828.6
528.536,829.3
528.672,830.4
528.809,829.5
528.946,829.9
529.082,830.9
529.219,830.2
529.355,830.1
529.492,829.4
529.628,830.5
529.765,830.3
529.901,831.0
530.038,831.0
530.174,829.8
530.311,829.7
530.447,829.7
530.584,828.9
530.72,828.9
530.857,829.2
530.993,829.9
531.13,829.6
531.266,830.3
531.403,829.9
531.539,830.1
531.676,829.8
531.812,830.7
531.948,832.6
532.085,857.0
532.221,874.9
532.358,843.1
532.494,830.8
532.63,830.1
532.767,829.7
532.903,829.9
533.039,830.9
533.176,829.2
533.312,830.8
533.448,831.2
533.585,831.8
533.721,833.1
533.857,849.5
533.993,880.9
534.13,898.7
534.266,902.3
534.402,898.5
534.539,896.9
534.675,900.3
534.811,898.5
534.947,896.4
535.083,894.9
535.22,893.8
535.356,890.1
535.492,897.7
535.628,893.4
535.764,892.8
535.901,895.5
536.037,891.4
536.173,890.8
536.309,890.8
536.445,891.4
536.581,886.8
536.717,891.9
536.854,891.1
536.99,887.8
537.126,889.0
537.262,889.8
537.398,891.7
537.534,891.9
537.67,886.5
537.806,888.9
537.942,891.1
538.078,888.9
538.214,890.8
538.35,891.6
538.486,890.1
538.622,891.3
538.758,892.6
538.894,887.7
539.03,888.7
539.166,890.5
539.302,890.5
539.438,892.2
539.574,891.3
539.71,892.2
539.846,887.5
539.982,891.3
540.118,889.8
540.254,890.8
540.39,890.0
540.526,892.1
540.662,892.7
540.798,890.3
540.933,892.5
541.069,894.8
541.205,892.2
541.341,896.6
541.477,894.1
541.613,897.2
541.749,893.8
541.884,893.4
542.02,895.0
542.156,894.8
542.292,897.0
542.428,896.4
542.563,895.2
542.699,898.3
542.835,901.7
542.971,895.4
543.106,897.9
543.242,897.5
543.378,895.7
543.514,895.6
543.649,896.2
543.785,898.8
543.921,900.6
544.057,896.7
544.192,898.9
544.328,896.8
544.464,896.4
544.599,899.5
544.735,901.7
544.871,895.8
545.006,900.8
545.142,898.8
545.278,901.0
545.413,902.6
545.549,900.0
545.684,901.2
545.82,901.6
545.956,900.6
546.091,900.7
546.227,901.3
546.362,900.3
546.498,898.8
546.634,903.3
546.769,901.3
546.905,904.8
547.04,901.8
547.176,903.8
547.311,904.6
547.447,904.3
547.582,905.0
547.718,901.8
547.853,900.7
547.989,905.7
548.124,905.3
548.26,902.5
548.395,905.0
548.531,902.8
548.666,903.1
548.802,903.0
548.937,908.2
549.072,905.3
549.208,903.6
549.343,903.3
549.479,902.7
549.614,905.4
549.75,904.5
549.885,904.7
550.02,903.5
550.156,903.4
550.291,904.5
550.426,905.7
550.562,905.7
550.697,902.3
550.832,902.7
550.968,906.4
551.103,906.8
551.238,906.7
551.374,907.3
551.509,903.7
551.644,905.1
551.78,906.3
551.915,909.7
552.05,903.5
552.185,908.4
552.321,905.6
552.456,907.6
552.591,908.2
552.726,905.4
552.862,904.5
552.997,908.3
553.132,902.4
553.267,908.9
553.403,910.8
553.538,909.5
553.673,910.1
553.808,912.5
553.943,914.5
554.078,909.0
554.214,908.1
554.349,909.8
554.484,911.8
554.619,909.5
554.754,909.3
554.889,910.4
555.024,908.9
555.16,910.9
555.295,909.0
555.43,913.1
555.565,911.4
555.7,909.8
555.835,915.4
555.97,910.2
556.105,911.8
556.24,913.6
556.375,914.9
556.51,914.9
556.645,918.5
556.78,916.2
556.915,917.5
557.05,915.0
557.185,918.9
557.32,912.7
557.455,917.0
557.59,915.7
557.725,915.4
557.86,918.2
557.995,921.1
558.13,920.5
558.265,918.3
558.4,917.2
558.535,917.6
558.67,917.6
558.805,923.2
558.94,923.0
559.075,921.0
559.21,917.1
559.345,917.9
559.479,921.6
559.614,921.7
559.749,924.1
559.884,918.9
560.019,922.9
560.154,921.1
560.289,920.1
560.424,919.1
560.558,920.3
560.693,920.7
560.828,921.3
560.963,923.2
561.098,924.1
561.232,924.5
561.367,922.8
561.502,920.6
561.637,921.8
561.772,924.5
561.906,920.3
562.041,921.3
562.176,927.5
562.311,927.5
562.445,926.4
562.58,927.6
562.715,925.7
562.85,928.8
562.984,929.8
563.119,927.2
563.254,929.8
563.388,932.5
563.523,933.0
563.658,940.2
563.792,938.5
563.927,946.6
564.062,957.2
564.196,952.3
564.331,944.7
564.466,945.0
564.6,947.5
564.735,946.5
564.87,948.5
565.004,951.1
565.139,953.6
565.273,945.0
565.408,950.8
565.543,949.9
565.677,944.1
565.812,945.8
565.946,947.8
566.081,962.0
566.215,963.8
566.35,957.4
566.485,949.3
566.619,940.4
566.754,940.4
566.888,939.1
567.023,940.2
567.157,938.2
567.292,936.3
567.426,940.8
567.561,938.7
567.695,939.5
567.83,936.2
567.964,937.0
568.099,930.2
568.233,933.9
568.368,937.1
568.502,936.5
568.636,944.0
568.771,942.5
568.905,943.4
569.04,941.8
569.174,944.7
569.309,938.7
569.443,941.5
569.577,942.5
569.712,948.2
569.846,946.3
569.98,947.9
570.115,944.8
570.249,952.6
570.384,947.7
570.518,949.6
570.652,950.5
570.787,949.8
570.921,946.8
571.055,954.9
571.19,954.0
571.324,956.7
571.458,969.6
571.592,986.5
571.727,975.4
571.861,960.8
571.995,960.5
572.13,959.6
572.264,961.2
572.398,958.5
572.532,960.6
572.667,957.0
572.801,964.0
572.935,960.3
573.069,960.8
573.204,961.2
573.338,961.8
573.472,964.5
573.606,965.4
573.74,967.8
573.875,963.5
574.009,965.5
574.143,972.9
574.277,968.9
574.411,970.1
574.545,967.7
574.68,970.4
574.814,969.5
574.948,970.7
575.082,971.3
575.216,972.7
575.35,977.6
575.484,982.1
575.619,985.7
575.753,986.5
575.887,985.9
576.021,987.5
576.155,993.7
576.289,998.3
576.423,1006.5
576.557,1001.8
576.691,998.5
576.825,995.6
576.959,999.9
577.093,1000.5
577.227,996.1
577.361,993.1
577.495,995.9
577.629,996.3
577.763,990.1
577.897,989.4
578.031,994.9
578.165,994.2
578.299,992.9
578.433,997.8
578.567,997.7
578.701,996.2
578.835,1000.5
578.969,995.8
579.103,996.2
579.237,998.7
579.371,1001.7
579.505,1006.7
579.639,1002.3
579.773,1003.5
579.907,1008.0
580.041,1005.4
580.175,1010.6
580.309,1007.6
580.442,1015.7
580.576,1017.2
580.71,1013.7
580.844,1018.5
580.978,1022.0
581.112,1017.0
581.246,1021.2
581.38,1025.0
581.513,1025.0
581.647,1021.3
581.781,1028.9
581.915,1028.0
582.049,1025.9
582.183,1035.3
582.316,1032.5
582.45,1032.6
582.584,1040.6
582.718,1038.1
582.852,1040.4
582.985,1048.3
583.119,1042.2
583.253,1039.5
583.387,1043.6
583.52,1045.7
583.654,1041.2
583.788,1045.9
583.922,1048.3
584.055,1052.2
584.189,1053.9
584.323,1050.1
584.456,1062.0
584.59,1062.1
584.724,1058.5
584.858,1055.3
584.991,1059.5
585.125,1065.2
585.259,1062.6
585.392,1069.4
585.526,1067.3
585.66,1071.3
585.793,1078.4
585.927,1074.1
586.061,1076.9
586.194,1084.9
586.328,1083.7
586.462,1087.8
586.595,1091.9
586.729,1091.4
586.862,1100.1
586.996,1097.8
587.13,1097.9
587.263,1101.8
587.397,1108.0
587.53,1112.9
587.664,1110.9
587.797,1114.2
587.931,1115.6
588.065,1117.9
588.198,1116.9
588.332,1129.9
588.465,1121.8
588.599,1132.0
588.732,1122.4
588.866,1137.0
588.999,1134.0
589.133,1141.5
589.266,1138.6
589.4,1144.6
589.533,1146.4
589.667,1154.8
589.8,1147.6
589.934,1157.4
590.067,1156.0
590.201,1159.6
590.334,1163.6
590.468,1168.8
590.601,1173.9
590.735,1174.2
590.868,1175.0
591.001,1176.4
591.135,1177.9
591.268,1185.8
591.402,1194.0
591.535,1188.7
591.669,1185.9
591.802,1192.3
591.935,1192.3
592.069,1195.8
592.202,1193.2
592.335,1199.9
592.469,1199.2
592.602,1196.8
592.736,1192.9
592.869,1201.2
593.002,1196.8
593.136,1200.1
593.269,1198.3
593.402,1201.1
593.536,1201.8
593.669,1204.8
593.802,1206.5
593.936,1210.1
594.069,1207.6
594.202,1210.6
594.336,1212.4
594.469,1219.0
594.602,1218.2
594.735,1210.4
594.869,1223.3
595.002,1216.5
595.135,1219.4
595.268,1227.7
595.402,1233.7
595.535,1223.9
595.668,1228.7
595.801,1231.3
595.935,1240.1
596.068,1237.7
596.201,1230.9
596.334,1240.7
596.468,1251.6
596.601,1245.3
596.734,1250.8
596.867,1256.6
597.0,1253.9
597.133,1250.7
597.267,1251.6
597.4,1259.8
597.533,1253.1
597.666,1262.4
597.799,1267.7
597.932,1270.2
598.066,1280.7
598.199,1279.4
598.332,1292.4
598.465,1278.3
598.598,1280.5
598.731,1293.0
598.864,1290.1
598.998,1288.9
599.131,1293.9
599.264,1291.8
599.397,1297.0
599.53,1300.0
599.663,1292.5
599.796,1294.0
599.929,1298.0
600.062,1300.3
600.195,1289.1
600.328,1304.0
600.461,1307.6
600.594,1301.9
600.727,1302.5
600.86,1303.1
600.994,1311.6
601.127,1299.9
601.26,1301.3
601.393,1300.5
601.526,1296.5
601.659,1305.0
601.792,1297.1
601.925,1303.0
602.058,1297.1
602.191,1298.0
602.324,1292.9
602.457,1282.3
602.589,1286.7
602.722,1290.8
602.855,1296.6
602.988,1291.2
603.121,1275.0
603.254,1284.2
603.387,1284.3
603.52,1274.3
603.653,1273.3
603.786,1274.7
603.919,1263.1
604.052,1270.9
604.185,1261.3
604.318,1251.1
604.451,1248.8
604.583,1244.5
604.716,1242.1
604.849,1242.3
604.982,1239.2
605.115,1229.6
605.248,1228.6
605.381,1216.6
605.514,1212.1
605.646,1220.0
605.779,1210.1
605.912,1202.5
606.045,1204.5
606.178,1202.1
606.311,1193.4
606.443,1188.1
606.576,1194.3
606.709,1187.3
606.842,1188.2
606.975,1184.3
607.107,1181.4
607.24,1178.7
607.373,1179.5
607.506,1166.7
607.639,1175.2
607.771,1170.7
607.904,1170.9
608.037,1163.8
608.17,1171.2
608.302,1166.5
608.435,1159.8
608.568,1162.7
608.701,1155.6
608.833,1154.6
608.966,1153.4
609.099,1152.8
609.232,1147.0
609.364,1148.3
609.497,1145.6
609.63,1149.7
609.762,1138.5
609.895,1145.7
610.028,1140.4
610.161,1133.2
610.293,1136.4
610.426,1141.8
610.559,1134.9
610.691,1133.5
610.824,1138.6
610.957,1130.1
611.089,1134.4
611.222,1134.5
611.355,1127.0
611.487,1125.9
611.62,1125.9
611.752,1123.3
611.885,1125.7
612.018,1124.9
612.15,1125.8
612.283,1124.7
612.416,1125.4
612.548,1129.8
612.681,1119.8
612.813,1125.3
612.946,1127.7
613.078,1128.0
613.211,1123.9
613.344,1120.3
613.476,1122.0
613.609,1120.9
613.741,1116.7
613.874,1112.7
614.006,1118.0
614.139,1120.2
614.272,1115.0
614.404,1106.8
614.537,1120.3
614.669,1112.5
614.802,1103.5
614.934,1105.9
615.067,1106.0
615.199,1109.4
615.332,1108.3
615.464,1104.7
615.597,1104.2
615.729,1106.1
615.862,1101.1
615.994,1101.9
616.127,1098.5
616.259,1102.3
616.392,1100.7
616.524,1102.7
616.657,1100.5
616.789,1099.8
616.922,1100.3
617.054,1100.4
617.186,1091.8
617.319,1097.5
617.451,1096.0
617.584,1090.5
617.716,1091.2
617.849,1102.2
617.981,1095.1
618.113,1093.6
618.246,1089.3
618.378,1097.8
618.511,1090.0
618.643,1090.8
618.775,1094.0
618.908,1087.5
619.04,1092.5
619.173,1087.1
619.305,1090.5
619.437,1092.8
619.57,1088.3
619.702,1097.1
619.834,1080.3
619.967,1083.1
620.099,1083.5
620.231,1082.1
620.364,1083.3
620.496,1082.9
620.628,1079.0
620.761,1078.7
620.893,1086.0
621.025,1082.7
621.158,1080.9
621.29,1081.7
621.422,1080.7
621.555,1076.2
621.687,1089.9
621.819,1081.2
621.952,1085.3
622.084,1081.3
622.216,1091.7
622.348,1083.1
622.481,1090.7
622.613,1088.7
622.745,1086.3
622.878,1086.4
623.01,1083.2
623.142,1080.8
623.274,1078.9
623.407,1082.2
623.539,1086.0
623.671,1076.6
623.803,1080.2
623.935,1075.7
624.068,1081.2
624.2,1083.1
624.332,1085.4
624.464,1078.7
624.597,1078.9
624.729,1084.0
624.861,1082.2
624.993,1084.5
625.125,1082.0
625.258,1075.2
625.39,1079.5
625.522,1080.9
625.654,1080.7
625.786,1080.5
625.918,1083.9
626.051,1082.4
626.183,1082.2
626.315,1087.1
626.447,1085.8
626.579,1090.1
626.711,1095.5
626.844,1113.7
626.976,1141.5
627.108,1172.3
627.24,1194.7
627.372,1205.1
627.504,1186.2
627.636,1175.8
627.768,1176.7
627.901,1160.0
628.033,1160.3
628.165,1155.8
628.297,1166.5
628.429,1183.5
628.561,1214.7
628.693,1221.2
628.825,1209.2
628.957,1185.6
629.089,1183.7
629.221,1181.0
629.354,1177.5
629.486,1163.0
629.618,1154.4
629.75,1149.4
629.882,1153.3
630.014,1150.4
630.146,1145.6
630.278,1146.8
630.41,1143.8
630.542,1144.8
630.674,1141.7
630.806,1135.7
630.938,1124.5
631.07,1114.0
631.202,1110.0
631.334,1098.5
631.466,1102.4
631.598,1099.0
631.73,1099.0
631.862,1093.1
631.994,1093.5
632.126,1088.7
632.258,1090.5
632.39,1083.7
632.522,1084.0
632.654,1088.8
632.786,1086.4
632.918,1082.1
633.05,1077.9
633.182,1081.0
633.314,1087.2
633.446,1084.5
633.578,1079.2
633.71,1078.0
633.842,1074.5
633.974,1087.6
634.106,1088.5
634.237,1082.6
634.369,1082.1
634.501,1082.3
634.633,1078.0
634.765,1083.2
634.897,1083.3
635.029,1084.2
635.161,1078.9
635.293,1083.3
635.425,1083.6
635.557,1078.9
635.689,1084.5
635.82,1077.6
635.952,1086.2
636.084,1080.2
636.216,1084.2
636.348,1089.4
636.48,1087.7
636.612,1086.4
636.744,1084.3
636.875,1090.9
637.007,1082.9
637.139,1090.3
637.271,1087.6
637.403,1091.0
637.535,1083.6
637.667,1081.2
637.798,1086.9
637.93,1083.1
638.062,1092.9
638.194,1087.5
638.326,1087.0
638.458,1092.8
638.589,1083.2
638.721,1079.3
638.853,1083.6
638.985,1090.1
639.117,1094.4
639.248,1087.5
639.38,1087.0
639.512,1089.7
639.644,1093.1
639.776,1090.3
639.907,1086.2
640.039,1091.3
640.171,1093.4
640.303,1102.1
640.435,1092.9
640.566,1095.4
640.698,1092.6
640.83,1104.7
640.962,1102.5
641.093,1100.4
641.225,1105.0
641.357,1099.0
641.489,1102.3
641.62,1096.2
641.752,1097.3
641.884,1105.7
642.016,1105.4
642.147,1104.5
642.279,1101.2
642.411,1106.9
642.543,1105.6
642.674,1107.0
642.806,1103.6
642.938,1103.2
643.069,1106.4
643.201,1104.9
643.333,1110.0
643.465,1107.6
643.596,1106.4
643.728,1109.6
643.86,1108.0
643.991,1106.5
644.123,1103.5
644.255,1107.0
644.386,1109.1
644.518,1109.4
644.65,1104.9
644.781,1106.2
644.913,1113.1
645.045,1107.3
645.176,1113.2
645.308,1107.7
645.44,1112.8
645.571,1100.3
645.703,1107.6
645.835,1113.3
645.966,1113.5
646.098,1113.0
646.23,1113.8
646.361,1113.2
646.493,1111.4
646.625,1115.1
646.756,1110.0
646.888,1110.6
647.019,1114.8
647.151,1105.6
647.283,1110.8
647.414,1115.9
647.546,1122.7
647.678,1109.9
647.809,1114.2
647.941,1121.9
648.072,1112.6
648.204,1116.7
648.336,1121.1
648.467,1117.3
648.599,1118.0
648.73,1115.1
648.862,1118.6
648.993,1111.6
649.125,1114.8
649.257,1113.5
649.388,1102.0
649.52,1113.8
649.651,1115.8
649.783,1115.2
649.914,1117.7
650.046,1124.6
650.178,1113.6
650.309,1112.4
650.441,1121.0
650.572,1116.3
650.704,1114.3
650.835,1114.2
650.967,1118.0
651.098,1117.1
651.23,1117.1
651.361,1114.1
651.493,1120.6
651.625,1116.4
651.756,1123.8
651.888,1120.1
652.019,1113.2
652.151,1117.8
652.282,1120.2
652.414,1120.0
652.545,1118.1
652.677,1118.5
652.808,1114.4
652.94,1116.5
653.071,1119.5
653.203,1123.8
653.334,1121.0
653.466,1115.7
653.597,1126.0
653.729,1127.7
653.86,1127.3
653.992,1125.1
654.123,1122.1
654.255,1126.8
654.386,1115.9
654.518,1117.8
654.649,1126.3
654.78,1117.1
654.912,1114.1
655.043,1122.5
655.175,1125.1
655.306,1122.5
655.438,1120.8
655.569,1119.2
655.701,1119.4
655.832,1120.7
655.964,1111.3
656.095,1119.5
656.226,1115.2
656.358,1115.1
656.489,1116.0
656.621,1114.8
656.752,1118.2
656.884,1118.2
657.015,1112.0
657.146,1114.1
657.278,1111.3
657.409,1111.8
657.541,1113.3
657.672,1109.4
657.804,1104.4
657.935,1110.5
658.066,1105.3
658.198,1105.3
658.329,1110.0
658.461,1104.6
658.592,1102.2
658.723,1108.1
658.855,1103.4
658.986,1100.4
659.118,1101.3
659.249,1105.1
659.38,1096.0
659.512,1103.0
659.643,1099.8
659.774,1097.3
659.906,1095.9
660.037,1094.7
660.169,1092.5
660.3,1090.2
660.431,1083.9
660.563,1081.2
660.694,1091.8
660.825,1083.6
660.957,1081.1
661.088,1077.4
661.22,1080.8
661.351,1074.6
661.482,1070.7
661.614,1071.2
661.745,1076.2
661.876,1075.4
662.008,1067.2
662.139,1071.2
662.27,1074.4
662.402,1065.0
662.533,1067.4
662.664,1060.6
662.796,1062.9
662.927,1061.5
663.058,1057.8