File: spectra/VLFR_02-HDPE_nobio_Raman_918b874f.csv
nm,Intensity
528.65,1833.85
528.819,1833.3
528.987,1833.95
529.155,1833.35
529.324,1833.0
529.492,1833.0
529.66,1833.7
529.829,1833.35
529.997,1833.45
530.165,1834.3
530.334,1834.35
530.502,1833.6
530.67,1833.95
530.839,1834.0
531.007,1833.75
531.175,1833.3
531.344,1835.1
531.512,1836.35
531.68,1846.8
531.848,2069.2
532.017,2823.1
532.185,2554.25
532.353,1879.05
532.521,1834.95
532.69,1833.95
532.858,1833.95
533.026,1833.85
533.194,1832.75
533.363,1836.4
533.531,1842.05
533.699,1890.35
533.867,1966.8
534.036,2017.35
534.204,2030.15
534.372,2011.15
534.54,2012.8
534.708,2020.15
534.877,2023.4
535.045,2018.7
535.213,2010.95
535.381,2002.95
535.549,1989.85
535.717,1974.85
535.886,1964.1
536.054,1962.0
536.222,1955.1
536.39,1955.8
536.558,1945.85
536.726,1953.35
536.894,1948.2
537.062,1939.75
537.231,1950.2
537.399,1954.05
537.567,1950.1
537.735,1955.25
537.903,1952.05
538.071,1953.5
538.239,1943.95
538.407,1945.25
538.575,1940.8
538.743,1946.75
538.911,1941.55
539.079,1935.15
539.247,1939.55
539.415,1937.15
539.583,1933.25
539.751,1936.5
539.919,1934.25
540.087,1929.9
540.255,1929.35
540.423,1930.9
540.591,1924.7
540.759,1934.15
540.927,1924.8
541.095,1931.1
541.263,1937.1
541.431,1936.2
541.599,1934.9
541.767,1934.75
541.935,1933.6
542.103,1933.55
542.271,1935.25
542.439,1936.65
542.607,1935.45
542.775,1937.55
542.943,1934.95
543.111,1934.85
543.279,1931.6
543.446,1937.15
543.614,1937.05
543.782,1943.3
543.95,1938.25
544.118,1934.8
544.286,1938.95
544.454,1933.95
544.622,1931.25
544.789,1934.4
544.957,1935.45
545.125,1943.3
545.293,1936.7
545.461,1934.05
545.629,1937.25
545.796,1936.3
545.964,1941.8
546.132,1940.85
546.3,1934.45
546.468,1935.3
546.635,1940.55
546.803,1938.4
546.971,1940.75
547.139,1938.8
547.306,1935.6
547.474,1937.55
547.642,1935.75
547.81,1941.9
547.977,1945.0
548.145,1936.3
548.313,1943.45
548.481,1937.85
548.648,1939.3
548.816,1937.65
548.984,1939.3
549.151,1938.35
549.319,1940.45
549.487,1939.2
549.655,1938.2
549.822,1944.75
549.99,1934.75
550.158,1932.8
550.325,1941.15
550.493,1937.45
550.66,1945.0
550.828,1940.65
550.996,1941.65
551.163,1939.6
551.331,1936.35
551.499,1943.95
551.666,1944.95
551.834,1950.05
552.001,1958.85
552.169,1949.45
552.337,1949.45
552.504,1947.35
552.672,1941.95
552.839,1940.25
553.007,1948.9
553.174,1945.65
553.342,1952.5
553.509,1953.7
553.677,1947.1
553.844,1955.8
554.012,1957.5
554.179,1955.05
554.347,1958.05
554.514,1950.4
554.682,1957.05
554.849,1961.1
555.017,1959.05
555.184,1960.75
555.352,1960.6
555.519,1956.75
555.687,1960.2
555.854,1963.0
556.022,1963.5
556.189,1956.9
556.357,1962.6
556.524,1964.2
556.691,1965.65
556.859,1969.3
557.026,1971.6
557.194,1975.85
557.361,1970.55
557.528,1970.25
557.696,1981.15
557.863,1972.6
558.031,1982.9
558.198,1983.55
558.365,1986.9
558.533,1979.4
558.7,1975.5
558.867,1972.65
559.035,1979.7
559.202,1979.15
559.369,1974.45
559.537,1980.65
559.704,1976.45
559.871,1977.8
560.038,1970.7
560.206,1971.05
560.373,1972.1
560.54,1978.45
560.708,1976.35
560.875,1971.35
561.042,1978.8
561.209,1976.05
561.377,1982.45
561.544,1969.7
561.711,1981.8
561.878,1982.35
562.045,1984.05
562.213,1989.0
562.38,1983.85
562.547,1983.75
562.714,1990.05
562.881,1996.25
563.049,1992.55
563.216,2003.9
563.383,2013.35
563.55,2021.25
563.717,2086.05
563.884,2252.15
564.052,2307.55
564.219,2181.6
564.386,2070.25
564.553,2055.65
564.72,2062.45
564.887,2044.1
565.054,2033.7
565.221,2023.75
565.388,2028.3
565.556,2034.95
565.723,2061.3
565.89,2149.95
566.057,2374.8
566.224,2399.5
566.391,2184.9
566.558,2050.8
566.725,2027.95
566.892,2015.0
567.059,2019.7
567.226,2032.9
567.393,2057.95
567.56,2045.35
567.727,2013.45
567.894,2006.65
568.061,2013.75
568.228,2005.6
568.395,2001.9
568.562,2009.55
568.729,1996.1
568.896,1997.05
569.063,1998.15
569.23,2012.95
569.396,2009.4
569.563,2005.65
569.73,2012.25
569.897,2014.1
570.064,2020.65
570.231,2011.4
570.398,2024.2
570.565,2033.35
570.732,2039.7
570.898,2047.85
571.065,2062.0
571.232,2169.45
571.399,2478.1
571.566,2612.2
571.733,2320.8
571.9,2124.55
572.066,2086.45
572.233,2073.4
572.4,2050.25
572.567,2051.55
572.734,2039.6
572.9,2047.2
573.067,2046.6
573.234,2041.1
573.401,2035.65
573.567,2047.95
573.734,2061.05
573.901,2073.4
574.068,2063.15
574.234,2045.75
574.401,2038.6
574.568,2040.3
574.734,2039.7
574.901,2058.45
575.068,2060.25
575.235,2104.05
575.401,2221.6
575.568,2281.65
575.735,2246.4
575.901,2259.8
576.068,2366.25
576.235,2496.15
576.401,2479.55
576.568,2376.85
576.734,2348.95
576.901,2371.15
577.068,2352.7
577.234,2289.25
577.401,2215.7
577.567,2169.2
577.734,2138.6
577.901,2132.15
578.067,2118.6
578.234,2122.3
578.4,2110.6
578.567,2112.0
578.733,2117.7
578.9,2127.1
579.066,2144.8
579.233,2144.75
579.399,2154.3
579.566,2135.55
579.732,2134.3
579.899,2148.95
580.065,2149.35
580.232,2158.45
580.398,2154.1
580.565,2162.05
580.731,2158.85
580.898,2158.9
581.064,2162.65
581.231,2175.8
581.397,2169.9
581.563,2183.25
581.73,2188.65
581.896,2175.5
582.063,2183.45
582.229,2188.8
582.395,2196.65
582.562,2194.8
582.728,2195.7
582.895,2196.85
583.061,2194.35
583.227,2206.85
583.394,2203.75
583.56,2221.45
583.726,2220.6
583.893,2216.25
584.059,2224.95
584.225,2226.5
584.391,2215.3
584.558,2232.95
584.724,2236.6
584.89,2229.95
585.057,2240.5
585.223,2253.75
585.389,2250.2
585.555,2259.5
585.722,2244.5
585.888,2265.8
586.054,2270.95
586.22,2272.9
586.386,2281.05
586.553,2275.8
586.719,2291.9
586.885,2288.3
587.051,2291.45
587.217,2302.6
587.384,2301.35
587.55,2322.7
587.716,2320.35
587.882,2324.6
588.048,2334.95
588.214,2345.55
588.38,2342.55
588.546,2335.75
588.713,2332.35
588.879,2347.1
589.045,2356.95
589.211,2364.4
589.377,2354.75
589.543,2366.4
589.709,2353.15
589.875,2384.5
590.041,2397.2
590.207,2396.7
590.373,2411.8
590.539,2395.95
590.705,2416.25
590.871,2419.4
591.037,2434.65
591.203,2439.2
591.369,2427.6
591.535,2439.0
591.701,2447.1
591.867,2457.5
592.033,2454.35
592.199,2471.2
592.365,2462.4
592.531,2484.45
592.697,2446.45
592.863,2450.25
593.029,2478.25
593.195,2472.0
593.361,2500.6
593.526,2484.15
593.692,2476.75
593.858,2480.15
594.024,2491.9
594.19,2482.1
594.356,2487.0
594.522,2490.05
594.687,2486.8
594.853,2493.55
595.019,2483.65
595.185,2504.65
595.351,2513.1
595.516,2497.25
595.682,2516.55
595.848,2515.8
596.014,2500.85
596.18,2515.95
596.345,2500.25
596.511,2522.8
596.677,2519.65
596.843,2506.5
597.008,2500.5
597.174,2520.6
597.34,2523.45
597.505,2506.2
597.671,2500.8
597.837,2525.15
598.002,2514.9
598.168,2514.9
598.334,2516.3
598.499,2515.1
598.665,2498.6
598.831,2520.05
598.996,2532.65
599.162,2513.05
599.328,2537.85
599.493,2533.75
599.659,2523.8
599.824,2522.7
599.99,2551.2
600.156,2538.35
600.321,2521.5
600.487,2515.1
600.652,2533.0
600.818,2513.35
600.983,2529.75
601.149,2510.75
601.314,2509.4
601.48,2527.0
601.645,2509.6
601.811,2512.2
601.976,2530.0
602.142,2528.65
602.307,2509.6
602.473,2513.75
602.638,2500.1
602.804,2488.6
602.969,2504.2
603.135,2494.4
603.3,2488.0
603.466,2498.8
603.631,2464.0
603.796,2481.1
603.962,2490.15
604.127,2464.95
604.293,2470.6
604.458,2463.0
604.623,2434.3
604.789,2438.65
604.954,2472.0
605.119,2441.2
605.285,2443.65
605.45,2417.55
605.615,2421.2
605.781,2419.6
605.946,2430.4
606.111,2423.45
606.277,2408.75
606.442,2391.85
606.607,2404.6
606.772,2397.9
606.938,2394.0
607.103,2405.65
607.268,2384.15
607.433,2382.6
607.599,2369.45
607.764,2379.2
607.929,2384.55
608.094,2363.9
608.259,2363.25
608.425,2363.25
608.59,2355.15
608.755,2340.9
608.92,2341.65
609.085,2341.1
609.25,2337.05
609.415,2333.75
609.581,2323.8
609.746,2336.05
609.911,2331.85
610.076,2332.3
610.241,2330.25
610.406,2322.9
610.571,2318.1
610.736,2313.95
610.901,2325.1
611.066,2327.05
611.231,2322.05
611.396,2306.1
611.561,2307.4
611.727,2296.5
611.892,2311.1
612.057,2282.85
612.222,2302.2
612.386,2290.6
612.551,2299.85
612.716,2266.4
612.881,2283.9
613.046,2274.9
613.211,2276.25
613.376,2273.3
613.541,2266.1
613.706,2264.6
613.871,2273.4
614.036,2271.4
614.201,2265.95
614.366,2264.95
614.531,2270.35
614.695,2263.3
614.86,2249.6
615.025,2259.65
615.19,2251.1
615.355,2247.15
615.52,2258.5
615.684,2253.85
615.849,2253.4
616.014,2250.55
616.179,2249.6
616.344,2254.3
616.508,2242.5
616.673,2248.7
616.838,2268.1
617.003,2251.1
617.168,2266.1
617.332,2255.1
617.497,2263.2
617.662,2259.55
617.826,2267.95
617.991,2257.0
618.156,2264.9
618.32,2259.9
618.485,2259.4
618.65,2236.5
618.814,2257.7
618.979,2245.65
619.144,2251.95
619.308,2248.3
619.473,2246.7
619.638,2241.1
619.802,2241.75
619.967,2254.95
620.131,2260.15
620.296,2257.8
620.461,2248.15
620.625,2254.7
620.79,2257.6
620.954,2264.1
621.119,2283.6
621.283,2277.25
621.448,2305.35
621.612,2317.7
621.777,2365.55
621.941,2382.85
622.106,2413.95
622.27,2413.25
622.435,2407.35
622.599,2361.95
622.764,2315.2
622.928,2283.05
623.093,2259.25
623.257,2237.85
623.422,2250.0
623.586,2234.0
623.75,2216.1
623.915,2222.85
624.079,2219.8
624.244,2219.6
624.408,2233.8
624.572,2215.05
624.737,2228.05
624.901,2215.25
625.065,2218.0
625.23,2235.35
625.394,2230.7
625.558,2229.35
625.723,2260.55
625.887,2268.3
626.051,2313.4
626.215,2374.2
626.38,2483.05
626.544,2724.95
626.708,3215.05
626.872,3973.45
627.037,4712.9
627.201,4959.95
627.365,4652.9
627.529,4295.25
627.693,3948.45
627.858,3721.1
628.022,3786.5
628.186,4002.8
628.35,4547.55
628.514,4912.0
628.678,4451.45
628.843,3857.35
629.007,3566.3
629.171,3497.65
629.335,3401.15
629.499,3264.65
629.663,3155.6
629.827,3024.15
629.991,3009.4
630.155,2931.2
630.319,2913.3
630.483,2889.45
630.647,2765.6
630.812,2663.15
630.976,2554.5
631.14,2395.4
631.304,2327.5
631.468,2285.3
631.632,2263.65
631.796,2242.1
631.959,2228.4
632.123,2226.5
632.287,2221.55
632.451,2196.35
632.615,2208.4
632.779,2213.1
632.943,2183.2
633.107,2203.1
633.271,2200.1
633.435,2197.5
633.599,2190.5
633.763,2186.25
633.926,2182.9
634.09,2178.95
634.254,2183.1
634.418,2169.8
634.582,2170.05
634.746,2176.15
634.909,2172.75
635.073,2171.05
635.237,2178.2
635.401,2173.9
635.564,2155.45
635.728,2164.45
635.892,2160.5
636.056,2151.75
636.219,2160.5
636.383,2166.1
636.547,2161.7
636.711,2167.15
636.874,2147.5
637.038,2160.05
637.202,2158.6
637.365,2167.0
637.529,2152.55
637.693,2148.45
637.856,2149.45
638.02,2146.25
638.184,2160.55
638.347,2151.35
638.511,2137.85
638.674,2151.7
638.838,2145.4
639.002,2152.0
639.165,2152.4
639.329,2146.05
639.492,2150.3
639.656,2160.85
639.819,2149.7
639.983,2151.8
640.146,2155.0
640.31,2167.35
640.473,2153.9
640.637,2153.55
640.8,2145.65
640.964,2155.8
641.127,2143.9
641.291,2143.05
641.454,2162.7
641.618,2148.4
641.781,2145.05
641.944,2152.75
642.108,2150.15
642.271,2160.7
642.435,2172.05
642.598,2155.2
642.761,2162.65
642.925,2153.95
643.088,2156.15
643.251,2162.2
643.415,2154.15
643.578,2159.95
643.741,2156.85
643.905,2150.55
644.068,2157.55
644.231,2155.65
644.394,2160.65
644.558,2156.7
644.721,2151.5
644.884,2158.8
645.047,2150.9
645.211,2154.55
645.374,2165.7
645.537,2160.35
645.7,2169.55
645.863,2150.35
646.027,2149.15
646.19,2150.6
646.353,2155.2
646.516,2143.2
646.679,2154.35
646.842,2145.5
647.005,2151.95
647.169,2146.65
647.332,2145.05
647.495,2140.55
647.658,2135.95
647.821,2152.65
647.984,2147.4
648.147,2135.4
648.31,2145.65
648.473,2129.75
648.636,2136.25
648.799,2138.65
648.962,2140.2
649.125,2125.85
649.288,2133.55
649.451,2122.2
649.614,2135.9
649.777,2146.4
649.94,2141.3
650.103,2129.75
650.266,2126.0
650.429,2135.95
650.592,2125.85
650.755,2129.95
650.918,2130.75
651.08,2133.9
651.243,2132.7
651.406,2109.0
651.569,2112.9
651.732,2130.4
651.895,2116.0
652.058,2111.95
652.22,2116.4
652.383,2121.05
652.546,2118.3
652.709,2106.75
652.872,2106.15
653.034,2107.0
653.197,2104.6
653.36,2115.15
653.523,2096.95
653.685,2096.0
653.848,2105.05
654.011,2108.55
654.173,2096.95
654.336,2085.75
654.499,2092.4
654.662,2089.95
654.824,2084.95
654.987,2084.85
655.149,2081.75
655.312,2088.25
655.475,2084.0
655.637,2070.45
655.8,2083.8
655.963,2084.9
656.125,2069.95
656.288,2064.7
656.45,2073.95
656.613,2070.1
656.775,2073.5
656.938,2076.65
657.1,2071.15
657.263,2060.45
657.425,2068.95
657.588,2074.2
657.75,2056.95
657.913,2055.25
658.075,2061.4
658.238,2055.25
658.4,2046.8
658.563,2053.05
658.725,2043.5
658.888,2041.45
659.05,2051.6
659.212,2049.45
659.375,2038.4
659.537,2044.55
659.7,2034.55
659.862,2036.85
660.024,2042.0
660.187,2038.05
660.349,2047.4
660.511,2036.3
660.674,2034.6
660.836,2037.75
660.998,2022.15
661.079,2016.05