File: spectra/VLFR_07-PET_nobio_Raman_d669b343.csv
nm,Intensity
791.377,12175.6
791.652,11827.4
791.927,11475.6
792.202,11231.4
792.477,11023.9
792.752,10956.2
793.027,10804.4
793.301,10494.9
793.576,10217.6
793.851,10236.1
794.126,10274.7
794.401,10251.5
794.676,10163.1
794.951,10103.0
795.225,10088.8
795.5,9946.78
795.775,10015.7
796.05,9932.02
796.325,9926.54
796.599,9945.38
796.874,9936.72
797.149,9954.74
797.424,9921.38
797.698,9885.88
797.973,9900.9
798.248,9729.66
798.523,9821.16
798.797,9911.7
799.072,9806.2
799.347,9719.4
799.622,9734.86
799.896,9774.06
800.171,9839.42
800.446,9820.16
800.72,9576.36
800.995,9651.2
801.27,9727.3
801.544,9720.5
801.819,9650.26
802.094,9609.76
802.368,9652.96
802.643,9606.36
802.918,9533.7
803.192,9397.1
803.467,9315.64
803.742,9298.72
804.016,9328.24
804.291,9260.4
804.565,9317.02
804.84,9267.76
805.114,9272.1
805.389,9264.36
805.664,9227.2
805.938,9134.5
806.213,9140.78
806.487,9200.48
806.762,9175.44
807.036,9098.0
807.311,9118.84
807.585,9011.32
807.86,8937.98
808.134,9029.76
808.409,9131.64
808.683,8956.84
808.958,8906.78
809.232,8938.82
809.507,8962.48
809.781,8869.9
810.056,8857.12
810.33,8921.28
810.605,8882.24
810.879,8930.24
811.153,8837.4
811.428,8799.88
811.702,8745.42
811.977,8712.5
812.251,8827.46
812.525,8797.5
812.8,8724.7
813.074,8605.08
813.349,8659.86
813.623,8710.46
813.897,8667.18
814.172,8662.18
814.446,8616.52
814.72,8690.6
814.995,8662.12
815.269,8550.32
815.543,8446.68
815.818,8446.34
816.092,8494.22
816.366,8589.36
816.64,8459.32
816.915,8435.08
817.189,8477.96
817.463,8390.96
817.737,8412.6
818.012,8420.24
818.286,8341.26
818.56,8299.5
818.834,8328.0
819.109,8301.38
819.383,8351.08
819.657,8336.92
819.931,8276.34
820.205,8215.94
820.48,8276.74
820.754,8274.88
821.028,8240.94
821.302,8249.7
821.576,8147.96
821.85,8012.82
822.125,8064.94
822.399,8070.9
822.673,8075.74
822.947,8019.2
823.221,7979.5
823.495,8007.3
823.769,8101.76
824.043,8036.68
824.317,7944.96
824.591,7984.24
824.865,8002.42
825.14,7976.68
825.414,8183.46
825.688,8244.88
825.962,8192.4
826.236,8055.8
826.51,7909.24
826.784,7847.94
827.058,7821.38
827.332,7778.58
827.606,7722.06
827.88,7670.52
828.154,7693.14
828.428,7699.4
828.702,7684.8
828.976,7703.7
829.249,7746.62
829.523,7708.82
829.797,7640.66
830.071,7671.18
830.345,7720.58
830.619,7778.5
830.893,7719.52
831.167,7627.0
831.441,7570.28
831.715,7551.08
831.988,7513.5
832.262,7477.48
832.536,7457.18
832.81,7497.96
833.084,7466.9
833.358,7488.72
833.632,7459.96
833.905,7394.28
834.179,7382.38
834.453,7393.98
834.727,7394.5
835.001,7340.72
835.274,7331.08
835.548,7288.66
835.822,7240.86
836.096,7273.52
836.369,7348.18
836.643,7436.56
836.917,7407.3
837.191,7359.42
837.464,7400.64
837.738,7411.1
838.012,7373.34
838.285,7328.62
838.559,7363.7
838.833,7367.94
839.106,7365.44
839.38,7291.72
839.654,7347.62
839.927,7302.52
840.201,7228.76
840.475,7250.2
840.748,7455.44
841.022,7615.72
841.295,7685.54
841.569,7636.92
841.843,7492.72
842.116,7397.98
842.39,7202.7
842.663,7150.52
842.937,7245.6
843.211,7264.2
843.484,7251.8
843.758,7165.54
844.031,7114.74
844.305,7066.34
844.578,7033.38
844.852,7001.88
845.125,6898.28
845.399,6912.04
845.672,6903.58
845.946,6887.58
846.219,6869.42
846.493,6773.3
846.766,6746.7
847.039,6814.54
847.313,6820.62
847.586,6826.44
847.86,6781.54
848.133,6769.9
848.407,6828.44
848.68,6768.32
848.953,6782.7
849.227,6794.2
849.5,6727.02
849.773,6720.84
850.047,6757.6
850.32,6680.44
850.593,6653.84
850.867,6719.1
851.14,6736.56
851.413,6713.26
851.687,6728.18
851.96,6677.6
852.233,6640.58
852.507,6670.16
852.78,6703.56
853.053,6705.42
853.326,6607.58
853.6,6598.96
853.873,6655.88
854.146,6583.12
854.419,6533.78
854.693,6592.26
854.966,6656.24
855.239,6679.24
855.512,6654.08
855.785,6530.12
856.059,6429.54
856.332,6468.28
856.605,6559.12
856.878,6549.24
857.151,6491.74
857.424,6528.92
857.698,6573.14
857.971,6564.38
858.244,6594.86
858.517,6634.64
858.79,6625.2
859.063,6679.1
859.336,6705.9
859.609,6656.34
859.882,6677.18
860.155,6697.42
860.428,6674.62
860.701,6631.16
860.974,6573.94
861.247,6445.4
861.52,6411.18
861.793,6456.46
862.066,6424.14
862.339,6371.5
862.612,6327.66
862.885,6302.52
863.158,6344.0
863.431,6390.82
863.704,6375.16
863.977,6348.1
864.25,6365.44
864.523,6410.94
864.796,6368.64
865.069,6333.3
865.342,6366.24
865.615,6337.56
865.888,6261.42
866.16,6224.38
866.433,6198.14
866.706,6221.28
866.979,6223.14
867.252,6191.3
867.525,6158.3
867.798,6164.9
868.07,6211.16
868.343,6177.52
868.616,6155.18
868.889,6164.18
869.162,6133.96
869.434,6200.14
869.707,6261.82
869.98,6235.14
870.253,6227.1
870.525,6210.76
870.798,6203.76
871.071,6263.78
871.344,6348.42
871.616,6390.16
871.889,6444.46
872.162,6491.32
872.434,6470.06
872.707,6481.64
872.98,6521.1
873.252,6562.32
873.525,6512.16
873.798,6496.98
874.07,6390.82
874.343,6328.46
874.615,6228.88
874.888,6182.02
875.161,6132.1
875.433,6100.48
875.706,6081.68
875.978,6052.8
876.251,6027.0
876.524,5984.78
876.796,6030.34
877.069,6046.98
877.341,5937.82
877.614,5877.46
877.886,5921.44
878.159,5885.52
878.431,5879.08
878.704,5911.98
878.976,5890.28
879.249,5873.2
879.521,5915.88
879.794,5931.82
880.066,5901.24
880.338,5889.1
880.611,5877.28
880.883,5864.26
881.156,5862.08
881.428,5856.16
881.7,5817.7
881.973,5764.12
882.245,5788.58
882.518,5802.86
882.79,5804.68
883.062,5865.86
883.335,5867.1
883.607,5788.12
883.879,5756.72
884.152,5762.2
884.424,5757.22
884.696,5748.84
884.968,5724.22
885.241,5735.34
885.513,5764.02
885.785,5784.3
886.058,5780.86
886.33,5752.8
886.602,5671.0
886.874,5644.76
887.146,5680.66
887.419,5663.32
887.691,5604.06
887.963,5565.48
888.235,5606.3
888.507,5625.7
888.78,5614.78
889.052,5583.34
889.324,5561.9
889.596,5542.42
889.868,5501.62
890.14,5503.68
890.412,5536.34
890.684,5582.38
890.957,5585.88
891.229,5582.56
891.501,5586.56
891.773,5581.06
892.045,5547.76
892.317,5509.86
892.589,5466.6
892.861,5451.26
893.133,5433.82
893.405,5412.56
893.677,5432.34
893.949,5466.7
894.221,5444.96
894.493,5392.9
894.765,5388.5
895.037,5384.64
895.309,5340.18
895.581,5368.94
895.853,5396.7
896.125,5405.68
896.397,5429.44
896.668,5427.94
896.94,5434.06
897.212,5484.36
897.484,5661.26
897.756,5849.9
898.028,6028.92
898.3,6118.04
898.571,6118.26
898.843,6047.42
899.115,5934.74
899.387,5761.48
899.659,5614.18
899.931,5490.78
900.202,5366.36
900.474,5316.34
900.746,5263.6
901.018,5211.44
901.289,5174.28
901.561,5187.78
901.833,5209.48
902.105,5225.72
902.376,5189.42
902.648,5154.66
902.92,5129.44
903.191,5156.78
903.463,5129.58
903.735,5112.8
904.006,5144.48
904.278,5164.1
904.55,5169.9
904.821,5159.12
905.093,5145.08
905.365,5144.16
905.636,5166.0
905.908,5185.88
906.179,5270.32
906.451,5357.92
906.722,5439.76
906.994,5543.34
907.266,5627.04
907.537,5622.6
907.809,5651.08
908.08,5610.04
908.352,5574.24
908.623,5493.32
908.895,5408.38
909.166,5321.46
909.438,5201.28
909.709,5128.76
909.981,5105.72
910.252,5070.78
910.523,5012.98
910.795,4960.8
911.066,4970.18
911.338,4979.24
911.609,4972.64
911.881,4951.58
912.152,4927.64
912.423,4907.78
912.695,4915.2
912.966,4899.26
913.237,4869.42
913.509,4844.38
913.78,4826.0
914.051,4844.28
914.323,4845.16
914.594,4831.3
914.865,4837.96
915.136,4829.14
915.408,4825.52
915.679,4817.46
915.95,4815.3
916.221,4816.04
916.493,4810.3
916.764,4796.62
917.035,4803.0
917.306,4798.88
917.578,4789.9
917.849,4758.42
918.12,4751.1
918.391,4749.02
918.662,4745.38
918.933,4729.32
919.204,4724.06
919.476,4723.16
919.747,4735.1
920.018,4744.6
920.289,4738.22
920.56,4732.68
920.831,4727.44
921.102,4695.24
921.373,4674.58
921.644,4669.86
921.915,4669.1
922.186,4655.32
922.457,4637.98
922.728,4639.34
922.999,4649.8
923.27,4661.96
923.541,4632.82
923.812,4620.02
924.083,4626.6
924.354,4620.66
924.625,4616.16
924.896,4619.74
925.167,4587.84
925.438,4573.16
925.709,4564.08
925.98,4567.6
926.251,4557.84
926.522,4568.66
926.792,4556.3
927.063,4546.26
927.334,4539.84
927.605,4559.46
927.876,4560.58
928.147,4555.9
928.417,4531.28
928.688,4529.64
928.959,4507.24
929.23,4499.92
929.501,4499.32
929.771,4490.22
930.042,4487.58
930.313,4482.82
930.584,4479.32
930.854,4463.22
931.125,4451.36
931.396,4434.22
931.666,4442.34
931.937,4444.12
932.208,4436.16
932.478,4425.72
932.749,4430.5
933.02,4420.04
933.29,4419.86
933.561,4416.42
933.832,4414.88
934.102,4407.48
934.373,4397.86
934.643,4382.66
934.914,4377.88
935.184,4371.64
935.455,4366.18
935.726,4361.46
935.996,4359.48
936.267,4367.0
936.537,4364.9
936.808,4348.44
937.078,4337.38
937.349,4350.36
937.619,4338.64
937.89,4326.08
938.16,4332.16
938.43,4329.92
938.701,4317.64
938.971,4318.66
939.242,4297.98
939.512,4312.7
939.782,4318.7
940.053,4303.96
940.323,4293.44
940.594,4298.42
940.864,4279.72
941.134,4281.9
941.405,4281.26
941.675,4270.62
941.945,4266.9
942.216,4255.32
942.486,4255.54
942.756,4260.8
943.026,4257.88
943.297,4249.06
943.567,4243.38
943.837,4243.76
944.107,4232.8
944.378,4228.26
944.648,4227.5
944.918,4229.08
945.188,4220.88
945.458,4209.68
945.729,4211.44
945.999,4221.0
946.269,4224.88
946.539,4207.22
946.809,4195.46
947.079,4184.0
947.349,4189.1
947.62,4203.2
947.89,4195.84
948.16,4181.78
948.43,4181.14
948.7,4161.64
948.97,4169.02
949.24,4176.94
949.51,4173.86
949.78,4169.82
950.05,4169.48
950.32,4156.6
950.59,4141.24
950.86,4140.72
951.13,4145.12
951.4,4140.22
951.67,4132.04
951.94,4137.0
952.21,4144.3
952.48,4134.38
952.75,4119.2
953.02,4118.66
953.289,4122.76
953.559,4116.0
953.829,4109.32
954.099,4111.66
954.369,4112.12
954.639,4109.32
954.909,4103.8
955.178,4098.68
955.448,4099.46
955.718,4092.98
955.988,4086.1
956.257,4082.36
956.527,4072.94
956.797,4078.32
957.067,4083.44
957.336,4080.8
957.606,4079.76
957.876,4066.82
958.146,4057.94
958.415,4053.5
958.685,4053.54
958.955,4060.28
959.224,4056.9
959.494,4052.7
959.764,4055.1
960.033,4066.6
960.303,4063.38
960.572,4048.72
960.842,4036.26
961.112,4037.04
961.381,4043.28
961.651,4039.64
961.92,4029.76
962.19,4023.16
962.459,4021.84
962.729,4017.7
962.998,4016.56
963.268,4019.7
963.537,4019.8
963.807,4014.54
964.076,4012.4
964.346,4009.9
964.615,4007.58
964.885,4001.36
965.154,3999.08
965.424,4000.5
965.693,4005.82
965.962,4003.38
966.232,3995.46
966.501,3994.2
966.771,3997.24
967.04,3991.16
967.309,3992.58
967.579,3990.82
967.848,3983.38
968.117,3979.76
968.387,3979.86
968.656,3982.2
968.925,3971.82
969.194,3968.06
969.464,3967.18
969.733,3968.18
970.002,3968.78
970.271,3968.24
970.541,3967.12
970.81,3964.58
971.079,3961.52
971.348,3958.2
971.617,3955.82
971.887,3954.96
972.156,3955.98
972.425,3954.34
972.694,3946.96
972.963,3947.4
973.232,3942.78
973.501,3938.76
973.77,3937.78
974.04,3934.98
974.309,3933.62
974.578,3935.26
974.847,3934.2
975.116,3929.04
975.385,3929.7
975.654,3928.2
975.923,3931.86
976.192,3926.86
976.461,3925.96
976.73,3925.98
976.999,3921.94
977.268,3916.9
977.537,3918.68
977.806,3913.3
978.074,3920.88
978.343,3914.54
978.612,3909.86
978.881,3910.54
979.15,3908.98
979.419,3907.2
979.688,3910.68
979.957,3909.04
980.225,3901.8
980.494,3897.24
980.763,3895.92
981.032,3898.48
981.301,3899.62
981.569,3897.58
981.838,3901.02
982.107,3899.5
982.376,3892.08
982.644,3891.66
982.913,3888.18
983.182,3888.7
983.451,3884.5
983.719,3882.72
983.988,3883.12
984.257,3881.72
984.525,3882.68
984.794,3881.84
985.063,3882.04
985.331,3880.76
985.6,3881.26
985.868,3882.28
986.137,3880.66
986.406,3873.32
986.674,3866.9
986.943,3868.14
987.211,3871.12
987.48,3866.24
987.748,3861.4
988.017,3863.02
988.285,3867.76
988.554,3867.64
988.822,3864.64
989.091,3864.34
989.359,3860.46
989.628,3859.14
989.896,3861.26
990.164,3858.48
990.433,3852.48
990.701,3853.3
990.97,3853.96
991.238,3852.0
991.506,3849.46
991.775,3847.6
992.043,3847.72
992.311,3847.6
992.58,3844.36
992.848,3841.6
993.116,3842.8
993.385,3842.86
993.653,3844.08
993.921,3840.5
994.19,3837.68
994.458,3838.1
994.726,3836.96
994.994,3834.56
995.262,3833.42
995.531,3835.12
995.799,3834.18
996.067,3835.62
996.335,3833.34
996.603,3831.4
996.872,3828.48
997.14,3827.36
997.408,3825.62
997.676,3826.3
997.944,3825.18
998.212,3823.92
998.48,3822.7
998.748,3824.94
999.016,3824.88
999.284,3824.1
999.552,3824.42
999.82,3822.24
1000.09,3818.38
1000.36,3814.36
1000.62,3813.9
1000.89,3815.52
1001.16,3815.08
1001.43,3813.04
1001.7,3815.66
1001.96,3814.68
1002.23,3812.0
1002.5,3812.84
1002.77,3811.0
1003.04,3807.46
1003.3,3807.74
1003.57,3808.22
1003.84,3806.32
1004.11,3801.12
1004.38,3800.38
1004.64,3801.52
1004.91,3805.4
1005.18,3806.3
1005.45,3805.6
1005.71,3806.42
1005.98,3803.2
1006.25,3801.46
1006.52,3800.62
1006.79,3800.12
1007.05,3799.06
1007.32,3798.64
1007.59,3797.0
1007.86,3794.04
1008.12,3794.28
1008.39,3794.68
1008.66,3795.0
1008.93,3793.68
1009.19,3791.96
1009.46,3790.3
1009.73,3790.6
1010.0,3789.1
1010.26,3789.26
1010.53,3788.7
1010.8,3786.22
1011.07,3788.3
1011.33,3788.98
1011.6,3786.5
1011.87,3786.24
1012.14,3785.68
1012.4,3785.62
1012.67,3784.68
1012.94,3785.4
1013.21,3783.32
1013.47,3781.22
1013.74,3781.12
1014.01,3783.82
1014.28,3783.48
1014.54,3783.24
1014.81,3782.22
1015.08,3783.16
1015.35,3781.82
1015.61,3781.04
1015.88,3780.84
1016.15,3781.3
1016.42,3781.28
1016.68,3780.72
1016.95,3780.74
1017.22,3781.46
1017.48,3780.54
1017.75,3776.96
1018.02,3776.16
1018.29,3776.14
1018.55,3776.62
1018.82,3774.48
1019.09,3775.56
1019.36,3775.68
1019.62,3775.32
1019.89,3775.16
1020.16,3774.9
1020.42,3777.4
1020.69,3777.62
1020.96,3779.54
1021.23,3779.88
1021.49,3780.28
1021.76,3781.62
1022.03,3783.72
1022.29,3783.02
1022.56,3783.5
1022.83,3782.28
1023.09,3781.88
1023.36,3780.68
1023.63,3781.78
1023.9,3782.4
1024.16,3778.78
1024.43,3777.62
1024.7,3773.16
1024.96,3773.08
1025.23,3772.88
1025.5,3771.08
1025.76,3768.98
1026.03,3768.86
1026.3,3767.08
1026.56,3766.1
1026.83,3765.72
1027.1,3764.28
1027.37,3763.52
1027.63,3764.0
1027.9,3763.38
1028.17,3761.8
1028.43,3761.04
1028.7,3760.4
1028.97,3760.6
1029.23,3759.66
1029.5,3757.96
1029.77,3758.98
1030.03,3755.88
1030.3,3755.72
1030.57,3756.84
1030.83,3755.4
1031.1,3755.12
1031.37,3755.86
1031.63,3754.6
1031.9,3755.5
1032.17,3754.52
1032.43,3756.16
1032.7,3756.36
1032.97,3755.92
1033.23,3756.38
1033.5,3757.34
1033.77,3757.46
1034.03,3759.46
1034.3,3760.8
1034.57,3760.68
1034.83,3761.8
1035.1,3762.18
1035.36,3761.82
1035.63,3761.56
1035.9,3760.74
1036.16,3759.16
1036.43,3758.38
1036.7,3758.14
1036.96,3756.4
1037.23,3754.32
1037.5,3753.64
1037.76,3753.2
1038.03,3751.62
1038.3,3749.78
1038.56,3749.74
1038.83,3748.68
1039.09,3749.3
1039.36,3747.68
1039.63,3747.56
1039.89,3746.58
1040.16,3747.74
1040.43,3746.46
1040.69,3746.88
1040.96,3746.58
1041.22,3746.66
1041.49,3746.06
1041.76,3744.72
1042.02,3744.88
1042.29,3743.6
1042.55,3744.22
1042.82,3744.1
1043.09,3744.18
1043.35,3743.74
1043.62,3743.7
1043.89,3744.3
1044.15,3743.38
1044.42,3743.7
1044.68,3742.72
1044.95,3743.74
1045.22,3742.82
1045.48,3741.68
1045.75,3742.16
1046.01,3741.86
1046.28,3742.28
1046.55,3742.08
1046.81,3741.58
1047.08,3742.26
1047.34,3742.12
1047.61,3741.58
1047.88,3740.22
1048.14,3740.32
1048.41,3742.08
1048.67,3740.2
1048.94,3740.44
1049.2,3740.48
1049.47,3740.6
1049.74,3741.58
1050.0,3740.86
1050.27,3740.12
1050.53,3740.72
1050.8,3740.9
1051.06,3740.34
1051.33,3739.26
1051.6,3740.2
1051.86,3741.52
1052.13,3740.58
1052.39,3739.2
1052.66,3739.56
1052.92,3738.56
1053.19,3739.36
1053.46,3740.5
1053.72,3739.24
1053.99,3739.66
1054.25,3739.62
1054.52,3738.82
1054.78,3739.32
1055.05,3738.42
1055.32,3738.82
1055.58,3739.48
1055.85,3738.8
1056.11,3739.78
1056.38,3738.02
1056.64,3738.8
1056.91,3737.8
1057.17,3738.1
1057.44,3737.66
1057.7,3738.36
1057.97,3737.92
1058.24,3738.12
1058.5,3736.88
1058.77,3737.14
1059.03,3738.28
1059.3,3737.18
1059.56,3738.04
1059.83,3738.02
1060.09,3737.18
1060.36,3739.12
1060.62,3736.84
1060.89,3737.7
1061.15,3737.6
1061.42,3738.0
1061.68,3736.32
1061.95,3737.46
1062.22,3737.0
1062.48,3737.52
1062.75,3737.46
1063.01,3737.48
1063.28,3737.5
1063.54,3737.12
1063.81,3736.42
1064.07,3736.3
1064.34,3736.9
1064.6,3737.28
1064.87,3735.6
1065.13,3737.38
1065.4,3736.2
1065.66,3736.48
1065.93,3736.66
1066.19,3736.64
1066.46,3735.84
1066.72,3736.46
1066.99,3735.8
1067.25,3734.86
1067.52,3735.88
1067.78,3735.96
1068.05,3735.08