File: spectra/VLFR_02-HDPE_nobio_Raman_f04227d9.csv
nm,Intensity
526.508,830.1
526.645,829.9
526.782,830.3
526.919,830.9
527.055,830.9
527.192,829.1
527.329,829.9
527.465,829.3
527.602,830.7
527.739,830.4
527.875,829.8
528.012,828.5
528.149,830.7
528.285,830.6
528.422,830.8
528.558,831.2
528.695,831.5
528.832,829.6
528.968,830.6
529.105,830.0
529.241,830.7
529.378,830.5
529.514,831.5
529.651,828.8
529.787,830.4
529.924,831.2
530.061,831.0
530.197,829.8
530.334,830.4
530.47,830.7
530.606,829.1
530.743,830.3
530.879,831.0
531.016,830.2
531.152,830.4
531.289,829.7
531.425,829.5
531.562,830.5
531.698,829.7
531.834,830.2
531.971,832.3
532.107,856.6
532.244,867.5
532.38,839.9
532.516,831.7
532.653,828.6
532.789,829.9
532.925,830.9
533.062,830.1
533.198,830.4
533.334,829.6
533.471,830.2
533.607,830.1
533.743,833.6
533.879,855.5
534.016,887.9
534.152,908.8
534.288,911.7
534.424,908.1
534.561,910.7
534.697,910.2
534.833,914.6
534.969,920.3
535.106,917.6
535.242,910.1
535.378,898.6
535.514,889.9
535.65,876.6
535.786,868.9
535.923,862.7
536.059,859.6
536.195,860.5
536.331,859.1
536.467,854.9
536.603,854.8
536.739,856.5
536.876,853.8
537.012,852.3
537.148,853.6
537.284,850.0
537.42,850.7
537.556,851.8
537.692,851.7
537.828,849.9
537.964,851.9
538.1,848.1
538.236,849.8
538.372,849.4
538.508,848.9
538.644,844.7
538.78,847.2
538.916,845.8
539.052,844.6
539.188,845.0
539.324,843.6
539.46,844.3
539.596,843.2
539.732,842.4
539.868,841.8
540.004,841.8
540.14,841.9
540.275,841.0
540.411,842.1
540.547,840.7
540.683,839.3
540.819,839.5
540.955,841.8
541.091,840.8
541.227,841.4
541.362,842.3
541.498,838.8
541.634,840.7
541.77,840.0
541.906,837.5
542.041,839.6
542.177,842.8
542.313,839.7
542.449,840.3
542.585,839.0
542.72,841.2
542.856,839.7
542.992,839.7
543.128,839.7
543.263,840.5
543.399,839.1
543.535,839.5
543.67,839.2
543.806,839.4
543.942,840.8
544.078,839.3
544.213,836.4
544.349,838.7
544.485,840.2
544.62,839.2
544.756,837.5
544.892,837.4
545.027,837.3
545.163,837.9
545.298,836.9
545.434,839.7
545.57,837.8
545.705,837.4
545.841,839.6
545.976,838.7
546.112,839.8
546.248,836.6
546.383,838.9
546.519,838.7
546.654,836.5
546.79,837.4
546.925,838.3
547.061,838.8
547.196,837.5
547.332,838.3
547.467,839.8
547.603,839.6
547.738,839.1
547.874,837.2
548.009,838.4
548.145,839.6
548.28,838.5
548.416,837.9
548.551,838.5
548.686,838.6
548.822,837.7
548.957,838.3
549.093,837.4
549.228,839.3
549.363,837.6
549.499,837.5
549.634,839.3
549.77,838.1
549.905,837.9
550.04,838.4
550.176,838.5
550.311,838.5
550.446,839.3
550.582,838.3
550.717,838.2
550.852,837.7
550.988,838.6
551.123,838.9
551.258,837.5
551.394,838.7
551.529,838.8
551.664,839.0
551.799,838.5
551.935,838.7
552.07,839.1
552.205,838.5
552.34,838.9
552.476,842.0
552.611,838.8
552.746,837.7
552.881,840.2
553.016,838.6
553.152,838.9
553.287,839.4
553.422,842.6
553.557,840.3
553.692,840.5
553.827,842.2
553.963,839.9
554.098,839.1
554.233,841.5
554.368,842.3
554.503,842.9
554.638,844.1
554.773,842.2
554.908,844.2
555.043,841.7
555.179,842.4
555.314,842.0
555.449,843.7
555.584,842.6
555.719,842.9
555.854,843.6
555.989,843.5
556.124,844.2
556.259,843.4
556.394,844.4
556.529,843.1
556.664,843.3
556.799,843.9
556.934,844.1
557.069,845.0
557.204,846.9
557.339,848.5
557.474,846.4
557.609,848.6
557.744,847.0
557.879,847.3
558.014,846.9
558.149,848.3
558.284,846.9
558.419,846.9
558.553,849.0
558.688,847.5
558.823,848.1
558.958,848.7
559.093,847.0
559.228,846.4
559.363,847.9
559.498,846.9
559.632,847.2
559.767,845.1
559.902,846.9
560.037,845.5
560.172,846.8
560.307,844.2
560.441,845.3
560.576,843.2
560.711,843.5
560.846,844.8
560.981,845.0
561.115,844.2
561.25,845.6
561.385,844.7
561.52,845.3
561.654,845.1
561.789,845.0
561.924,844.5
562.059,846.3
562.193,847.6
562.328,849.2
562.463,847.5
562.598,851.5
562.732,849.5
562.867,848.7
563.002,848.2
563.136,850.9
563.271,852.8
563.406,853.7
563.54,855.0
563.675,858.9
563.81,881.9
563.944,952.2
564.079,1022.7
564.213,954.8
564.348,888.5
564.483,871.3
564.617,869.1
564.752,869.8
564.887,867.6
565.021,863.9
565.156,861.0
565.29,858.5
565.425,857.1
565.559,856.3
565.694,857.5
565.828,864.2
565.963,875.0
566.098,915.1
566.232,961.0
566.367,920.4
566.501,871.5
566.636,858.2
566.77,853.6
566.905,852.4
567.039,855.5
567.174,853.7
567.308,861.1
567.443,885.4
567.577,892.7
567.711,866.3
567.846,855.7
567.98,851.9
568.115,849.9
568.249,850.9
568.384,848.4
568.518,848.9
568.652,848.7
568.787,850.0
568.921,849.3
569.056,849.1
569.19,850.7
569.324,850.6
569.459,852.2
569.593,850.5
569.727,851.5
569.862,850.2
569.996,849.8
570.131,850.9
570.265,852.0
570.399,855.8
570.534,856.5
570.668,858.9
570.802,860.0
570.936,857.0
571.071,861.3
571.205,864.5
571.339,889.3
571.474,1011.2
571.608,1157.8
571.742,1002.7
571.876,905.3
572.011,880.7
572.145,872.7
572.279,864.9
572.413,861.3
572.548,857.1
572.682,854.1
572.816,852.7
572.95,848.5
573.084,851.2
573.219,851.3
573.353,848.9
573.487,849.6
573.621,850.4
573.755,854.3
573.889,858.7
574.024,868.5
574.158,857.4
574.292,852.7
574.426,850.0
574.56,848.8
574.694,848.8
574.828,849.7
574.963,850.5
575.097,847.5
575.231,852.7
575.365,861.9
575.499,899.9
575.633,919.2
575.767,892.1
575.901,890.5
576.035,913.6
576.169,964.5
576.303,1049.1
576.437,1046.1
576.571,978.7
576.706,951.1
576.84,950.1
576.974,961.1
577.108,965.4
577.242,947.2
577.376,921.0
577.51,893.7
577.644,878.2
577.778,869.4
577.912,861.1
578.046,859.6
578.179,855.1
578.313,854.9
578.447,851.5
578.581,851.8
578.715,852.4
578.849,851.1
578.983,852.3
579.117,850.1
579.251,850.3
579.385,850.2
579.519,850.4
579.653,850.5
579.787,847.7
579.921,849.2
580.054,850.7
580.188,848.0
580.322,848.4
580.456,849.7
580.59,849.1
580.724,846.6
580.858,848.2
580.991,848.9
581.125,846.9
581.259,845.5
581.393,847.0
581.527,848.1
581.661,848.2
581.794,848.1
581.928,846.7
582.062,848.3
582.196,849.1
582.33,848.2
582.463,848.4
582.597,846.0
582.731,847.7
582.865,847.7
582.998,848.3
583.132,849.3
583.266,848.8
583.4,847.6
583.533,845.2
583.667,847.7
583.801,846.6
583.935,847.1
584.068,845.1
584.202,845.6
584.336,847.0
584.469,846.4
584.603,846.9
584.737,845.5
584.87,846.5
585.004,847.1
585.138,847.2
585.271,844.2
585.405,847.6
585.539,845.4
585.672,848.1
585.806,846.7
585.94,848.3
586.073,847.2
586.207,846.2
586.34,846.7
586.474,847.7
586.608,849.8
586.741,847.9
586.875,849.6
587.008,848.7
587.142,846.8
587.276,849.5
587.409,846.7
587.543,848.5
587.676,850.5
587.81,850.1
587.943,845.6
588.077,850.4
588.21,846.7
588.344,850.0
588.478,849.6
588.611,850.0
588.745,848.2
588.878,848.4
589.012,848.6
589.145,846.7
589.279,849.7
589.412,850.1
589.546,849.2
589.679,849.9
589.812,845.9
589.946,851.0
590.079,848.6
590.213,850.6
590.346,849.5
590.48,848.8
590.613,847.5
590.747,849.7
590.88,850.2
591.013,850.9
591.147,848.6
591.28,851.7
591.414,848.1
591.547,849.8
591.68,850.6
591.814,848.7
591.947,848.7
592.081,848.9
592.214,850.8
592.347,851.2
592.481,850.6
592.614,850.5
592.747,850.8
592.881,849.4
593.014,849.6
593.147,851.6
593.281,852.9
593.414,850.5
593.547,852.9
593.681,850.6
593.814,851.6
593.947,852.1
594.081,851.8
594.214,848.8
594.347,852.3
594.48,851.3
594.614,850.4
594.747,853.4
594.88,854.4
595.014,849.8
595.147,855.2
595.28,852.8
595.413,855.5
595.547,853.5
595.68,853.9
595.813,854.8
595.946,853.9
596.079,853.4
596.213,853.5
596.346,854.5
596.479,854.5
596.612,854.2
596.745,852.9
596.879,857.2
597.012,854.9
597.145,855.7
597.278,855.8
597.411,855.6
597.545,856.7
597.678,856.3
597.811,857.1
597.944,858.1
598.077,858.8
598.21,858.4
598.343,855.7
598.476,858.8
598.61,860.5
598.743,859.2
598.876,861.3
599.009,861.1
599.142,859.0
599.275,859.2
599.408,859.9
599.541,861.3
599.674,861.3
599.807,860.6
599.941,860.1
600.074,863.6
600.207,859.8
600.34,861.5
600.473,859.2
600.606,860.5
600.739,862.5
600.872,862.1
601.005,861.6
601.138,862.4
601.271,865.0
601.404,860.3
601.537,861.4
601.67,864.8
601.803,864.9
601.936,868.1
602.069,869.5
602.202,870.6
602.335,869.5
602.468,869.2
602.601,866.8
602.734,864.7
602.867,862.9
603.0,863.1
603.133,863.7
603.266,862.8
603.399,863.8
603.532,863.8
603.664,864.5
603.797,863.4
603.93,863.7
604.063,864.3
604.196,864.6
604.329,863.8
604.462,863.6
604.595,862.6
604.728,862.2
604.861,862.0
604.994,862.6
605.126,861.9
605.259,861.4
605.392,863.1
605.525,861.9
605.658,860.0
605.791,862.4
605.924,862.1
606.056,861.3
606.189,860.3
606.322,859.9
606.455,860.3
606.588,856.8
606.721,858.8
606.853,858.8
606.986,858.9
607.119,854.5
607.252,857.7
607.385,858.4
607.517,858.6
607.65,857.4
607.783,858.2
607.916,859.0
608.049,858.0
608.181,857.2
608.314,858.5
608.447,859.2
608.58,858.8
608.712,860.4
608.845,857.7
608.978,855.8
609.111,858.4
609.243,859.4
609.376,859.9
609.509,857.9
609.641,857.5
609.774,860.1
609.907,858.6
610.04,860.0
610.172,858.4
610.305,857.5
610.438,857.7
610.57,858.5
610.703,857.3
610.836,857.2
610.968,859.1
611.101,861.9
611.234,860.6
611.366,860.5
611.499,860.5
611.632,857.0
611.764,859.0
611.897,856.2
612.03,859.7
612.162,857.2
612.295,857.7
612.428,861.9
612.56,859.4
612.693,859.0
612.825,859.5
612.958,860.1
613.091,856.3
613.223,859.9
613.356,857.4
613.488,859.1
613.621,859.5
613.754,859.0
613.886,857.4
614.019,859.6
614.151,856.3
614.284,858.4
614.416,856.5
614.549,861.3
614.681,857.1
614.814,859.6
614.947,860.5
615.079,861.7
615.212,860.0
615.344,858.4
615.477,860.2
615.609,860.9
615.742,860.5
615.874,862.0
616.007,861.1
616.139,861.9
616.272,862.4
616.404,864.8
616.537,866.1
616.669,867.9
616.802,866.7
616.934,872.4
617.067,873.2
617.199,878.9
617.332,878.7
617.464,870.6
617.596,877.3
617.729,877.3
617.861,876.8
617.994,878.1
618.126,879.5
618.259,881.1
618.391,879.5
618.524,875.7
618.656,875.8
618.788,875.8
618.921,875.3
619.053,876.7
619.186,877.8
619.318,882.5
619.45,880.1
619.583,886.4
619.715,885.4
619.848,884.4
619.98,882.4
620.112,882.7
620.245,885.2
620.377,883.7
620.509,882.5
620.642,885.0
620.774,884.4
620.907,888.1
621.039,891.8
621.171,892.5
621.304,901.1
621.436,908.7
621.568,916.2
621.701,925.9
621.833,940.7
621.965,955.2
622.097,972.1
622.23,978.9
622.362,986.7
622.494,978.5
622.627,963.9
622.759,941.4
622.891,922.8
623.024,911.4
623.156,903.6
623.288,894.6
623.42,891.0
623.553,887.6
623.685,886.5
623.817,886.6
623.949,885.3
624.082,886.3
624.214,883.7
624.346,881.1
624.479,884.1
624.611,883.6
624.743,883.0
624.875,884.8
625.007,886.0
625.14,887.6
625.272,891.5
625.404,894.1
625.536,894.2
625.669,898.3
625.801,905.1
625.933,911.0
626.065,918.6
626.197,933.1
626.33,963.1
626.462,1000.3
626.594,1082.5
626.726,1227.7
626.858,1460.0
626.99,1795.5
627.123,2157.8
627.255,2351.3
627.387,2245.1
627.519,2047.1
627.651,1865.4
627.783,1736.2
627.916,1656.1
628.048,1633.2
628.18,1668.9
628.312,1778.6
628.444,2146.6
628.576,2576.6
628.708,2345.2
628.84,1796.2
628.973,1586.9
629.105,1528.5
629.237,1506.6
629.369,1470.9
629.501,1412.2
629.633,1370.9
629.765,1297.6
629.897,1257.7
630.029,1234.0
630.161,1221.1
630.294,1221.4
630.426,1213.8
630.558,1201.4
630.69,1158.0
630.822,1116.5
630.954,1071.7
631.086,1012.4
631.218,966.9
631.35,936.7
631.482,919.5
631.614,909.9
631.746,902.3
631.878,898.5
632.01,893.0
632.142,889.5
632.274,887.7
632.406,885.4
632.538,884.0
632.67,884.9
632.802,883.0
632.934,881.4
633.066,878.0
633.198,877.9
633.33,877.7
633.462,874.3
633.594,871.6
633.726,871.5
633.858,871.8
633.99,868.6
634.122,874.0
634.254,869.7
634.386,867.5
634.518,868.5
634.65,866.8
634.782,866.9
634.914,862.5
635.046,865.1
635.178,861.2
635.31,862.3
635.442,862.5
635.574,861.6
635.706,861.9
635.838,860.3
635.97,861.2
636.102,861.0
636.234,863.8
636.365,861.4
636.497,859.2
636.629,860.5
636.761,862.0
636.893,858.5
637.025,855.0
637.157,855.1
637.289,855.0
637.421,855.0
637.553,851.8
637.685,852.5
637.816,851.3
637.948,853.7
638.08,850.9
638.212,849.5
638.344,851.9
638.476,848.9
638.608,850.9
638.74,850.4
638.871,849.7
639.003,851.0
639.135,850.7
639.267,853.0
639.399,851.4
639.531,849.7
639.662,851.3
639.794,852.9
639.926,848.4
640.058,850.5
640.19,851.4
640.322,849.3
640.453,848.1
640.585,849.0
640.717,850.1
640.849,850.3
640.981,849.9
641.113,849.9
641.244,850.3
641.376,850.9
641.508,847.9
641.64,849.2
641.772,849.9
641.903,849.9
642.035,848.5
642.167,849.8
642.299,848.4
642.43,848.6
642.562,846.9
642.694,848.8
642.826,848.3
642.958,847.1
643.089,848.2
643.221,849.1
643.353,845.9
643.485,848.6
643.616,847.1
643.748,849.1
643.88,850.1
644.012,848.7
644.143,848.3
644.275,849.0
644.407,847.7
644.538,847.6
644.67,849.2
644.802,847.8
644.934,845.7
645.065,846.4
645.197,847.7
645.329,848.5
645.461,848.6
645.592,847.9
645.724,845.1
645.856,849.7
645.987,848.6
646.119,847.8
646.251,848.1
646.382,848.2
646.514,847.2
646.646,847.7
646.777,847.9
646.909,848.3
647.041,847.2
647.172,846.7
647.304,846.4
647.436,847.2
647.567,848.2
647.699,849.2
647.831,847.6
647.962,849.1
648.094,847.7
648.226,848.0
648.357,848.5
648.489,848.7
648.621,849.1
648.752,849.5
648.884,847.2
649.016,848.0
649.147,848.4
649.279,848.9
649.411,847.5
649.542,846.6
649.674,849.0
649.805,846.6
649.937,850.0
650.069,846.6
650.2,849.4
650.332,848.7
650.463,847.3
650.595,848.2
650.727,849.9
650.858,848.2
650.99,849.7
651.121,849.5
651.253,849.8
651.385,849.3
651.516,849.6
651.648,849.2
651.779,848.5
651.911,847.4
652.043,849.6
652.174,849.0
652.306,850.4
652.437,847.5
652.569,849.7
652.7,850.9
652.832,847.3
652.963,849.2
653.095,847.8
653.227,848.0
653.358,848.6
653.49,848.7
653.621,848.6
653.753,850.1
653.884,848.8
654.016,848.4
654.147,850.8
654.279,849.1
654.41,849.9
654.542,849.4
654.674,848.6
654.805,848.6
654.937,848.2
655.068,847.0
655.2,848.2
655.331,849.5
655.463,849.6
655.594,848.4
655.726,848.0
655.857,849.7
655.989,847.5
656.12,847.0
656.252,848.3
656.383,847.1
656.515,848.6
656.646,851.0
656.778,849.6
656.909,849.2
657.041,849.7
657.172,848.6
657.304,849.1
657.435,849.7
657.567,849.4
657.698,848.9
657.829,848.7
657.961,849.7
658.092,847.9
658.224,849.2
658.355,847.7
658.487,848.6
658.618,849.1
658.75,848.1
658.881,849.0
659.013,850.0
659.144,848.9
659.275,850.8
659.407,849.8
659.538,848.8
659.67,847.9
659.801,849.0
659.933,851.5
660.064,850.7
660.196,851.6
660.327,851.8
660.458,851.4
660.59,847.0
660.721,847.1
660.853,846.4
660.984,848.4
661.116,846.7
661.247,850.9
661.378,844.9
661.51,848.7
661.641,845.2
661.773,847.2
661.904,848.7
662.035,844.6
662.167,846.7
662.298,844.7
662.43,846.2
662.561,847.2
662.692,846.2
662.824,847.2
662.955,845.3
663.087,845.1