File: spectra/VLFR_08-PLA_bio_Raman_dc191635.csv
nm,Intensity
528.626,1863.2
528.795,1863.2
528.963,1864.6
529.132,1864.9
529.3,1863.5
529.469,1863.9
529.637,1862.8
529.806,1863.7
529.974,1862.0
530.143,1863.5
530.311,1863.4
530.48,1865.6
530.648,1863.7
530.816,1864.3
530.985,1864.7
531.153,1866.7
531.322,1869.9
531.49,1877.9
531.658,1925.7
531.827,2778.5
531.995,5723.0
532.164,4742.8
532.332,2188.7
532.5,1872.8
532.669,1866.7
532.837,1865.0
533.006,1866.0
533.174,1867.2
533.342,1869.0
533.511,1902.6
533.679,2101.1
533.847,2461.0
534.016,2690.9
534.184,2759.2
534.352,2679.5
534.521,2573.4
534.689,2598.8
534.857,2567.5
535.025,2522.5
535.194,2490.1
535.362,2481.1
535.53,2428.1
535.699,2414.4
535.867,2391.5
536.035,2390.4
536.203,2367.0
536.372,2384.1
536.54,2395.2
536.708,2398.9
536.876,2401.4
537.044,2353.9
537.213,2366.1
537.381,2367.8
537.549,2384.2
537.717,2406.7
537.885,2386.4
538.054,2352.4
538.222,2334.4
538.39,2320.5
538.558,2332.7
538.726,2326.9
538.894,2323.3
539.063,2354.7
539.231,2324.1
539.399,2344.8
539.567,2312.8
539.735,2297.0
539.903,2283.4
540.071,2316.6
540.239,2311.2
540.408,2350.4
540.576,2351.7
540.744,2374.0
540.912,2369.6
541.08,2375.0
541.248,2382.2
541.416,2356.9
541.584,2356.3
541.752,2324.2
541.92,2321.1
542.088,2317.0
542.256,2324.9
542.424,2320.4
542.592,2327.8
542.76,2340.2
542.928,2363.4
543.096,2404.0
543.264,2435.6
543.432,2460.0
543.6,2479.6
543.768,2484.0
543.936,2459.0
544.104,2449.2
544.272,2410.8
544.44,2369.7
544.608,2340.9
544.776,2338.4
544.944,2325.6
545.112,2327.1
545.28,2335.7
545.448,2302.6
545.616,2322.2
545.784,2318.5
545.951,2311.0
546.119,2310.4
546.287,2322.8
546.455,2303.9
546.623,2325.1
546.791,2319.8
546.959,2329.4
547.127,2332.2
547.294,2332.9
547.462,2343.4
547.63,2356.4
547.798,2334.0
547.966,2340.4
548.134,2354.8
548.301,2347.4
548.469,2350.3
548.637,2347.8
548.805,2362.7
548.972,2356.7
549.14,2386.1
549.308,2366.3
549.476,2363.6
549.644,2352.4
549.811,2357.2
549.979,2369.7
550.147,2380.9
550.315,2363.9
550.482,2374.0
550.65,2384.2
550.818,2384.1
550.985,2411.5
551.153,2412.8
551.321,2389.7
551.488,2420.5
551.656,2415.0
551.824,2423.1
551.991,2416.3
552.159,2421.4
552.327,2445.2
552.494,2435.3
552.662,2429.1
552.83,2437.2
552.997,2426.7
553.165,2415.2
553.333,2426.1
553.5,2393.8
553.668,2425.1
553.835,2453.8
554.003,2482.5
554.171,2461.3
554.338,2449.7
554.506,2435.1
554.673,2449.4
554.841,2453.9
555.008,2433.7
555.176,2411.7
555.343,2409.5
555.511,2384.7
555.679,2390.0
555.846,2406.8
556.014,2391.8
556.181,2397.9
556.349,2389.7
556.516,2406.6
556.684,2401.8
556.851,2395.0
557.018,2431.3
557.186,2445.2
557.353,2500.4
557.521,2550.1
557.688,2719.3
557.856,2988.3
558.023,3172.1
558.191,3080.0
558.358,2763.1
558.525,2623.4
558.693,2522.6
558.86,2508.2
559.028,2506.1
559.195,2500.0
559.362,2464.5
559.53,2483.2
559.697,2481.2
559.864,2467.7
560.032,2433.8
560.199,2447.9
560.366,2444.6
560.534,2466.3
560.701,2459.2
560.868,2462.8
561.036,2442.1
561.203,2441.5
561.37,2454.4
561.538,2443.2
561.705,2426.1
561.872,2439.6
562.039,2442.4
562.207,2443.7
562.374,2452.0
562.541,2468.5
562.708,2508.8
562.876,2535.0
563.043,2585.4
563.21,2604.7
563.377,2671.6
563.545,2670.3
563.712,2621.2
563.879,2541.7
564.046,2526.0
564.213,2499.6
564.38,2515.2
564.548,2550.8
564.715,2580.5
564.882,2619.3
565.049,2632.1
565.216,2639.6
565.383,2606.6
565.551,2639.7
565.718,2639.9
565.885,2718.4
566.052,2800.2
566.219,2744.0
566.386,2709.3
566.553,2612.0
566.72,2539.6
566.887,2515.6
567.054,2499.7
567.221,2501.2
567.388,2514.0
567.555,2506.2
567.722,2547.0
567.889,2546.0
568.057,2549.5
568.224,2530.6
568.391,2552.8
568.558,2514.2
568.725,2522.0
568.892,2551.4
569.058,2546.8
569.225,2547.0
569.392,2527.8
569.559,2517.2
569.726,2523.8
569.893,2521.4
570.06,2523.0
570.227,2535.3
570.394,2536.6
570.561,2551.8
570.728,2518.1
570.895,2533.6
571.062,2563.2
571.229,2577.7
571.395,2632.6
571.562,2704.3
571.729,2703.9
571.896,2665.9
572.063,2656.5
572.23,2640.8
572.397,2610.6
572.563,2632.8
572.73,2625.6
572.897,2646.3
573.064,2641.5
573.231,2624.1
573.397,2656.5
573.564,2630.9
573.731,2619.9
573.898,2627.9
574.064,2632.3
574.231,2644.8
574.398,2674.0
574.565,2676.1
574.731,2652.7
574.898,2591.2
575.065,2573.5
575.232,2536.0
575.398,2555.6
575.565,2556.7
575.732,2570.2
575.898,2587.4
576.065,2606.1
576.232,2678.1
576.398,2818.7
576.565,2935.8
576.732,2996.5
576.898,2968.3
577.065,2867.3
577.232,2750.9
577.398,2666.3
577.565,2594.3
577.731,2564.2
577.898,2585.4
578.065,2550.2
578.231,2541.7
578.398,2557.5
578.564,2545.0
578.731,2552.7
578.897,2558.9
579.064,2554.0
579.23,2565.5
579.397,2553.1
579.563,2542.1
579.73,2557.2
579.896,2584.8
580.063,2542.3
580.229,2555.9
580.396,2572.9
580.562,2562.2
580.729,2559.1
580.895,2557.7
581.062,2586.4
581.228,2570.2
581.395,2569.5
581.561,2558.0
581.728,2563.7
581.894,2575.6
582.06,2578.4
582.227,2557.8
582.393,2539.1
582.56,2576.8
582.726,2559.1
582.892,2571.0
583.059,2563.5
583.225,2560.1
583.391,2566.2
583.558,2568.5
583.724,2570.0
583.89,2566.4
584.057,2558.1
584.223,2566.9
584.389,2555.1
584.556,2584.5
584.722,2552.1
584.888,2585.8
585.054,2574.4
585.221,2562.0
585.387,2562.2
585.553,2557.8
585.719,2554.3
585.886,2555.4
586.052,2580.0
586.218,2609.1
586.384,2672.2
586.55,2700.8
586.717,2764.1
586.883,2792.9
587.049,2824.6
587.215,2886.7
587.381,2942.7
587.548,2944.8
587.714,2854.6
587.88,2789.2
588.046,2680.0
588.212,2635.6
588.378,2577.2
588.544,2583.6
588.71,2584.4
588.876,2578.0
589.043,2554.5
589.209,2540.5
589.375,2532.1
589.541,2536.4
589.707,2558.7
589.873,2543.2
590.039,2533.0
590.205,2548.2
590.371,2558.2
590.537,2557.4
590.703,2566.9
590.869,2541.4
591.035,2549.1
591.201,2533.4
591.367,2532.3
591.533,2546.8
591.699,2570.7
591.865,2531.9
592.031,2562.4
592.197,2550.7
592.363,2556.6
592.529,2564.8
592.694,2541.8
592.86,2568.8
593.026,2532.4
593.192,2549.3
593.358,2551.0
593.524,2550.7
593.69,2530.9
593.856,2537.7
594.021,2538.4
594.187,2525.9
594.353,2549.8
594.519,2548.1
594.685,2542.2
594.851,2519.8
595.016,2547.4
595.182,2532.6
595.348,2553.2
595.514,2567.9
595.68,2551.3
595.845,2554.1
596.011,2557.4
596.177,2536.5
596.342,2539.6
596.508,2533.6
596.674,2551.7
596.84,2536.8
597.005,2566.3
597.171,2533.5
597.337,2539.5
597.502,2532.4
597.668,2561.6
597.834,2551.5
597.999,2551.6
598.165,2529.6
598.331,2520.0
598.496,2531.1
598.662,2550.6
598.828,2523.5
598.993,2538.4
599.159,2539.8
599.324,2548.7
599.49,2535.8
599.656,2536.8
599.821,2531.1
599.987,2552.9
600.152,2541.2
600.318,2552.4
600.483,2518.3
600.649,2539.5
600.814,2539.8
600.98,2536.6
601.145,2536.1
601.311,2531.8
601.476,2563.0
601.642,2528.4
601.807,2558.1
601.973,2551.9
602.138,2508.5
602.304,2546.6
602.469,2522.3
602.635,2535.0
602.8,2555.1
602.965,2537.7
603.131,2542.8
603.296,2532.2
603.462,2525.3
603.627,2521.7
603.792,2547.3
603.958,2553.8
604.123,2532.2
604.288,2544.0
604.454,2519.1
604.619,2525.4
604.784,2518.6
604.95,2552.0
605.115,2523.4
605.28,2533.1
605.446,2521.6
605.611,2516.6
605.776,2523.2
605.941,2525.2
606.107,2519.3
606.272,2531.1
606.437,2519.2
606.602,2537.1
606.767,2536.4
606.933,2521.7
607.098,2522.9
607.263,2541.6
607.428,2492.0
607.593,2518.0
607.759,2522.6
607.924,2539.1
608.089,2523.0
608.254,2521.8
608.419,2518.7
608.584,2524.1
608.749,2497.9
608.915,2532.1
609.08,2516.1
609.245,2524.5
609.41,2524.4
609.575,2533.3
609.74,2523.4
609.905,2513.0
610.07,2523.0
610.235,2519.7
610.4,2515.7
610.565,2525.1
610.73,2505.4
610.895,2530.8
611.06,2514.4
611.225,2549.9
611.39,2504.6
611.555,2510.3
611.72,2506.0
611.885,2522.7
612.05,2528.2
612.215,2505.5
612.38,2517.2
612.545,2499.8
612.71,2515.4
612.875,2508.6
613.04,2506.0
613.204,2493.8
613.369,2534.6
613.534,2522.4
613.699,2478.7
613.864,2502.9
614.029,2526.6
614.194,2516.2
614.358,2518.4
614.523,2516.1
614.688,2498.8
614.853,2508.5
615.018,2501.5
615.182,2529.3
615.347,2504.6
615.512,2519.2
615.677,2511.2
615.841,2501.1
616.006,2535.0
616.171,2513.2
616.336,2508.8
616.5,2493.3
616.665,2523.9
616.83,2479.2
616.994,2497.8
617.159,2515.4
617.324,2511.9
617.489,2517.6
617.653,2501.1
617.818,2520.1
617.982,2513.4
618.147,2500.0
618.312,2491.1
618.476,2476.4
618.641,2507.9
618.805,2486.5
618.97,2515.3
619.135,2471.2
619.299,2472.6
619.464,2490.1
619.628,2504.8
619.793,2526.7
619.957,2488.8
620.122,2506.5
620.286,2492.1
620.451,2498.4
620.615,2475.0
620.78,2496.3
620.944,2473.8
621.109,2489.7
621.273,2481.7
621.438,2514.8
621.602,2495.3
621.767,2487.7
621.931,2520.6
622.095,2501.0
622.26,2526.8
622.424,2516.9
622.589,2559.8
622.753,2567.9
622.917,2573.2
623.082,2586.1
623.246,2579.4
623.41,2556.6
623.575,2528.1
623.739,2549.5
623.903,2533.7
624.068,2530.2
624.232,2527.5
624.396,2512.9
624.561,2496.1
624.725,2504.7
624.889,2492.9
625.053,2499.4
625.218,2481.4
625.382,2475.1
625.546,2492.0
625.71,2477.9
625.875,2498.7
626.039,2484.7
626.203,2480.7
626.367,2460.8
626.531,2484.8
626.695,2495.5
626.86,2477.6
627.024,2472.6
627.188,2457.1
627.352,2525.8
627.516,2490.0
627.68,2494.7
627.844,2565.4
628.008,2654.0
628.172,2748.2
628.337,2883.2
628.501,3004.0
628.665,2960.3
628.829,2875.5
628.993,2847.1
629.157,2826.1
629.321,2830.2
629.485,2857.2
629.649,2841.0
629.813,2867.9
629.977,2866.6
630.141,2920.7
630.305,3039.0
630.469,3264.2
630.633,3700.5
630.797,4393.1
630.96,5179.6
631.124,5270.9
631.288,4816.0
631.452,4281.8
631.616,3811.9
631.78,3482.2
631.944,3334.5
632.108,3208.6
632.272,3127.8
632.435,3098.9
632.599,3128.1
632.763,3309.5
632.927,3555.0
633.091,3707.6
633.254,3738.0
633.418,3669.9
633.582,3592.2
633.746,3344.0
633.91,3182.5
634.073,3028.1
634.237,2854.3
634.401,2748.9
634.564,2649.6
634.728,2562.4
634.892,2564.0
635.056,2525.0
635.219,2503.9
635.383,2459.4
635.547,2451.8
635.71,2456.6
635.874,2460.7
636.038,2437.1
636.201,2443.5
636.365,2441.4
636.528,2412.7
636.692,2425.3
636.856,2424.0
637.019,2416.9
637.183,2408.3
637.346,2420.5
637.51,2402.3
637.673,2403.8
637.837,2382.0
638.0,2397.2
638.164,2396.8
638.327,2410.2
638.491,2383.2
638.654,2392.9
638.818,2392.2
638.981,2394.9
639.145,2405.4
639.308,2374.2
639.472,2408.0
639.635,2370.9
639.799,2396.2
639.962,2371.5
640.125,2374.3
640.289,2390.8
640.452,2374.5
640.616,2358.5
640.779,2361.9
640.942,2340.8
641.106,2401.1
641.269,2390.6
641.432,2383.4
641.596,2370.3
641.759,2359.5
641.922,2368.5
642.085,2382.2
642.249,2382.0
642.412,2373.7
642.575,2356.4
642.738,2375.0
642.902,2363.7
643.065,2357.7
643.228,2323.0
643.391,2355.2
643.555,2356.1
643.718,2346.5
643.881,2349.5
644.044,2352.6
644.207,2336.5
644.37,2355.3
644.534,2330.9
644.697,2333.6
644.86,2317.2
645.023,2367.3
645.186,2336.8
645.349,2336.2
645.512,2318.4
645.675,2324.9
645.838,2323.4
646.001,2328.1
646.164,2312.6
646.327,2305.4
646.49,2309.7
646.653,2327.8
646.816,2307.0
646.979,2321.4
647.142,2306.1
647.305,2292.4
647.468,2288.5
647.631,2304.2
647.794,2276.6
647.957,2302.4
648.12,2286.6
648.283,2304.5
648.446,2297.2
648.609,2291.1
648.772,2289.7
648.935,2297.9
649.098,2277.2
649.26,2276.1
649.423,2283.2
649.586,2284.0
649.749,2272.8
649.912,2282.1
650.075,2270.6
650.237,2272.7
650.4,2279.9
650.563,2262.6
650.726,2273.7
650.888,2274.7
651.051,2286.2
651.214,2258.3
651.377,2273.8
651.539,2256.2
651.702,2254.3
651.865,2260.0
652.027,2264.9
652.19,2274.1
652.353,2272.0
652.515,2243.0
652.678,2253.4
652.841,2259.1
653.003,2238.9
653.166,2242.6
653.329,2230.9
653.491,2234.4
653.654,2256.0
653.816,2226.4
653.979,2240.5
654.142,2251.0
654.304,2219.5
654.467,2212.3
654.629,2230.4
654.792,2225.9
654.954,2225.6
655.117,2236.1
655.279,2232.9
655.442,2201.7
655.604,2212.3
655.767,2222.0
655.929,2230.1
656.091,2206.1
656.254,2217.4
656.416,2211.0
656.579,2210.3
656.741,2211.2
656.904,2212.8
657.066,2217.1
657.228,2208.7
657.391,2205.2
657.553,2207.5
657.715,2200.4
657.878,2200.4
658.04,2210.4
658.202,2212.5
658.365,2198.8
658.527,2183.9
658.689,2178.1
658.851,2181.0
659.014,2197.8
659.176,2186.4
659.338,2186.8
659.5,2193.7
659.663,2168.7
659.825,2188.6
659.987,2185.8
660.149,2187.8
660.311,2183.3
660.474,2176.9
660.636,2181.3
660.798,2178.1
660.96,2184.6
661.041,2164.9