File: spectra/VLFR_02-HDPE_nobio_Raman_e34e5956.csv
cm-1,Intensity
-123.878,1852.0
-117.855,1852.15
-111.836,1852.4
-105.821,1852.7
-99.8104,1852.05
-93.8036,1851.8
-87.8007,1853.35
-81.8019,1852.15
-75.807,1852.3
-69.8161,1853.35
-63.8293,1852.1
-57.8464,1852.6
-51.8675,1853.15
-45.8926,1853.65
-39.9216,1854.45
-33.9547,1853.95
-27.9917,1855.3
-22.0326,1859.05
-16.0776,1880.15
-10.1265,2246.2
-4.17932,3660.75
1.76388,3434.3
7.70313,1976.8
13.6384,1856.95
19.5698,1855.6
25.4972,1853.15
31.4207,1852.55
37.3403,1853.75
43.256,1853.35
49.1677,1861.95
55.0755,1909.65
60.9794,1981.55
66.8794,2029.25
72.7754,2035.5
78.6676,2035.9
84.5559,2028.3
90.4402,2029.8
96.3207,2032.0
102.197,2027.65
108.07,2020.0
113.939,2005.45
119.804,1995.7
125.665,1987.55
131.522,1979.45
137.375,1971.3
143.225,1964.8
149.07,1965.7
154.912,1964.9
160.75,1963.6
166.584,1960.9
172.414,1957.2
178.241,1966.75
184.063,1965.55
189.882,1963.05
195.697,1963.8
201.508,1965.05
207.315,1964.95
213.119,1961.3
218.918,1959.35
224.714,1957.05
230.506,1959.5
236.294,1960.6
242.078,1964.8
247.859,1959.6
253.636,1956.35
259.409,1946.25
265.178,1950.95
270.943,1954.55
276.705,1951.2
282.463,1951.15
288.217,1952.35
293.967,1950.25
299.713,1952.9
305.456,1944.9
311.195,1946.8
316.93,1955.65
322.662,1950.85
328.389,1953.8
334.113,1954.2
339.834,1956.5
345.55,1958.8
351.263,1958.6
356.972,1954.5
362.677,1959.4
368.379,1959.55
374.077,1960.65
379.771,1959.05
385.461,1955.8
391.148,1958.45
396.831,1954.9
402.51,1955.0
408.186,1958.85
413.858,1959.75
419.526,1956.6
425.19,1956.2
430.851,1950.5
436.508,1959.55
442.162,1953.0
447.811,1956.4
453.458,1963.05
459.1,1959.05
464.739,1957.35
470.374,1966.75
476.005,1964.1
481.633,1956.15
487.257,1953.95
492.878,1954.85
498.494,1958.15
504.107,1967.95
509.717,1956.8
515.323,1959.25
520.925,1960.8
526.524,1961.8
532.119,1961.85
537.71,1964.75
543.298,1958.65
548.882,1964.85
554.462,1962.3
560.039,1958.5
565.613,1964.7
571.182,1967.2
576.748,1961.7
582.311,1965.95
587.87,1964.0
593.425,1966.7
598.977,1965.15
604.525,1962.6
610.069,1961.4
615.61,1961.2
621.148,1965.0
626.682,1968.15
632.212,1968.35
637.739,1968.7
643.262,1972.3
648.781,1967.15
654.297,1975.0
659.81,1973.65
665.319,1973.25
670.824,1974.8
676.326,1973.3
681.824,1973.55
687.319,1974.75
692.81,1973.45
698.298,1966.3
703.782,1969.85
709.262,1971.65
714.739,1982.5
720.213,1979.8
725.683,1974.55
731.15,1976.1
736.613,1979.45
742.072,1987.25
747.528,1986.6
752.981,1978.3
758.43,1981.7
763.875,1984.75
769.317,1985.15
774.756,1988.6
780.191,1991.35
785.623,1990.85
791.051,1993.5
796.475,1989.7
801.897,1985.8
807.314,1997.8
812.729,1994.4
818.139,1994.8
823.547,1994.25
828.951,1997.45
834.351,1998.65
839.748,2001.75
845.142,2005.7
850.532,1996.3
855.918,2007.1
861.302,2013.9
866.681,2013.9
872.058,2014.5
877.431,2013.75
882.8,2016.6
888.166,2011.4
893.529,2019.8
898.888,2008.5
904.244,2009.25
909.596,2011.25
914.945,2011.05
920.291,2016.5
925.633,2005.85
930.972,2012.95
936.308,2010.95
941.64,2013.65
946.968,2008.35
952.294,2015.25
957.615,2015.35
962.934,2012.85
968.249,2020.9
973.561,2013.9
978.869,2014.85
984.174,2016.05
989.476,2013.15
994.774,2022.1
1000.07,2012.3
1005.36,2020.2
1010.65,2026.55
1015.93,2030.15
1021.22,2027.45
1026.49,2029.9
1031.77,2037.0
1037.04,2048.95
1042.31,2047.8
1047.57,2070.05
1052.83,2162.6
1058.09,2349.9
1063.35,2436.55
1068.6,2246.3
1073.85,2123.8
1079.09,2113.0
1084.33,2105.5
1089.57,2101.25
1094.81,2087.45
1100.04,2080.1
1105.27,2075.05
1110.49,2095.75
1115.71,2133.35
1120.93,2281.5
1126.15,2549.35
1131.36,2609.05
1136.57,2290.95
1141.77,2103.4
1146.98,2072.1
1152.18,2061.85
1157.37,2063.2
1162.56,2079.45
1167.75,2098.65
1172.94,2081.55
1178.12,2055.25
1183.3,2049.9
1188.48,2050.4
1193.65,2047.2
1198.82,2039.85
1203.99,2051.35
1209.15,2059.2
1214.31,2053.15
1219.46,2051.8
1224.62,2058.4
1229.77,2051.9
1234.92,2062.95
1240.06,2061.95
1245.2,2060.85
1250.34,2067.05
1255.47,2075.75
1260.6,2084.9
1265.73,2093.0
1270.85,2097.45
1275.97,2103.1
1281.09,2124.55
1286.21,2244.7
1291.32,2559.45
1296.43,2761.7
1301.53,2434.15
1306.63,2212.5
1311.73,2158.7
1316.83,2131.65
1321.92,2115.4
1327.01,2105.25
1332.1,2102.0
1337.18,2095.85
1342.26,2098.45
1347.34,2098.0
1352.41,2100.15
1357.48,2110.55
1362.55,2114.35
1367.61,2144.65
1372.67,2149.35
1377.73,2112.4
1382.78,2104.8
1387.84,2104.6
1392.88,2119.2
1397.93,2118.2
1402.97,2142.0
1408.01,2222.25
1413.05,2390.15
1418.08,2508.5
1423.11,2413.35
1428.14,2342.4
1433.16,2445.4
1438.18,2563.5
1443.2,2556.0
1448.21,2448.95
1453.22,2415.8
1458.23,2419.2
1463.23,2400.9
1468.23,2378.2
1473.23,2304.6
1478.23,2252.65
1483.22,2231.85
1488.21,2222.1
1493.2,2213.0
1498.18,2211.9
1503.16,2210.1
1508.14,2212.85
1513.11,2242.35
1518.08,2229.65
1523.05,2235.3
1528.01,2238.55
1532.97,2260.0
1537.93,2259.6
1542.89,2270.15
1547.84,2276.5
1552.79,2291.0
1557.73,2283.4
1562.68,2292.45
1567.62,2317.05
1572.56,2317.9
1577.49,2326.15
1582.42,2348.3
1587.35,2353.2
1592.27,2356.2
1597.19,2358.6
1602.11,2376.65
1607.03,2381.4
1611.94,2385.45
1616.85,2396.45
1621.76,2389.95
1626.66,2413.05
1631.56,2438.75
1636.46,2445.5
1641.36,2421.85
1646.25,2444.6
1651.14,2449.15
1656.02,2459.6
1660.9,2483.9
1665.78,2477.85
1670.66,2484.2
1675.54,2494.25
1680.41,2497.8
1685.27,2509.5
1690.14,2518.9
1695.0,2525.4
1699.86,2532.3
1704.71,2544.5
1709.57,2518.7
1714.42,2570.4
1719.26,2558.05
1724.11,2567.15
1728.95,2601.1
1733.79,2573.05
1738.62,2585.3
1743.46,2588.6
1748.28,2619.0
1753.11,2627.35
1757.93,2641.35
1762.75,2656.4
1767.57,2657.0
1772.39,2681.1
1777.2,2681.45
1782.01,2687.3
1786.81,2742.4
1791.62,2747.4
1796.41,2720.55
1801.21,2712.2
1806.01,2746.05
1810.8,2767.7
1815.59,2765.45
1820.37,2744.4
1825.15,2791.75
1829.93,2800.25
1834.71,2798.05
1839.48,2811.95
1844.25,2821.5
1849.02,2860.65
1853.79,2870.75
1858.55,2857.9
1863.31,2885.9
1868.06,2889.85
1872.82,2919.0
1877.57,2909.35
1882.31,2913.0
1887.06,2913.8
1891.8,2941.45
1896.54,2947.5
1901.28,2989.75
1906.01,2942.9
1910.74,2960.05
1915.47,3002.4
1920.19,2963.5
1924.91,2991.65
1929.63,3002.3
1934.35,2960.95
1939.06,2983.8
1943.77,3019.8
1948.48,3002.95
1953.19,3003.05
1957.89,3007.85
1962.59,2990.9
1967.28,2991.8
1971.98,2981.5
1976.67,2985.3
1981.35,2964.75
1986.04,3031.65
1990.72,3017.55
1995.4,2986.0
2000.08,3019.6
2004.75,3037.7
2009.42,3026.15
2014.09,2986.7
2018.75,3014.1
2023.42,2996.4
2028.08,3016.8
2032.73,3014.7
2037.39,3040.75
2042.04,3004.35
2046.69,3010.05
2051.33,3019.5
2055.97,3010.9
2060.61,3010.85
2065.25,2999.35
2069.88,2985.1
2074.52,3010.4
2079.15,2979.9
2083.77,3020.75
2088.39,2983.55
2093.01,2971.45
2097.63,3003.9
2102.25,3018.75
2106.86,2993.45
2111.47,3017.6
2116.08,2990.85
2120.68,3018.9
2125.28,3005.5
2129.88,3006.95
2134.47,2975.75
2139.07,3001.7
2143.66,2977.45
2148.24,2980.8
2152.83,2977.45
2157.41,2974.6
2161.99,2942.75
2166.57,2957.05
2171.14,2975.3
2175.71,2983.5
2180.28,2969.1
2184.84,2941.85
2189.41,2952.7
2193.97,2962.05
2198.52,2936.6
2203.08,2938.7
2207.63,2950.45
2212.18,2897.75
2216.73,2911.2
2221.27,2918.45
2225.81,2906.3
2230.35,2873.4
2234.89,2896.45
2239.42,2872.15
2243.95,2885.1
2248.48,2867.45
2253.0,2859.05
2257.52,2856.05
2262.04,2812.05
2266.56,2806.6
2271.07,2804.95
2275.58,2800.65
2280.09,2794.3
2284.6,2804.35
2289.1,2788.85
2293.6,2791.15
2298.1,2759.35
2302.6,2765.9
2307.09,2766.9
2311.58,2732.8
2316.07,2735.95
2320.55,2733.55
2325.03,2712.5
2329.51,2739.1
2333.99,2703.85
2338.46,2698.5
2342.93,2683.15
2347.4,2716.75
2351.87,2694.45
2356.33,2705.3
2360.79,2652.6
2365.25,2671.8
2369.71,2642.65
2374.16,2669.0
2378.61,2674.15
2383.06,2646.5
2387.5,2656.65
2391.94,2634.5
2396.38,2612.9
2400.82,2618.05
2405.26,2662.35
2409.69,2637.3
2414.12,2615.85
2418.54,2620.45
2422.97,2627.65
2427.39,2624.45
2431.81,2616.35
2436.22,2607.05
2440.64,2600.5
2445.05,2613.65
2449.46,2580.8
2453.86,2589.15
2458.27,2554.55
2462.67,2581.95
2467.06,2562.55
2471.46,2554.6
2475.85,2561.95
2480.24,2580.9
2484.63,2546.15
2489.02,2546.45
2493.4,2537.7
2497.78,2546.25
2502.16,2552.05
2506.53,2525.55
2510.9,2516.55
2515.27,2554.85
2519.64,2519.5
2524.0,2518.5
2528.37,2518.55
2532.73,2503.35
2537.08,2518.25
2541.44,2509.1
2545.79,2513.45
2550.14,2530.6
2554.48,2505.9
2558.83,2495.9
2563.17,2485.4
2567.51,2497.25
2571.85,2497.45
2576.18,2503.45
2580.51,2491.3
2584.84,2517.95
2589.17,2501.75
2593.49,2498.7
2597.81,2512.4
2602.13,2493.9
2606.45,2503.45
2610.76,2504.5
2615.07,2498.3
2619.38,2498.0
2623.69,2477.3
2627.99,2481.5
2632.29,2466.05
2636.59,2467.6
2640.89,2484.35
2645.18,2498.9
2649.47,2500.35
2653.76,2491.65
2658.05,2503.45
2662.33,2488.65
2666.61,2482.4
2670.89,2484.4
2675.17,2481.75
2679.44,2489.7
2683.71,2483.75
2687.98,2483.75
2692.25,2509.8
2696.51,2515.25
2700.77,2566.2
2705.03,2564.45
2709.29,2586.6
2713.54,2634.55
2717.79,2675.75
2722.04,2677.0
2726.29,2646.25
2730.53,2601.5
2734.77,2549.45
2739.01,2513.1
2743.25,2479.95
2747.48,2482.4
2751.71,2468.45
2755.94,2469.6
2760.17,2479.6
2764.39,2454.75
2768.61,2465.85
2772.83,2463.25
2777.05,2449.55
2781.27,2462.4
2785.48,2444.95
2789.69,2471.85
2793.89,2464.7
2798.1,2458.15
2802.3,2471.1
2806.5,2476.25
2810.7,2529.05
2814.89,2529.8
2819.09,2568.25
2823.28,2649.8
2827.46,2791.15
2831.65,3071.9
2835.83,3581.4
2840.01,4508.35
2844.19,5522.7
2848.37,5837.7
2852.54,5454.6
2856.71,5110.5
2860.88,4634.1
2865.05,4528.15
2869.21,4409.7
2873.37,4734.95
2877.53,5530.45
2881.69,6019.5
2885.84,5519.15
2889.99,4604.1
2894.14,4338.8
2898.29,4295.0
2902.43,4089.35
2906.58,3925.05
2910.72,3699.25
2914.85,3658.3
2918.99,3546.85
2923.12,3539.2
2927.25,3455.7
2931.38,3425.75
2935.5,3301.55
2939.63,3072.85
2943.75,2960.2
2947.87,2777.8
2951.98,2695.7
2956.1,2629.3
2960.21,2591.1
2964.32,2561.4
2968.42,2557.55
2972.53,2536.15
2976.63,2554.7
2980.73,2558.3
2984.83,2528.7
2988.92,2526.45
2993.01,2527.0
2997.1,2541.6
3001.19,2494.15
3005.28,2512.9
3009.36,2515.5
3013.44,2534.4
3017.52,2506.2
3021.6,2511.75
3025.67,2521.75
3029.74,2522.45
3033.81,2490.9
3037.88,2515.4
3041.94,2493.7
3046.01,2506.0
3050.07,2534.35
3054.12,2502.7
3058.18,2510.05
3062.23,2499.3
3066.28,2523.8
3070.33,2512.9
3074.38,2493.95
3078.42,2527.7
3082.46,2534.85
3086.5,2510.95
3090.54,2506.05
3094.57,2514.75
3098.6,2522.05
3102.63,2513.05
3106.66,2497.2
3110.69,2517.05
3114.71,2508.6
3118.73,2514.6
3122.75,2508.65
3126.77,2512.9
3130.78,2515.25
3134.79,2524.3
3138.8,2513.7
3142.81,2521.8
3146.81,2538.45
3150.82,2511.35
3154.82,2511.1
3158.81,2517.25
3162.81,2515.75
3166.8,2527.6
3170.79,2528.7
3174.78,2555.15
3178.77,2505.6
3182.75,2528.05
3186.74,2482.35
3190.72,2544.65
3194.69,2532.75
3198.67,2535.25
3202.64,2515.6
3206.61,2559.05
3210.58,2537.5
3214.55,2533.0
3218.51,2550.2
3222.47,2541.8
3226.43,2560.6
3230.39,2549.5
3234.35,2548.2
3238.3,2531.2
3242.25,2553.85
3246.2,2537.0
3250.15,2498.3
3254.09,2562.1
3258.03,2554.15
3261.97,2562.3
3265.91,2540.25
3269.84,2579.05
3273.78,2548.95
3277.71,2552.05
3281.64,2552.55
3285.56,2549.55
3289.49,2565.5
3293.41,2569.6
3297.33,2539.85
3301.25,2541.2
3305.16,2548.75
3309.07,2544.0
3312.99,2533.8
3316.89,2555.1
3320.8,2546.3
3324.7,2531.0
3328.61,2523.6
3332.51,2522.1
3336.4,2517.25
3340.3,2529.95
3344.19,2502.55
3348.08,2559.75
3351.97,2540.2
3355.86,2514.9
3359.74,2517.1
3363.63,2509.6
3367.51,2500.5
3371.39,2518.0
3375.26,2487.45
3379.13,2487.85
3383.01,2515.8
3386.88,2476.55
3390.74,2503.75
3394.61,2471.0
3398.47,2444.05
3402.33,2462.2
3406.19,2476.4
3410.05,2480.95
3413.9,2455.2
3417.75,2492.15
3421.6,2494.45
3425.45,2439.5
3429.3,2431.9
3433.14,2435.4
3436.98,2455.6
3440.82,2456.4
3444.66,2454.3
3448.49,2436.55
3452.32,2422.5
3456.15,2395.3
3459.98,2424.4
3463.81,2432.45
3467.63,2418.65
3471.46,2418.7
3475.28,2416.0
3479.09,2406.55
3482.91,2412.7
3486.72,2407.25
3490.53,2378.15
3494.34,2386.0
3498.15,2382.5
3501.96,2381.9
3505.76,2377.95
3509.56,2375.55
3513.36,2384.35
3517.15,2384.15
3520.95,2379.45
3524.74,2347.35
3528.53,2353.25
3532.32,2378.25
3536.11,2370.05
3539.89,2362.35
3543.67,2355.2
3547.45,2338.75
3551.23,2336.3
3555.0,2324.05
3558.78,2306.9
3562.55,2338.0
3566.32,2308.8
3570.09,2321.8
3573.85,2329.0
3577.61,2333.85
3581.37,2320.7
3585.13,2307.45
3588.89,2301.15
3592.64,2309.3
3596.4,2303.8
3600.15,2297.0
3603.9,2291.6
3607.64,2283.65
3611.39,2284.65
3615.13,2276.15
3618.87,2276.2
3622.61,2267.85
3626.34,2245.1
3630.08,2270.9
3633.81,2259.95
3637.54,2255.5
3641.27,2250.0
3644.99,2252.45
3648.72,2243.45
3652.44,2265.0
3656.16,2310.1
3659.87,2230.1
3663.59,2232.3
3665.45,2228.25