File: spectra/VLFR_08-PLA_bio_Raman_0f9108a0.csv
nm,Intensity
528.637,1834.8
528.806,1838.0
528.974,1837.4
529.143,1836.8
529.311,1837.0
529.48,1835.4
529.648,1838.6
529.816,1835.0
529.985,1836.5
530.153,1836.4
530.322,1837.5
530.49,1837.5
530.659,1838.5
530.827,1837.0
530.995,1836.9
531.164,1841.7
531.332,1843.6
531.5,1844.0
531.669,1884.8
531.837,2418.0
532.006,4014.9
532.174,3613.0
532.342,1999.9
532.511,1840.0
532.679,1837.7
532.847,1840.1
533.016,1838.9
533.184,1837.9
533.352,1843.9
533.521,1876.4
533.689,2063.2
533.857,2406.8
534.025,2591.2
534.194,2572.7
534.362,2515.5
534.53,2500.6
534.699,2515.4
534.867,2472.2
535.035,2436.9
535.203,2436.9
535.372,2426.0
535.54,2399.8
535.708,2379.3
535.876,2340.6
536.045,2334.6
536.213,2357.9
536.381,2346.2
536.549,2393.0
536.717,2375.0
536.886,2358.7
537.054,2331.3
537.222,2335.1
537.39,2364.6
537.558,2358.3
537.726,2367.0
537.895,2347.1
538.063,2331.2
538.231,2339.8
538.399,2312.0
538.567,2304.5
538.735,2303.3
538.903,2308.2
539.072,2313.4
539.24,2312.8
539.408,2319.2
539.576,2290.4
539.744,2284.0
539.912,2288.7
540.08,2300.5
540.248,2352.7
540.416,2357.5
540.584,2345.2
540.752,2374.4
540.92,2360.5
541.088,2381.8
541.256,2363.4
541.425,2375.8
541.593,2358.4
541.761,2344.0
541.929,2333.1
542.097,2345.6
542.265,2361.7
542.433,2342.8
542.601,2356.4
542.769,2338.8
542.937,2371.4
543.104,2436.7
543.272,2431.3
543.44,2459.4
543.608,2463.4
543.776,2462.5
543.944,2464.4
544.112,2463.8
544.28,2414.1
544.448,2401.4
544.616,2377.8
544.784,2379.4
544.952,2361.1
545.12,2374.3
545.288,2342.3
545.455,2364.8
545.623,2367.3
545.791,2354.1
545.959,2374.0
546.127,2354.3
546.295,2355.3
546.463,2383.0
546.63,2367.4
546.798,2379.5
546.966,2390.0
547.134,2383.9
547.302,2383.3
547.47,2382.9
547.637,2389.2
547.805,2392.7
547.973,2401.2
548.141,2394.5
548.308,2404.5
548.476,2413.8
548.644,2422.9
548.812,2394.4
548.98,2431.6
549.147,2409.6
549.315,2424.7
549.483,2398.9
549.65,2404.9
549.818,2425.1
549.986,2416.0
550.154,2430.5
550.321,2416.8
550.489,2426.7
550.657,2429.1
550.824,2439.1
550.992,2448.9
551.16,2447.2
551.327,2452.0
551.495,2476.6
551.663,2477.6
551.83,2509.4
551.998,2474.3
552.166,2484.1
552.333,2485.4
552.501,2469.5
552.668,2451.5
552.836,2509.5
553.004,2491.5
553.171,2491.8
553.339,2471.3
553.506,2491.6
553.674,2479.2
553.842,2544.2
554.009,2547.1
554.177,2524.6
554.344,2546.8
554.512,2508.4
554.679,2480.4
554.847,2510.0
555.014,2487.8
555.182,2485.7
555.349,2496.2
555.517,2464.2
555.684,2488.2
555.852,2482.4
556.019,2461.8
556.187,2464.2
556.354,2491.6
556.522,2491.8
556.689,2499.1
556.857,2497.3
557.024,2533.0
557.192,2522.9
557.359,2583.9
557.526,2654.9
557.694,2816.6
557.861,3034.4
558.029,3137.6
558.196,3113.8
558.363,2845.2
558.531,2661.1
558.698,2623.5
558.866,2609.3
559.033,2598.0
559.2,2584.2
559.368,2586.3
559.535,2572.3
559.702,2570.6
559.87,2547.2
560.037,2571.7
560.204,2541.2
560.372,2560.2
560.539,2530.9
560.706,2545.3
560.873,2560.8
561.041,2563.3
561.208,2550.9
561.375,2533.6
561.543,2557.1
561.71,2580.2
561.877,2559.4
562.044,2555.5
562.211,2570.3
562.379,2568.9
562.546,2612.2
562.713,2614.2
562.88,2641.9
563.048,2669.1
563.215,2718.1
563.382,2773.0
563.549,2765.6
563.716,2704.7
563.883,2678.1
564.051,2643.2
564.218,2594.3
564.385,2611.8
564.552,2648.8
564.719,2703.2
564.886,2743.3
565.053,2725.7
565.221,2745.1
565.388,2728.6
565.555,2730.1
565.722,2761.0
565.889,2819.2
566.056,2883.9
566.223,2845.4
566.39,2779.9
566.557,2722.4
566.724,2683.9
566.891,2634.4
567.058,2638.0
567.225,2649.2
567.392,2634.7
567.559,2648.9
567.726,2665.2
567.893,2669.7
568.06,2688.9
568.227,2675.4
568.394,2676.9
568.561,2656.8
568.728,2667.6
568.895,2689.9
569.062,2683.5
569.229,2679.8
569.396,2691.2
569.563,2675.5
569.73,2640.7
569.897,2644.7
570.064,2665.3
570.231,2674.9
570.398,2696.6
570.564,2672.3
570.731,2677.9
570.898,2683.5
571.065,2712.7
571.232,2715.1
571.399,2772.7
571.566,2827.4
571.732,2811.9
571.899,2801.5
572.066,2768.5
572.233,2783.3
572.4,2768.8
572.566,2760.6
572.733,2754.1
572.9,2769.9
573.067,2792.8
573.234,2764.6
573.4,2771.6
573.567,2779.2
573.734,2766.7
573.901,2757.2
574.067,2764.6
574.234,2750.5
574.401,2783.7
574.568,2826.7
574.734,2788.4
574.901,2729.1
575.068,2693.8
575.234,2713.7
575.401,2688.3
575.568,2726.5
575.734,2707.1
575.901,2752.7
576.068,2769.4
576.234,2841.2
576.401,2963.4
576.568,3029.2
576.734,3082.6
576.901,3080.0
577.067,3001.5
577.234,2871.9
577.401,2785.6
577.567,2762.4
577.734,2721.2
577.9,2716.6
578.067,2735.7
578.233,2735.5
578.4,2722.9
578.567,2719.9
578.733,2738.4
578.9,2706.1
579.066,2705.6
579.233,2722.8
579.399,2723.4
579.566,2711.7
579.732,2739.2
579.899,2708.7
580.065,2728.2
580.231,2734.7
580.398,2748.6
580.564,2734.4
580.731,2729.3
580.897,2757.3
581.064,2732.9
581.23,2714.1
581.397,2748.4
581.563,2752.3
581.729,2726.6
581.896,2718.7
582.062,2756.5
582.228,2721.8
582.395,2733.9
582.561,2741.5
582.728,2755.0
582.894,2756.9
583.06,2767.9
583.227,2746.6
583.393,2735.4
583.559,2740.8
583.726,2751.3
583.892,2746.1
584.058,2758.0
584.224,2716.5
584.391,2735.5
584.557,2757.9
584.723,2769.5
584.889,2737.2
585.056,2737.7
585.222,2742.5
585.388,2751.9
585.554,2753.9
585.721,2757.9
585.887,2742.4
586.053,2761.4
586.219,2774.4
586.385,2816.5
586.552,2876.4
586.718,2905.7
586.884,2988.2
587.05,3008.0
587.216,3057.0
587.382,3095.4
587.549,3102.4
587.715,3052.0
587.881,2916.9
588.047,2833.1
588.213,2832.2
588.379,2779.1
588.545,2767.1
588.711,2732.3
588.877,2788.3
589.043,2748.6
589.209,2757.5
589.375,2756.0
589.542,2740.4
589.708,2735.3
589.874,2742.9
590.04,2749.0
590.206,2735.4
590.372,2756.7
590.538,2746.0
590.704,2725.5
590.87,2747.9
591.036,2729.9
591.201,2739.2
591.367,2752.5
591.533,2750.7
591.699,2766.6
591.865,2743.5
592.031,2761.1
592.197,2765.1
592.363,2766.6
592.529,2740.8
592.695,2744.3
592.861,2749.9
593.027,2756.3
593.192,2765.6
593.358,2748.9
593.524,2716.2
593.69,2714.9
593.856,2718.0
594.022,2763.8
594.187,2745.9
594.353,2752.3
594.519,2736.6
594.685,2755.5
594.851,2724.5
595.016,2744.4
595.182,2767.4
595.348,2746.6
595.514,2740.7
595.679,2770.1
595.845,2739.4
596.011,2757.7
596.177,2739.9
596.342,2755.9
596.508,2752.4
596.674,2767.3
596.84,2763.5
597.005,2771.1
597.171,2744.8
597.337,2724.1
597.502,2739.3
597.668,2738.5
597.833,2761.7
597.999,2727.7
598.165,2746.6
598.33,2751.8
598.496,2765.6
598.662,2756.2
598.827,2756.4
598.993,2777.2
599.158,2746.3
599.324,2785.7
599.489,2776.0
599.655,2769.8
599.821,2736.0
599.986,2732.1
600.152,2754.0
600.317,2795.5
600.483,2762.2
600.648,2765.3
600.814,2753.1
600.979,2754.8
601.145,2750.6
601.31,2773.5
601.476,2761.0
601.641,2738.2
601.807,2768.8
601.972,2776.1
602.137,2764.0
602.303,2767.9
602.468,2757.5
602.634,2737.3
602.799,2774.9
602.964,2770.6
603.13,2753.0
603.295,2745.4
603.461,2736.1
603.626,2733.0
603.791,2762.9
603.957,2765.0
604.122,2721.3
604.287,2740.5
604.453,2773.1
604.618,2729.9
604.783,2764.5
604.949,2740.3
605.114,2753.7
605.279,2762.7
605.444,2732.5
605.61,2781.7
605.775,2746.1
605.94,2741.0
606.105,2752.5
606.271,2745.1
606.436,2744.7
606.601,2739.8
606.766,2732.8
606.931,2747.4
607.097,2760.4
607.262,2747.2
607.427,2777.3
607.592,2730.1
607.757,2744.2
607.922,2793.8
608.088,2756.0
608.253,2712.7
608.418,2726.8
608.583,2736.6
608.748,2753.9
608.913,2753.1
609.078,2715.8
609.243,2760.1
609.408,2758.3
609.573,2745.6
609.738,2755.6
609.903,2735.7
610.068,2745.0
610.233,2736.7
610.399,2776.1
610.564,2738.3
610.729,2760.8
610.894,2757.4
611.058,2745.2
611.223,2773.7
611.388,2717.7
611.553,2731.9
611.718,2748.1
611.883,2733.5
612.048,2732.9
612.213,2748.6
612.378,2757.4
612.543,2727.7
612.708,2731.3
612.873,2731.5
613.038,2747.0
613.202,2732.1
613.367,2733.7
613.532,2745.1
613.697,2739.4
613.862,2726.8
614.027,2731.6
614.192,2728.0
614.356,2721.7
614.521,2741.9
614.686,2729.2
614.851,2744.4
615.016,2744.7
615.18,2726.9
615.345,2749.3
615.51,2714.8
615.675,2775.5
615.839,2746.9
616.004,2745.9
616.169,2754.4
616.333,2730.4
616.498,2756.0
616.663,2729.0
616.827,2733.8
616.992,2716.7
617.157,2740.1
617.321,2759.5
617.486,2750.5
617.651,2731.0
617.815,2734.8
617.98,2756.4
618.145,2703.8
618.309,2717.0
618.474,2736.7
618.638,2734.2
618.803,2720.8
618.968,2747.5
619.132,2714.4
619.297,2750.6
619.461,2740.6
619.626,2723.6
619.79,2759.3
619.955,2764.9
620.119,2725.7
620.284,2725.5
620.448,2729.9
620.613,2717.7
620.777,2748.5
620.942,2707.2
621.106,2709.3
621.271,2719.6
621.435,2741.1
621.599,2709.1
621.764,2729.4
621.928,2742.7
622.093,2743.3
622.257,2734.8
622.421,2775.7
622.586,2773.4
622.75,2786.7
622.915,2821.6
623.079,2809.3
623.243,2787.7
623.408,2792.9
623.572,2764.7
623.736,2755.8
623.9,2757.2
624.065,2744.7
624.229,2763.4
624.393,2722.9
624.558,2698.9
624.722,2728.5
624.886,2726.4
625.05,2716.4
625.215,2694.6
625.379,2698.5
625.543,2709.4
625.707,2708.3
625.871,2721.9
626.036,2725.0
626.2,2702.8
626.364,2713.9
626.528,2719.3
626.692,2703.8
626.856,2740.5
627.02,2693.1
627.185,2724.0
627.349,2707.5
627.513,2710.0
627.677,2731.4
627.841,2776.9
628.005,2880.7
628.169,3027.9
628.333,3125.5
628.497,3142.7
628.661,3147.3
628.825,3073.3
628.989,3088.3
629.153,3078.1
629.317,3062.9
629.481,3063.0
629.645,3099.7
629.809,3079.9
629.973,3065.1
630.137,3188.7
630.301,3303.7
630.465,3484.6
630.629,3959.1
630.793,4705.2
630.957,5396.7
631.121,5504.1
631.285,5105.9
631.449,4427.6
631.612,4003.1
631.776,3662.3
631.94,3487.1
632.104,3427.5
632.268,3323.1
632.432,3327.9
632.596,3393.9
632.759,3497.3
632.923,3745.2
633.087,3916.4
633.251,3954.6
633.414,3876.5
633.578,3733.4
633.742,3470.9
633.906,3373.4
634.069,3243.6
634.233,3029.7
634.397,2894.2
634.561,2885.9
634.724,2810.0
634.888,2742.2
635.052,2722.0
635.215,2701.5
635.379,2667.8
635.543,2698.7
635.706,2687.3
635.87,2644.7
636.034,2629.3
636.197,2671.4
636.361,2652.7
636.524,2604.1
636.688,2648.7
636.852,2625.4
637.015,2601.2
637.179,2644.2
637.342,2599.1
637.506,2627.4
637.669,2617.5
637.833,2610.2
637.996,2603.8
638.16,2615.2
638.323,2598.7
638.487,2609.0
638.65,2589.3
638.814,2596.6
638.977,2621.5
639.141,2600.5
639.304,2579.1
639.468,2635.8
639.631,2605.3
639.794,2565.3
639.958,2603.4
640.121,2612.3
640.285,2573.4
640.448,2550.5
640.611,2582.3
640.775,2562.5
640.938,2595.3
641.101,2593.9
641.265,2575.7
641.428,2575.6
641.591,2596.5
641.755,2559.9
641.918,2559.4
642.081,2568.1
642.244,2595.7
642.408,2587.5
642.571,2562.2
642.734,2529.7
642.897,2543.5
643.061,2562.2
643.224,2552.6
643.387,2516.3
643.55,2551.0
643.713,2562.8
643.876,2533.2
644.04,2532.3
644.203,2546.1
644.366,2512.0
644.529,2495.5
644.692,2541.4
644.855,2514.6
645.018,2532.8
645.181,2527.5
645.345,2517.8
645.508,2488.2
645.671,2549.3
645.834,2487.3
645.997,2502.4
646.16,2493.1
646.323,2496.9
646.486,2522.6
646.649,2492.7
646.812,2466.2
646.975,2477.0
647.138,2491.5
647.301,2492.1
647.464,2477.6
647.627,2503.2
647.79,2457.6
647.953,2475.5
648.115,2473.8
648.278,2469.2
648.441,2467.7
648.604,2451.6
648.767,2473.1
648.93,2459.6
649.093,2452.3
649.256,2437.0
649.418,2431.0
649.581,2456.5
649.744,2465.8
649.907,2445.0
650.07,2472.7
650.233,2437.5
650.395,2426.3
650.558,2461.6
650.721,2451.4
650.884,2433.2
651.046,2439.3
651.209,2437.7
651.372,2425.8
651.534,2436.5
651.697,2433.3
651.86,2427.9
652.023,2424.8
652.185,2417.6
652.348,2401.5
652.511,2417.3
652.673,2414.1
652.836,2417.5
652.998,2389.5
653.161,2388.7
653.324,2396.6
653.486,2386.9
653.649,2405.6
653.811,2399.2
653.974,2412.9
654.137,2391.4
654.299,2384.3
654.462,2384.1
654.624,2386.8
654.787,2372.2
654.949,2349.2
655.112,2365.1
655.274,2371.0
655.437,2365.0
655.599,2380.8
655.761,2379.8
655.924,2366.2
656.086,2352.7
656.249,2360.7
656.411,2348.1
656.574,2382.0
656.736,2375.6
656.898,2366.7
657.061,2369.4
657.223,2339.8
657.385,2337.3
657.548,2332.8
657.71,2355.1
657.872,2350.7
658.035,2326.6
658.197,2327.6
658.359,2325.7
658.522,2326.5
658.684,2316.0
658.846,2321.5
659.008,2319.1
659.171,2324.4
659.333,2310.0
659.495,2295.3
659.657,2287.9
659.82,2298.2
659.982,2301.2
660.144,2337.7
660.306,2296.8
660.468,2301.0
660.63,2288.0
660.793,2303.2
660.955,2283.6
661.036,2294.1