File: spectra/VLFR_02-HDPE_bio_Raman_9776e179.csv
nm,Intensity
528.629,1850.75
528.797,1851.6
528.965,1850.5
529.134,1852.2
529.302,1852.3
529.471,1849.9
529.639,1851.25
529.808,1851.6
529.976,1850.9
530.145,1851.05
530.313,1850.9
530.481,1851.45
530.65,1852.05
530.818,1851.05
530.987,1852.75
531.155,1852.9
531.323,1853.05
531.492,1854.6
531.66,1869.05
531.829,2172.7
531.997,2786.7
532.165,2580.55
532.334,1906.9
532.502,1851.9
532.67,1851.55
532.839,1851.7
533.007,1850.4
533.175,1852.05
533.344,1851.15
533.512,1853.3
533.68,1868.4
533.848,1886.45
534.017,1900.2
534.185,1899.1
534.353,1898.0
534.522,1899.3
534.69,1902.4
534.858,1900.75
535.026,1902.4
535.195,1896.85
535.363,1892.85
535.531,1885.6
535.699,1889.1
535.868,1885.65
536.036,1885.55
536.204,1885.65
536.372,1882.25
536.54,1884.9
536.709,1884.0
536.877,1881.6
537.045,1880.55
537.213,1881.45
537.381,1882.7
537.55,1882.15
537.718,1882.5
537.886,1883.45
538.054,1884.05
538.222,1883.6
538.39,1882.8
538.558,1881.85
538.727,1884.6
538.895,1886.55
539.063,1887.85
539.231,1886.95
539.399,1881.35
539.567,1879.5
539.735,1881.45
539.903,1880.5
540.071,1881.2
540.239,1883.2
540.408,1881.6
540.576,1879.9
540.744,1878.8
540.912,1877.45
541.08,1880.1
541.248,1878.0
541.416,1879.65
541.584,1881.5
541.752,1882.8
541.92,1880.45
542.088,1878.4
542.256,1882.9
542.424,1885.4
542.592,1884.1
542.76,1884.8
542.928,1882.2
543.096,1884.5
543.264,1882.8
543.432,1884.15
543.6,1882.45
543.768,1882.7
543.936,1882.7
544.104,1885.8
544.271,1884.4
544.439,1882.4
544.607,1881.15
544.775,1880.6
544.943,1881.85
545.111,1879.95
545.279,1879.85
545.447,1881.3
545.615,1883.4
545.783,1881.5
545.95,1883.6
546.118,1880.95
546.286,1879.45
546.454,1881.9
546.622,1883.05
546.79,1883.8
546.957,1884.35
547.125,1886.2
547.293,1885.25
547.461,1881.8
547.629,1883.0
547.797,1884.2
547.964,1885.15
548.132,1879.5
548.3,1883.65
548.468,1885.5
548.635,1884.05
548.803,1884.7
548.971,1887.85
549.139,1883.55
549.306,1885.95
549.474,1885.6
549.642,1885.9
549.81,1885.15
549.977,1885.05
550.145,1883.4
550.313,1883.85
550.48,1884.45
550.648,1885.1
550.816,1886.95
550.983,1889.5
551.151,1885.05
551.319,1890.3
551.486,1887.5
551.654,1884.95
551.822,1889.4
551.989,1886.25
552.157,1889.5
552.325,1885.45
552.492,1887.6
552.66,1883.9
552.828,1889.25
552.995,1888.55
553.163,1888.3
553.33,1887.25
553.498,1890.55
553.665,1894.55
553.833,1889.95
554.001,1890.5
554.168,1889.4
554.336,1890.6
554.503,1892.6
554.671,1889.95
554.838,1890.4
555.006,1891.8
555.173,1892.35
555.341,1891.8
555.508,1888.75
555.676,1891.6
555.843,1893.45
556.011,1893.85
556.178,1891.35
556.346,1888.8
556.513,1896.3
556.681,1894.25
556.848,1894.55
557.016,1888.0
557.183,1893.05
557.35,1894.9
557.518,1893.05
557.685,1895.4
557.853,1892.05
558.02,1896.65
558.188,1893.0
558.355,1896.35
558.522,1899.1
558.69,1896.1
558.857,1895.55
559.024,1893.5
559.192,1894.9
559.359,1895.55
559.526,1894.95
559.694,1894.55
559.861,1899.55
560.028,1897.6
560.196,1895.4
560.363,1898.7
560.53,1895.6
560.698,1898.25
560.865,1896.8
561.032,1900.05
561.2,1897.55
561.367,1899.1
561.534,1897.4
561.701,1899.85
561.869,1898.3
562.036,1898.95
562.203,1898.7
562.37,1901.55
562.538,1899.85
562.705,1904.3
562.872,1902.0
563.039,1899.95
563.206,1905.7
563.374,1907.4
563.541,1910.75
563.708,1932.35
563.875,1970.3
564.042,1982.15
564.209,1940.65
564.376,1918.45
564.544,1916.15
564.711,1917.2
564.878,1916.1
565.045,1910.85
565.212,1910.85
565.379,1912.15
565.546,1912.2
565.713,1927.75
565.881,1956.8
566.048,2002.7
566.215,2041.05
566.382,1955.35
566.549,1916.15
566.716,1911.35
566.883,1908.05
567.05,1905.2
567.217,1910.0
567.384,1915.75
567.551,1911.65
567.718,1906.8
567.885,1904.2
568.052,1906.9
568.219,1907.8
568.386,1907.55
568.553,1900.65
568.72,1905.45
568.887,1904.85
569.054,1907.25
569.221,1904.0
569.388,1909.8
569.555,1906.35
569.722,1907.05
569.888,1903.3
570.055,1910.75
570.222,1914.45
570.389,1917.15
570.556,1917.6
570.723,1920.25
570.89,1918.4
571.057,1922.0
571.224,1947.8
571.39,2023.1
571.557,2054.1
571.724,1979.25
571.891,1934.55
572.058,1927.75
572.225,1919.55
572.391,1920.75
572.558,1914.7
572.725,1911.9
572.892,1909.4
573.059,1911.15
573.225,1907.85
573.392,1907.45
573.559,1914.3
573.726,1914.8
573.892,1913.4
574.059,1912.75
574.226,1912.0
574.393,1908.1
574.559,1907.15
574.726,1906.4
574.893,1905.55
575.059,1915.55
575.226,1928.0
575.393,1972.4
575.559,1991.5
575.726,1966.8
575.893,1954.95
576.059,1970.0
576.226,1989.35
576.393,1984.1
576.559,1969.3
576.726,1966.15
576.893,1967.35
577.059,1957.45
577.226,1944.7
577.392,1932.55
577.559,1923.05
577.726,1912.15
577.892,1908.65
578.059,1908.65
578.225,1911.3
578.392,1910.8
578.558,1907.3
578.725,1906.95
578.891,1906.15
579.058,1911.25
579.224,1907.95
579.391,1910.1
579.557,1902.45
579.724,1908.4
579.89,1908.45
580.057,1905.0
580.223,1905.8
580.39,1907.5
580.556,1906.1
580.723,1905.65
580.889,1909.5
581.056,1905.75
581.222,1906.15
581.388,1907.0
581.555,1904.6
581.721,1906.4
581.888,1906.5
582.054,1905.75
582.22,1904.8
582.387,1903.05
582.553,1902.65
582.719,1904.2
582.886,1904.4
583.052,1903.45
583.219,1904.0
583.385,1904.95
583.551,1907.25
583.717,1905.45
583.884,1907.35
584.05,1904.7
584.216,1905.75
584.383,1904.25
584.549,1902.75
584.715,1905.05
584.881,1903.5
585.048,1905.6
585.214,1905.15
585.38,1898.55
585.546,1902.95
585.713,1905.05
585.879,1904.5
586.045,1903.0
586.211,1903.7
586.377,1903.1
586.544,1905.6
586.71,1903.45
586.876,1903.85
587.042,1901.8
587.208,1908.5
587.374,1904.15
587.541,1902.45
587.707,1903.6
587.873,1902.6
588.039,1906.5
588.205,1901.1
588.371,1905.2
588.537,1905.15
588.703,1908.6
588.869,1905.65
589.035,1908.4
589.201,1904.2
589.368,1908.2
589.534,1902.45
589.7,1902.7
589.866,1903.95
590.032,1904.25
590.198,1905.4
590.364,1905.9
590.53,1908.35
590.696,1904.7
590.862,1898.5
591.028,1907.5
591.194,1905.65
591.36,1905.15
591.525,1902.75
591.691,1905.45
591.857,1905.25
592.023,1905.9
592.189,1905.15
592.355,1908.95
592.521,1907.6
592.687,1903.15
592.853,1906.8
593.019,1905.95
593.185,1906.55
593.35,1907.5
593.516,1905.65
593.682,1909.25
593.848,1905.85
594.014,1908.25
594.18,1907.75
594.345,1904.7
594.511,1904.0
594.677,1906.55
594.843,1904.05
595.009,1904.5
595.174,1905.65
595.34,1905.4
595.506,1904.3
595.672,1906.8
595.837,1911.85
596.003,1911.7
596.169,1907.5
596.335,1906.15
596.5,1911.15
596.666,1905.65
596.832,1913.0
596.997,1904.3
597.163,1910.7
597.329,1908.7
597.494,1906.25
597.66,1909.4
597.826,1909.15
597.991,1908.2
598.157,1904.05
598.323,1909.5
598.488,1910.05
598.654,1910.1
598.819,1912.4
598.985,1913.55
599.151,1913.75
599.316,1912.7
599.482,1912.2
599.647,1911.05
599.813,1911.65
599.978,1906.8
600.144,1911.5
600.309,1910.2
600.475,1907.1
600.641,1912.0
600.806,1909.2
600.972,1911.65
601.137,1911.45
601.302,1909.6
601.468,1917.15
601.633,1912.4
601.799,1911.35
601.964,1912.65
602.13,1911.35
602.295,1915.8
602.461,1912.95
602.626,1909.1
602.791,1909.85
602.957,1913.35
603.122,1908.7
603.288,1910.1
603.453,1907.9
603.618,1915.1
603.784,1907.55
603.949,1914.75
604.114,1909.75
604.28,1910.05
604.445,1909.85
604.61,1913.05
604.776,1909.5
604.941,1908.95
605.106,1908.5
605.272,1904.9
605.437,1910.45
605.602,1910.6
605.767,1909.3
605.933,1913.95
606.098,1910.35
606.263,1907.4
606.428,1907.6
606.593,1911.95
606.759,1908.75
606.924,1909.7
607.089,1906.55
607.254,1910.2
607.419,1910.05
607.585,1910.7
607.75,1911.0
607.915,1909.15
608.08,1903.1
608.245,1908.3
608.41,1906.1
608.575,1913.15
608.74,1911.65
608.906,1910.3
609.071,1908.7
609.236,1907.95
609.401,1905.85
609.566,1908.05
609.731,1907.9
609.896,1911.3
610.061,1906.9
610.226,1905.85
610.391,1907.6
610.556,1911.4
610.721,1913.5
610.886,1913.05
611.051,1910.55
611.216,1913.0
611.381,1912.95
611.546,1910.4
611.711,1908.9
611.876,1906.55
612.041,1908.0
612.206,1904.9
612.371,1905.0
612.536,1907.7
612.7,1910.6
612.865,1910.1
613.03,1905.5
613.195,1906.15
613.36,1905.6
613.525,1903.25
613.69,1914.05
613.855,1910.6
614.019,1906.75
614.184,1908.55
614.349,1905.55
614.514,1903.6
614.679,1909.5
614.843,1910.2
615.008,1911.15
615.173,1909.5
615.338,1908.55
615.503,1903.1
615.667,1904.0
615.832,1908.4
615.997,1908.35
616.161,1907.35
616.326,1907.4
616.491,1909.6
616.656,1905.5
616.82,1910.45
616.985,1911.5
617.15,1912.05
617.314,1916.75
617.479,1913.2
617.644,1911.0
617.808,1915.15
617.973,1914.9
618.137,1913.45
618.302,1912.35
618.467,1914.0
618.631,1913.7
618.796,1910.3
618.96,1911.25
619.125,1917.15
619.289,1914.15
619.454,1916.5
619.619,1922.2
619.783,1918.2
619.948,1915.7
620.112,1917.9
620.277,1916.9
620.441,1921.95
620.606,1919.7
620.77,1920.35
620.935,1918.6
621.099,1925.7
621.263,1925.75
621.428,1930.4
621.592,1940.65
621.757,1941.45
621.921,1942.7
622.086,1950.5
622.25,1953.9
622.414,1946.55
622.579,1947.15
622.743,1933.4
622.907,1927.05
623.072,1925.2
623.236,1918.05
623.401,1916.2
623.565,1917.9
623.729,1916.05
623.893,1921.85
624.058,1918.4
624.222,1916.3
624.386,1918.55
624.551,1916.7
624.715,1916.15
624.879,1919.65
625.043,1921.4
625.208,1924.75
625.372,1920.6
625.536,1923.95
625.7,1929.05
625.864,1933.75
626.029,1938.85
626.193,1950.1
626.357,1980.4
626.521,2040.35
626.685,2129.15
626.849,2304.5
627.014,2512.3
627.178,2551.65
627.342,2507.6
627.506,2395.4
627.67,2339.75
627.834,2297.5
627.998,2287.2
628.162,2349.6
628.326,2483.45
628.49,2578.85
628.654,2431.1
628.818,2293.8
628.983,2230.1
629.147,2215.7
629.311,2207.9
629.475,2161.55
629.639,2136.75
629.803,2103.5
629.966,2102.4
630.13,2105.8
630.294,2093.25
630.458,2087.0
630.622,2055.55
630.786,2024.65
630.95,1989.2
631.114,1972.35
631.278,1947.65
631.442,1933.3
631.606,1936.85
631.77,1927.85
631.933,1923.05
632.097,1917.9
632.261,1914.2
632.425,1918.4
632.589,1915.15
632.753,1915.4
632.916,1910.9
633.08,1911.15
633.244,1907.05
633.408,1908.4
633.572,1914.25
633.735,1909.9
633.899,1906.35
634.063,1906.15
634.227,1906.0
634.39,1904.0
634.554,1898.2
634.718,1905.05
634.881,1901.35
635.045,1904.15
635.209,1906.05
635.372,1904.95
635.536,1898.75
635.7,1899.0
635.863,1901.2
636.027,1905.4
636.191,1905.2
636.354,1900.2
636.518,1902.9
636.681,1899.5
636.845,1898.65
637.009,1896.4
637.172,1896.45
637.336,1900.9
637.499,1898.25
637.663,1896.5
637.826,1897.5
637.99,1896.45
638.153,1896.65
638.317,1894.6
638.48,1899.65
638.644,1898.8
638.807,1897.6
638.971,1895.6
639.134,1890.1
639.298,1894.55
639.461,1892.15
639.625,1893.3
639.788,1891.6
639.951,1894.9
640.115,1893.35
640.278,1893.25
640.441,1894.15
640.605,1895.5
640.768,1893.7
640.932,1891.7
641.095,1896.85
641.258,1895.1
641.422,1894.45
641.585,1896.55
641.748,1892.35
641.911,1891.25
642.075,1892.65
642.238,1892.45
642.401,1892.5
642.565,1894.15
642.728,1893.5
642.891,1891.8
643.054,1893.2
643.217,1888.5
643.381,1890.5
643.544,1895.6
643.707,1890.95
643.87,1892.2
644.033,1891.9
644.197,1890.75
644.36,1891.95
644.523,1892.4
644.686,1888.65
644.849,1891.55
645.012,1895.8
645.175,1892.1
645.338,1889.85
645.501,1896.45
645.664,1891.8
645.828,1893.05
645.991,1891.7
646.154,1890.2
646.317,1890.4
646.48,1890.8
646.643,1893.05
646.806,1891.5
646.969,1890.1
647.132,1892.85
647.295,1890.7
647.458,1893.2
647.621,1890.35
647.783,1892.0
647.946,1893.7
648.109,1890.35
648.272,1893.65
648.435,1891.1
648.598,1893.25
648.761,1888.35
648.924,1889.2
649.087,1890.25
649.25,1890.55
649.412,1890.75
649.575,1892.65
649.738,1889.05
649.901,1889.35
650.064,1888.1
650.226,1888.1
650.389,1888.95
650.552,1891.2
650.715,1889.4
650.878,1889.05
651.04,1887.55
651.203,1890.65
651.366,1887.15
651.528,1889.15
651.691,1893.55
651.854,1887.5
652.017,1885.85
652.179,1887.95
652.342,1891.1
652.505,1890.3
652.667,1886.6
652.83,1887.7
652.992,1889.15
653.155,1882.05
653.318,1884.3
653.48,1886.1
653.643,1884.45
653.805,1888.7
653.968,1884.35
654.131,1885.35
654.293,1888.5
654.456,1887.2
654.618,1884.2
654.781,1885.4
654.943,1884.85
655.106,1883.05
655.268,1882.9
655.431,1883.95
655.593,1884.35
655.756,1883.25
655.918,1881.8
656.081,1888.65
656.243,1880.9
656.405,1887.35
656.568,1883.4
656.73,1882.35
656.893,1882.65
657.055,1884.25
657.217,1880.9
657.38,1881.95
657.542,1883.45
657.704,1881.45
657.867,1882.4
658.029,1881.75
658.191,1886.2
658.354,1881.9
658.516,1880.45
658.678,1878.8
658.84,1881.25
659.003,1882.1
659.165,1883.35
659.327,1881.7
659.489,1881.65
659.652,1881.0
659.814,1882.75
659.976,1877.35
660.138,1881.95
660.3,1878.4
660.463,1877.9
660.625,1878.2
660.787,1879.0
660.949,1880.35
661.03,1879.3