File: spectra/VLFR_08-PLA_bio_Raman_a8463a3d.csv
nm,Intensity
526.547,833.05
526.684,832.75
526.821,831.95
526.958,832.55
527.095,832.65
527.232,832.9
527.368,832.4
527.505,832.35
527.642,831.3
527.779,832.25
527.916,832.25
528.052,832.6
528.189,831.8
528.326,832.55
528.463,832.95
528.599,833.05
528.736,832.8
528.873,831.55
529.009,832.6
529.146,833.6
529.283,833.0
529.419,830.65
529.556,833.0
529.693,833.05
529.829,832.05
529.966,831.95
530.103,832.45
530.239,832.15
530.376,832.7
530.512,832.7
530.649,831.55
530.785,831.2
530.922,832.45
531.059,832.25
531.195,831.8
531.332,832.85
531.468,831.45
531.605,832.15
531.741,832.15
531.878,833.0
532.014,834.8
532.151,842.75
532.287,841.35
532.423,834.1
532.56,832.75
532.696,831.85
532.833,832.6
532.969,831.45
533.106,831.85
533.242,832.0
533.378,832.55
533.515,831.55
533.651,833.0
533.787,842.5
533.924,872.95
534.06,906.65
534.196,917.75
534.333,914.0
534.469,907.85
534.605,905.9
534.742,904.45
534.878,901.65
535.014,895.85
535.15,895.2
535.287,893.5
535.423,892.5
535.559,891.15
535.695,890.65
535.832,889.65
535.968,887.2
536.104,888.15
536.24,887.35
536.376,886.9
536.513,888.2
536.649,885.45
536.785,887.6
536.921,886.1
537.057,885.6
537.193,884.8
537.329,885.7
537.465,884.15
537.602,881.65
537.738,883.95
537.874,883.05
538.01,884.35
538.146,882.3
538.282,882.75
538.418,882.05
538.554,879.0
538.69,880.8
538.826,880.4
538.962,879.95
539.098,880.6
539.234,882.35
539.37,881.6
539.506,879.65
539.642,879.5
539.778,878.05
539.914,879.75
540.05,877.55
540.186,877.65
540.322,881.35
540.458,883.15
540.594,882.15
540.729,883.05
540.865,885.05
541.001,885.35
541.137,885.25
541.273,884.75
541.409,882.5
541.545,882.95
541.68,883.45
541.816,885.0
541.952,882.35
542.088,881.5
542.224,882.2
542.36,880.15
542.495,881.25
542.631,879.95
542.767,880.6
542.903,883.85
543.038,882.35
543.174,885.65
543.31,887.3
543.446,891.35
543.581,892.3
543.717,893.3
543.853,894.3
543.988,894.35
544.124,898.15
544.26,895.45
544.395,888.85
544.531,888.0
544.667,885.95
544.802,880.5
544.938,883.8
545.074,884.95
545.209,883.15
545.345,883.25
545.481,882.55
545.616,882.15
545.752,883.35
545.887,884.6
546.023,882.15
546.158,883.9
546.294,884.5
546.43,887.85
546.565,887.6
546.701,886.85
546.836,884.55
546.972,885.15
547.107,886.65
547.243,884.1
547.378,886.6
547.514,885.1
547.649,884.3
547.785,884.05
547.92,885.45
548.056,885.2
548.191,885.0
548.326,884.6
548.462,884.8
548.597,887.0
548.733,887.1
548.868,888.5
549.004,889.4
549.139,886.85
549.274,890.3
549.41,888.4
549.545,886.1
549.68,887.35
549.816,888.55
549.951,887.85
550.086,888.15
550.222,890.0
550.357,891.25
550.492,890.85
550.628,887.4
550.763,889.65
550.898,889.3
551.034,891.35
551.169,889.65
551.304,890.25
551.439,888.0
551.575,889.65
551.71,889.8
551.845,893.8
551.98,894.45
552.116,893.4
552.251,892.05
552.386,893.15
552.521,894.05
552.656,894.4
552.792,892.3
552.927,893.5
553.062,893.6
553.197,890.65
553.332,893.35
553.467,892.8
553.603,893.05
553.738,893.55
553.873,895.05
554.008,896.7
554.143,895.85
554.278,896.8
554.413,895.05
554.548,892.2
554.683,891.6
554.819,890.5
554.954,891.6
555.089,891.35
555.224,892.0
555.359,893.85
555.494,892.6
555.629,892.1
555.764,891.5
555.899,891.4
556.034,891.7
556.169,889.95
556.304,895.05
556.439,892.6
556.574,892.8
556.709,891.75
556.844,892.2
556.979,893.0
557.114,894.2
557.249,897.5
557.384,896.9
557.519,898.5
557.653,901.0
557.788,911.45
557.923,924.9
558.058,933.9
558.193,937.7
558.328,925.6
558.463,908.7
558.598,901.1
558.733,897.75
558.867,898.3
559.002,898.55
559.137,897.25
559.272,899.35
559.407,897.35
559.542,897.3
559.677,896.95
559.811,897.25
559.946,898.5
560.081,896.4
560.216,896.45
560.351,898.45
560.485,896.25
560.62,896.2
560.755,895.55
560.89,895.1
561.024,895.8
561.159,896.4
561.294,896.1
561.429,897.65
561.563,898.05
561.698,896.4
561.833,895.45
561.967,901.6
562.102,899.6
562.237,916.75
562.371,940.7
562.506,920.3
562.641,903.25
562.775,901.75
562.91,902.55
563.045,903.55
563.179,905.5
563.314,908.5
563.449,912.2
563.583,912.8
563.718,909.4
563.853,907.6
563.987,907.3
564.122,903.95
564.256,903.65
564.391,902.25
564.525,901.85
564.66,904.25
564.795,905.55
564.929,907.7
565.064,908.95
565.198,911.9
565.333,909.25
565.467,909.45
565.602,908.05
565.736,910.75
565.871,911.5
566.005,915.2
566.14,918.7
566.274,920.05
566.409,919.55
566.543,913.55
566.678,911.15
566.812,907.25
566.947,902.05
567.081,901.1
567.216,899.7
567.35,902.55
567.484,903.7
567.619,904.3
567.753,905.15
567.888,904.55
568.022,904.5
568.156,903.55
568.291,903.45
568.425,902.85
568.56,902.5
568.694,902.95
568.828,903.65
568.963,904.4
569.097,907.1
569.231,903.7
569.366,907.6
569.5,903.5
569.634,904.8
569.769,905.05
569.903,904.8
570.037,903.55
570.172,904.3
570.306,906.55
570.44,903.25
570.575,905.15
570.709,906.05
570.843,904.75
570.977,905.55
571.112,904.95
571.246,907.05
571.38,906.7
571.514,909.55
571.649,913.0
571.783,913.15
571.917,912.15
572.051,910.1
572.185,908.0
572.32,910.05
572.454,909.45
572.588,908.85
572.722,911.0
572.856,908.7
572.991,908.9
573.125,909.95
573.259,910.95
573.393,909.85
573.527,912.2
573.661,911.55
573.795,911.0
573.93,911.3
574.064,909.55
574.198,910.85
574.332,910.8
574.466,912.9
574.6,915.1
574.734,913.55
574.868,909.8
575.002,907.65
575.136,906.55
575.271,904.45
575.405,908.3
575.539,909.35
575.673,907.45
575.807,906.6
575.941,909.7
576.075,907.65
576.209,910.4
576.343,913.15
576.477,919.25
576.611,927.8
576.745,928.15
576.879,929.0
577.013,927.85
577.147,924.95
577.281,915.9
577.415,913.05
577.549,909.5
577.683,910.9
577.817,909.3
577.951,910.15
578.085,911.2
578.218,906.2
578.352,909.75
578.486,909.85
578.62,907.45
578.754,908.8
578.888,907.5
579.022,907.1
579.156,909.65
579.29,908.25
579.424,909.75
579.557,908.85
579.691,907.75
579.825,910.7
579.959,908.2
580.093,907.15
580.227,908.05
580.361,907.4
580.494,910.1
580.628,909.6
580.762,906.55
580.896,907.75
581.03,908.7
581.164,909.05
581.297,906.55
581.431,906.45
581.565,910.85
581.699,909.75
581.832,909.8
581.966,908.8
582.1,910.5
582.234,909.15
582.368,909.1
582.501,911.25
582.635,910.05
582.769,911.75
582.903,910.2
583.036,910.9
583.17,911.3
583.304,909.75
583.437,910.8
583.571,911.45
583.705,911.9
583.838,908.85
583.972,908.55
584.106,909.2
584.24,910.25
584.373,911.3
584.507,911.4
584.641,909.85
584.774,909.8
584.908,909.3
585.041,910.75
585.175,911.05
585.309,911.4
585.442,912.4
585.576,911.45
585.71,908.0
585.843,913.0
585.977,910.55
586.11,910.9
586.244,913.95
586.378,912.75
586.511,917.1
586.645,916.2
586.778,920.05
586.912,921.95
587.045,926.6
587.179,928.25
587.313,930.55
587.446,930.3
587.58,931.95
587.713,930.3
587.847,925.45
587.98,918.8
588.114,919.85
588.247,914.45
588.381,916.9
588.514,912.55
588.648,912.6
588.781,909.9
588.915,912.3
589.048,912.4
589.182,910.55
589.315,910.35
589.449,912.75
589.582,910.65
589.715,909.8
589.849,911.3
589.982,910.85
590.116,912.8
590.249,910.5
590.383,910.45
590.516,910.75
590.649,908.05
590.783,909.5
590.916,910.25
591.05,911.9
591.183,910.05
591.316,911.1
591.45,909.9
591.583,910.85
591.717,911.45
591.85,909.3
591.983,912.95
592.117,911.75
592.25,911.6
592.383,912.6
592.517,911.05
592.65,908.7
592.783,909.3
592.917,911.3
593.05,908.75
593.183,910.2
593.317,910.35
593.45,909.85
593.583,910.35
593.717,911.2
593.85,909.45
593.983,910.85
594.116,911.0
594.25,910.8
594.383,911.65
594.516,911.45
594.649,909.85
594.783,912.35
594.916,910.15
595.049,911.7
595.182,912.95
595.316,911.5
595.449,911.0
595.582,912.0
595.715,913.25
595.849,909.75
595.982,911.9
596.115,910.35
596.248,911.95
596.381,911.4
596.514,910.65
596.648,912.55
596.781,909.75
596.914,913.85
597.047,911.45
597.18,910.8
597.313,913.05
597.447,911.55
597.58,910.7
597.713,913.0
597.846,911.75
597.979,914.2
598.112,913.15
598.245,913.55
598.379,914.7
598.512,913.8
598.645,913.15
598.778,912.95
598.911,911.9
599.044,915.05
599.177,915.95
599.31,911.4
599.443,913.15
599.576,913.5
599.709,910.45
599.842,911.05
599.975,913.05
600.109,911.9
600.242,911.7
600.375,914.45
600.508,912.1
600.641,910.4
600.774,910.65
600.907,914.05
601.04,913.25
601.173,911.6
601.306,912.45
601.439,911.6
601.572,910.3
601.705,911.05
601.838,911.3
601.971,912.65
602.104,908.75
602.237,911.7
602.37,912.5
602.503,911.55
602.636,909.95
602.768,910.95
602.901,909.9
603.034,912.45
603.167,914.65
603.3,913.15
603.433,911.2
603.566,912.9
603.699,910.9
603.832,912.35
603.965,911.5
604.098,910.05
604.231,912.55
604.364,908.55
604.496,912.45
604.629,911.05
604.762,910.5
604.895,908.8
605.028,907.9
605.161,914.2
605.294,913.15
605.427,908.7
605.559,910.3
605.692,908.35
605.825,909.6
605.958,910.35
606.091,909.9
606.224,906.0
606.356,910.3
606.489,907.05
606.622,904.85
606.755,907.5
606.888,907.0
607.02,909.3
607.153,911.0
607.286,906.35
607.419,908.95
607.552,908.4
607.684,908.4
607.817,907.6
607.95,909.4
608.083,909.2
608.215,910.15
608.348,910.95
608.481,908.25
608.614,909.05
608.746,910.3
608.879,909.3
609.012,907.6
609.145,905.7
609.277,912.1
609.41,909.9
609.543,908.55
609.675,909.6
609.808,908.3
609.941,907.4
610.074,909.75
610.206,907.65
610.339,908.65
610.472,909.75
610.604,905.7
610.737,907.75
610.87,908.55
611.002,909.35
611.135,909.25
611.268,908.2
611.4,906.25
611.533,907.75
611.666,909.4
611.798,907.7
611.931,907.05
612.063,908.1
612.196,907.75
612.329,908.7
612.461,907.7
612.594,909.8
612.727,909.75
612.859,909.45
612.992,910.85
613.124,910.15
613.257,908.7
613.39,909.3
613.522,909.35
613.655,908.4
613.787,911.55
613.92,910.5
614.052,908.5
614.185,909.15
614.317,907.6
614.45,909.45
614.583,911.9
614.715,908.85
614.848,910.1
614.98,908.1
615.113,910.65
615.245,907.85
615.378,911.95
615.51,908.45
615.643,910.85
615.775,906.45
615.908,907.7
616.04,907.15
616.173,908.3
616.305,904.7
616.438,907.85
616.57,908.2
616.703,906.75
616.835,907.35
616.968,908.85
617.1,907.9
617.233,907.25
617.365,910.25
617.498,907.45
617.63,908.45
617.762,909.95
617.895,908.45
618.027,907.15
618.16,908.95
618.292,905.45
618.425,906.9
618.557,906.8
618.689,906.7
618.822,909.95
618.954,905.6
619.087,904.05
619.219,906.65
619.351,908.7
619.484,906.8
619.616,904.55
619.749,906.95
619.881,908.15
620.013,904.1
620.146,907.1
620.278,905.75
620.41,907.45
620.543,902.65
620.675,905.9
620.808,905.35
620.94,903.45
621.072,906.05
621.205,905.7
621.337,905.7
621.469,904.7
621.602,905.55
621.734,906.1
621.866,904.15
621.998,906.35
622.131,907.1
622.263,904.65
622.395,905.9
622.528,905.8
622.66,909.35
622.792,908.7
622.925,908.7
623.057,907.35
623.189,907.6
623.321,908.4
623.454,907.85
623.586,908.35
623.718,907.8
623.85,907.25
623.983,903.6
624.115,907.45
624.247,906.75
624.379,903.7
624.512,905.15
624.644,903.5
624.776,904.1
624.908,905.1
625.041,907.05
625.173,903.35
625.305,903.2
625.437,902.2
625.569,903.05
625.702,903.6
625.834,905.45
625.966,903.55
626.098,906.05
626.23,904.2
626.363,904.75
626.495,905.4
626.627,901.3
626.759,904.15
626.891,904.2
627.024,902.6
627.156,903.4
627.288,903.65
627.42,905.55
627.552,903.1
627.684,904.85
627.816,903.95
627.949,904.4
628.081,907.0
628.213,912.2
628.345,917.0
628.477,923.3
628.609,922.85
628.741,918.0
628.874,922.1
629.006,918.55
629.138,915.1
629.27,916.95
629.402,920.15
629.534,918.05
629.666,916.45
629.798,918.9
629.93,916.45
630.062,915.95
630.195,920.0
630.327,922.35
630.459,925.75
630.591,935.05
630.723,948.9
630.855,971.15
630.987,1003.45
631.119,1025.75
631.251,1022.15
631.383,1004.35
631.515,981.85
631.647,958.65
631.779,946.85
631.911,940.3
632.043,934.35
632.175,933.9
632.307,927.9
632.439,927.4
632.571,928.45
632.703,928.4
632.835,932.25
632.967,938.45
633.099,944.8
633.231,947.2
633.363,947.8
633.495,948.1
633.627,944.0
633.759,937.25
633.891,930.6
634.023,925.85
634.155,922.95
634.287,915.8
634.419,910.5
634.551,908.4
634.683,906.0
634.815,901.95
634.947,901.55
635.079,900.35
635.211,898.8
635.343,897.7
635.475,898.1
635.607,898.4
635.739,897.05
635.871,896.75
636.003,896.7
636.135,896.45
636.267,897.45
636.398,896.45
636.53,896.0
636.662,896.8
636.794,894.2
636.926,895.35
637.058,896.55
637.19,896.15
637.322,896.15
637.454,895.2
637.586,895.8
637.717,894.3
637.849,898.3
637.981,897.25
638.113,894.8
638.245,896.3
638.377,895.25
638.509,894.85
638.641,894.9
638.773,895.95
638.904,894.35
639.036,895.3
639.168,896.4
639.3,895.1
639.432,893.55
639.564,892.3
639.695,892.6
639.827,896.9
639.959,892.9
640.091,894.65
640.223,893.65
640.355,892.45
640.486,892.25
640.618,896.55
640.75,893.9
640.882,894.3
641.014,894.95
641.146,893.9
641.277,892.65
641.409,892.2
641.541,893.6
641.673,894.15
641.805,894.5
641.936,891.2
642.068,892.2
642.2,893.35
642.332,892.65
642.464,892.05
642.595,893.4
642.727,895.0
642.859,892.25
642.991,893.75
643.122,892.05
643.254,890.9
643.386,890.35
643.518,890.95
643.649,893.85
643.781,890.45
643.913,892.5
644.045,891.15
644.176,891.6
644.308,891.05
644.44,890.15
644.572,890.2
644.703,888.8
644.835,889.15
644.967,889.65
645.099,890.15
645.23,889.95
645.362,890.3
645.494,889.95
645.625,889.15
645.757,888.35
645.889,890.65
646.021,889.75
646.152,888.7
646.284,888.0
646.416,890.7
646.547,887.95
646.679,888.1
646.811,891.7
646.942,891.9
647.074,890.2
647.206,889.85
647.337,890.65
647.469,889.4
647.601,888.75
647.732,890.4
647.864,888.8
647.996,886.6
648.127,888.65
648.259,889.25
648.391,886.15
648.522,888.6
648.654,889.0
648.786,888.55
648.917,889.2
649.049,889.6
649.181,889.55
649.312,891.05
649.444,890.2
649.576,891.0
649.707,891.85
649.839,891.8
649.971,889.9
650.102,889.3
650.234,891.05
650.365,890.7
650.497,890.4
650.629,889.25
650.76,886.85
650.892,888.75
651.023,887.2
651.155,887.4
651.287,888.1
651.418,887.95
651.55,886.25
651.682,885.9
651.813,886.45
651.945,887.3
652.076,887.7
652.208,887.25
652.339,883.95
652.471,885.35
652.603,885.6
652.734,887.05
652.866,887.55
652.997,887.05
653.129,885.95
653.261,885.45
653.392,886.25
653.524,887.55
653.655,886.95
653.787,887.05
653.918,885.9
654.05,885.05
654.181,887.25
654.313,883.2
654.445,885.3
654.576,886.65
654.708,885.35
654.839,887.65
654.971,885.2
655.102,883.75
655.234,884.35
655.365,883.05
655.497,885.95
655.628,885.65
655.76,883.65
655.892,882.2
656.023,885.25
656.155,883.4
656.286,884.85
656.418,882.65
656.549,883.3
656.681,885.45
656.812,885.4
656.944,884.9
657.075,886.4
657.207,883.2
657.338,884.3
657.47,884.75
657.601,883.2
657.733,882.75
657.864,884.1
657.996,884.55
658.127,883.8
658.259,881.15
658.39,884.05
658.522,884.35
658.653,881.45
658.785,883.6
658.916,882.4
659.048,881.95
659.179,881.6
659.311,882.6
659.442,881.95
659.574,882.75
659.705,882.75
659.836,882.0
659.968,882.25
660.099,885.35
660.231,879.7
660.362,883.0
660.494,880.35
660.625,881.6
660.757,881.65
660.888,882.3
661.02,880.35
661.151,879.9
661.283,881.35
661.414,880.7
661.545,879.65
661.677,880.8
661.808,881.9
661.94,879.15
662.071,882.1
662.203,880.65
662.334,879.8
662.466,880.65
662.597,878.7
662.728,878.9
662.86,879.4
662.991,877.35
663.123,878.6