File: spectra/VLFR_01-LDPE_bio_Raman_f17f7a14.csv
nm,Intensity
528.65,1839.2
528.819,1838.65
528.987,1839.0
529.155,1838.45
529.324,1837.6
529.492,1838.2
529.66,1838.55
529.829,1838.5
529.997,1837.75
530.165,1837.2
530.334,1839.5
530.502,1838.0
530.67,1837.25
530.839,1838.85
531.007,1838.35
531.175,1840.0
531.344,1841.5
531.512,1843.8
531.68,1865.6
531.848,2239.75
532.017,3950.25
532.185,4044.65
532.353,2195.45
532.521,1846.45
532.69,1840.25
532.858,1839.65
533.026,1840.7
533.194,1839.8
533.363,1841.95
533.531,1861.9
533.699,1980.2
533.867,2237.55
534.036,2433.9
534.204,2467.45
534.372,2445.95
534.54,2428.8
534.708,2417.95
534.877,2423.65
535.045,2414.05
535.213,2391.65
535.381,2395.15
535.549,2390.05
535.717,2360.6
535.886,2362.0
536.054,2327.4
536.222,2335.45
536.39,2332.6
536.558,2340.0
536.726,2337.45
536.894,2329.55
537.062,2334.1
537.231,2338.9
537.399,2324.75
537.567,2343.2
537.735,2352.05
537.903,2351.2
538.071,2349.2
538.239,2331.1
538.407,2329.3
538.575,2320.5
538.743,2320.35
538.911,2317.0
539.079,2312.35
539.247,2312.75
539.415,2319.35
539.583,2312.85
539.751,2306.55
539.919,2307.25
540.087,2314.4
540.255,2316.1
540.423,2303.35
540.591,2312.45
540.759,2314.3
540.927,2316.75
541.095,2314.6
541.263,2310.7
541.431,2311.6
541.599,2306.7
541.767,2296.95
541.935,2319.45
542.103,2305.5
542.271,2310.3
542.439,2308.25
542.607,2317.85
542.775,2312.25
542.943,2321.45
543.111,2311.8
543.279,2313.65
543.446,2312.3
543.614,2328.65
543.782,2321.5
543.95,2310.05
544.118,2312.85
544.286,2313.65
544.454,2322.95
544.622,2314.3
544.789,2313.65
544.957,2314.8
545.125,2324.95
545.293,2315.1
545.461,2327.3
545.629,2324.55
545.796,2320.1
545.964,2339.85
546.132,2326.55
546.3,2332.6
546.468,2340.35
546.635,2339.0
546.803,2332.75
546.971,2335.1
547.139,2334.05
547.306,2327.4
547.474,2331.2
547.642,2341.15
547.81,2342.25
547.977,2343.95
548.145,2343.7
548.313,2347.25
548.481,2342.2
548.648,2350.35
548.816,2345.7
548.984,2340.2
549.151,2348.7
549.319,2344.9
549.487,2345.7
549.655,2338.1
549.822,2349.7
549.99,2339.5
550.158,2338.15
550.325,2347.7
550.493,2354.05
550.66,2348.6
550.828,2365.85
550.996,2369.55
551.163,2367.55
551.331,2360.2
551.499,2378.8
551.666,2374.4
551.834,2386.8
552.001,2387.75
552.169,2387.25
552.337,2391.45
552.504,2391.45
552.672,2388.3
552.839,2385.05
553.007,2388.7
553.174,2399.2
553.342,2406.5
553.509,2400.5
553.677,2379.1
553.844,2413.5
554.012,2400.05
554.179,2411.05
554.347,2401.8
554.514,2413.5
554.682,2412.9
554.849,2414.85
555.017,2419.7
555.184,2406.0
555.352,2419.95
555.519,2415.25
555.687,2430.5
555.854,2445.3
556.022,2431.1
556.189,2432.9
556.357,2456.65
556.524,2440.45
556.691,2438.45
556.859,2453.7
557.026,2468.75
557.194,2476.15
557.361,2476.7
557.528,2484.55
557.696,2487.35
557.863,2478.35
558.031,2504.95
558.198,2527.7
558.365,2503.45
558.533,2520.05
558.7,2493.7
558.867,2490.15
559.035,2498.65
559.202,2494.7
559.369,2498.0
559.537,2497.9
559.704,2505.85
559.871,2509.85
560.038,2488.6
560.206,2490.7
560.373,2485.45
560.54,2503.15
560.708,2495.8
560.875,2510.6
561.042,2500.6
561.209,2510.65
561.377,2522.6
561.544,2537.75
561.711,2548.95
561.878,2552.6
562.045,2532.25
562.213,2546.6
562.38,2569.95
562.547,2592.15
562.714,2589.2
562.881,2600.0
563.049,2611.0
563.216,2615.0
563.383,2632.9
563.55,2640.6
563.717,2721.55
563.884,2892.8
564.052,2975.15
564.219,2891.85
564.386,2785.65
564.553,2765.55
564.72,2772.95
564.887,2752.35
565.054,2741.25
565.221,2722.4
565.388,2704.5
565.556,2734.0
565.723,2752.55
565.89,2861.95
566.057,3037.45
566.224,3051.7
566.391,2875.4
566.558,2751.9
566.725,2748.05
566.892,2728.3
567.059,2720.85
567.226,2732.85
567.393,2734.6
567.56,2746.0
567.727,2749.0
567.894,2743.95
568.061,2741.75
568.228,2734.65
568.395,2731.95
568.562,2773.05
568.729,2742.35
568.896,2762.5
569.063,2761.95
569.23,2762.15
569.396,2798.4
569.563,2782.55
569.73,2794.1
569.897,2803.4
570.064,2835.85
570.231,2823.45
570.398,2837.25
570.565,2873.2
570.732,2886.4
570.898,2900.05
571.065,2948.55
571.232,3032.25
571.399,3336.8
571.566,3534.3
571.733,3424.3
571.9,3201.5
572.066,3107.0
572.233,3038.05
572.4,3044.0
572.567,2971.9
572.734,2966.75
572.9,2945.1
573.067,2951.1
573.234,2963.2
573.401,2936.1
573.567,2980.05
573.734,2963.7
573.901,2994.6
574.068,2994.55
574.234,2977.15
574.401,2954.45
574.568,2937.95
574.734,2943.85
574.901,2952.05
575.068,2981.3
575.235,3021.9
575.401,3104.9
575.568,3244.1
575.735,3248.6
575.901,3350.2
576.068,3499.05
576.235,3671.3
576.401,3733.6
576.568,3622.9
576.734,3488.05
576.901,3513.9
577.068,3451.2
577.234,3356.2
577.401,3224.55
577.567,3159.6
577.734,3100.2
577.901,3056.8
578.067,3089.1
578.234,3085.3
578.4,3062.7
578.567,3038.6
578.733,3074.2
578.9,3083.25
579.066,3079.7
579.233,3079.7
579.399,3109.2
579.566,3114.15
579.732,3095.05
579.899,3090.35
580.065,3125.1
580.232,3145.5
580.398,3098.25
580.565,3141.55
580.731,3155.15
580.898,3110.2
581.064,3173.65
581.231,3153.2
581.397,3154.05
581.563,3111.5
581.73,3169.05
581.896,3162.35
582.063,3105.85
582.229,3137.65
582.395,3125.35
582.562,3114.95
582.728,3128.6
582.895,3124.85
583.061,3120.8
583.227,3136.0
583.394,3076.15
583.56,3138.4
583.726,3141.5
583.893,3125.6
584.059,3147.4
584.225,3108.0
584.391,3141.55
584.558,3096.45
584.724,3145.7
584.89,3137.35
585.057,3115.25
585.223,3125.0
585.389,3159.65
585.555,3104.15
585.722,3121.05
585.888,3120.6
586.054,3112.4
586.22,3121.4
586.386,3135.65
586.553,3134.85
586.719,3133.8
586.885,3128.3
587.051,3171.85
587.217,3150.6
587.384,3159.65
587.55,3168.65
587.716,3169.8
587.882,3183.3
588.048,3196.65
588.214,3212.4
588.38,3202.45
588.546,3186.5
588.713,3226.65
588.879,3205.85
589.045,3178.55
589.211,3158.9
589.377,3171.65
589.543,3214.8
589.709,3216.35
589.875,3178.7
590.041,3205.35
590.207,3210.85
590.373,3218.55
590.539,3184.8
590.705,3210.25
590.871,3205.7
591.037,3255.2
591.203,3240.5
591.369,3227.55
591.535,3228.0
591.701,3244.7
591.867,3257.4
592.033,3257.85
592.199,3229.9
592.365,3238.3
592.531,3238.05
592.697,3274.7
592.863,3265.65
593.029,3249.3
593.195,3252.35
593.361,3253.2
593.526,3247.95
593.692,3250.9
593.858,3256.3
594.024,3271.95
594.19,3276.85
594.356,3264.2
594.522,3258.7
594.687,3264.45
594.853,3269.2
595.019,3274.95
595.185,3252.85
595.351,3284.75
595.516,3339.9
595.682,3278.9
595.848,3293.1
596.014,3299.75
596.18,3312.9
596.345,3341.15
596.511,3313.4
596.677,3340.9
596.843,3345.45
597.008,3365.0
597.174,3365.1
597.34,3331.85
597.505,3344.5
597.671,3299.65
597.837,3366.0
598.002,3342.65
598.168,3418.15
598.334,3349.95
598.499,3348.55
598.665,3393.3
598.831,3393.2
598.996,3348.0
599.162,3438.4
599.328,3413.45
599.493,3410.6
599.659,3403.85
599.824,3408.1
599.99,3397.65
600.156,3411.5
600.321,3405.9
600.487,3439.1
600.652,3409.3
600.818,3403.4
600.983,3406.9
601.149,3399.45
601.314,3409.55
601.48,3402.05
601.645,3404.5
601.811,3424.2
601.976,3425.75
602.142,3401.05
602.307,3370.4
602.473,3412.45
602.638,3416.5
602.804,3369.8
602.969,3341.75
603.135,3341.05
603.3,3343.5
603.466,3316.6
603.631,3341.3
603.796,3334.35
603.962,3312.65
604.127,3317.1
604.293,3272.3
604.458,3281.5
604.623,3268.75
604.789,3281.15
604.954,3276.2
605.119,3264.5
605.285,3234.6
605.45,3211.15
605.615,3241.0
605.781,3210.25
605.946,3208.2
606.111,3225.05
606.277,3216.15
606.442,3197.65
606.607,3161.95
606.772,3156.85
606.938,3161.0
607.103,3137.8
607.268,3188.15
607.433,3161.1
607.599,3132.6
607.764,3124.45
607.929,3122.8
608.094,3127.6
608.259,3123.35
608.425,3110.75
608.59,3097.15
608.755,3092.05
608.92,3107.05
609.085,3114.2
609.25,3107.4
609.415,3097.4
609.581,3088.45
609.746,3075.95
609.911,3069.5
610.076,3067.4
610.241,3066.95
610.406,3097.7
610.571,3090.05
610.736,3046.7
610.901,3060.35
611.066,3092.25
611.231,3074.95
611.396,3050.7
611.561,3031.6
611.727,3032.85
611.892,3016.4
612.057,3015.35
612.222,3038.35
612.386,3018.25
612.551,3014.75
612.716,3030.55
612.881,2993.5
613.046,2982.55
613.211,3031.5
613.376,3002.25
613.541,3028.9
613.706,3017.55
613.871,2995.2
614.036,2985.7
614.201,3004.8
614.366,3019.45
614.531,2998.4
614.695,2988.0
614.86,2991.95
615.025,2983.3
615.19,2995.85
615.355,3027.7
615.52,3003.8
615.684,2975.25
615.849,3001.15
616.014,2982.0
616.179,3004.45
616.344,3003.75
616.508,2989.1
616.673,3024.1
616.838,2997.05
617.003,2984.6
617.168,2999.35
617.332,3034.6
617.497,2980.05
617.662,2996.15
617.826,3023.35
617.991,3030.25
618.156,3009.35
618.32,2990.2
618.485,3025.65
618.65,2991.7
618.814,3034.05
618.979,3020.45
619.144,3036.1
619.308,3020.3
619.473,3042.8
619.638,3054.1
619.802,3061.3
619.967,2972.35
620.131,3033.5
620.296,3016.95
620.461,3052.35
620.625,3057.75
620.79,3055.9
620.954,3038.05
621.119,3044.65
621.283,3114.25
621.448,3104.95
621.612,3085.75
621.777,3156.9
621.941,3195.9
622.106,3230.7
622.27,3226.9
622.435,3217.4
622.599,3170.7
622.764,3137.15
622.928,3080.85
623.093,3066.95
623.257,3031.8
623.422,3016.25
623.586,3034.45
623.75,2973.75
623.915,3008.05
624.079,2972.8
624.244,3004.5
624.408,3036.5
624.572,3001.0
624.737,2979.9
624.901,2977.8
625.065,3000.65
625.23,3040.7
625.394,3043.25
625.558,3022.0
625.723,3038.0
625.887,3099.5
626.051,3119.95
626.215,3146.35
626.38,3296.6
626.544,3515.1
626.708,4094.85
626.872,4853.45
627.037,5987.35
627.201,6622.9
627.365,6760.95
627.529,6350.95
627.693,5721.05
627.858,5451.0
628.022,5305.25
628.186,5650.0
628.35,6253.4
628.514,6912.05
628.678,6641.5
628.843,6012.35
629.007,5751.1
629.171,5553.7
629.335,5347.35
629.499,5136.9
629.663,4952.15
629.827,4732.25
629.991,4558.7
630.155,4668.45
630.319,4560.55
630.483,4476.45
630.647,4303.5
630.812,4111.65
630.976,3792.35
631.14,3526.3
631.304,3354.25
631.468,3262.2
631.632,3218.95
631.796,3188.95
631.959,3073.0
632.123,3045.55
632.287,3025.15
632.451,2972.7
632.615,2982.05
632.779,2988.8
632.943,2932.7
633.107,2964.45
633.271,2934.65
633.435,2905.35
633.599,2924.2
633.763,2894.0
633.926,2905.95
634.09,2892.5
634.254,2863.2
634.418,2871.5
634.582,2860.15
634.746,2866.5
634.909,2863.85
635.073,2846.1
635.237,2825.15
635.401,2845.9
635.564,2841.2
635.728,2798.2
635.892,2838.95
636.056,2837.6
636.219,2838.85
636.383,2809.65
636.547,2795.85
636.711,2806.85
636.874,2807.95
637.038,2830.2
637.202,2784.75
637.365,2780.3
637.529,2806.1
637.693,2790.55
637.856,2788.9
638.02,2784.85
638.184,2767.1
638.347,2791.45
638.511,2792.2
638.674,2801.3
638.838,2772.8
639.002,2748.35
639.165,2753.8
639.329,2800.85
639.492,2787.85
639.656,2771.75
639.819,2751.35
639.983,2736.35
640.146,2754.3
640.31,2781.05
640.473,2739.25
640.637,2747.15
640.8,2745.5
640.964,2736.75
641.127,2751.65
641.291,2758.3
641.454,2748.3
641.618,2731.65
641.781,2715.85
641.944,2748.25
642.108,2769.3
642.271,2706.4
642.435,2730.85
642.598,2745.1
642.761,2742.65
642.925,2737.05
643.088,2713.95
643.251,2720.75
643.415,2735.4
643.578,2717.15
643.741,2718.6
643.905,2712.05
644.068,2708.7
644.231,2719.6
644.394,2732.95
644.558,2713.3
644.721,2673.75
644.884,2699.15
645.047,2712.55
645.211,2733.65
645.374,2688.0
645.537,2690.05
645.7,2668.7
645.863,2712.4
646.027,2689.6
646.19,2685.15
646.353,2691.45
646.516,2681.75
646.679,2683.4
646.842,2663.6
647.005,2659.75
647.169,2658.5
647.332,2680.0
647.495,2670.05
647.658,2655.15
647.821,2663.85
647.984,2665.55
648.147,2665.4
648.31,2643.6
648.473,2651.1
648.636,2636.5
648.799,2636.9
648.962,2651.1
649.125,2658.5
649.288,2662.45
649.451,2625.4
649.614,2618.3
649.777,2630.65
649.94,2620.5
650.103,2627.95
650.266,2618.6
650.429,2626.75
650.592,2620.95
650.755,2597.7
650.918,2608.35
651.08,2620.75
651.243,2604.2
651.406,2610.25
651.569,2617.2
651.732,2581.3
651.895,2599.25
652.058,2589.7
652.22,2594.7
652.383,2580.95
652.546,2588.8
652.709,2584.9
652.872,2590.7
653.034,2576.15
653.197,2595.9
653.36,2565.4
653.523,2576.15
653.685,2528.25
653.848,2556.15
654.011,2560.75
654.173,2552.25
654.336,2525.9
654.499,2540.1
654.662,2545.95
654.824,2525.55
654.987,2542.75
655.149,2545.55
655.312,2545.15
655.475,2528.7
655.637,2513.0
655.8,2517.6
655.963,2519.15
656.125,2533.35
656.288,2492.8
656.45,2488.55
656.613,2498.65
656.775,2517.4
656.938,2507.35
657.1,2478.3
657.263,2468.75
657.425,2483.2
657.588,2483.05
657.75,2459.0
657.913,2468.9
658.075,2454.35
658.238,2453.3
658.4,2443.2
658.563,2447.8
658.725,2452.95
658.888,2442.15
659.05,2414.75
659.212,2427.5
659.375,2426.6
659.537,2420.25
659.7,2390.6
659.862,2387.35
660.024,2416.15
660.187,2406.6
660.349,2388.4
660.511,2381.25
660.674,2390.85
660.836,2369.2
660.998,2376.7
661.079,2371.6