File: spectra/VLFR_09-PET_bio_Raman_22dec369.csv
nm,Intensity
526.508,830.2
526.645,829.5
526.782,828.5
526.919,828.7
527.055,830.1
527.192,828.9
527.329,830.5
527.465,831.0
527.602,829.5
527.739,829.7
527.875,830.0
528.012,830.0
528.149,830.6
528.285,829.5
528.422,828.2
528.558,830.3
528.695,831.0
528.832,830.2
528.968,829.9
529.105,830.7
529.241,830.9
529.378,829.0
529.514,831.5
529.651,829.4
529.787,829.5
529.924,829.3
530.061,829.7
530.197,830.1
530.334,829.0
530.47,831.0
530.606,830.2
530.743,828.6
530.879,829.9
531.016,829.7
531.152,830.4
531.289,830.3
531.425,829.9
531.562,829.0
531.698,829.7
531.834,831.3
531.971,832.3
532.107,859.8
532.244,868.1
532.38,839.4
532.516,831.7
532.653,828.8
532.789,830.6
532.925,829.5
533.062,829.9
533.198,829.7
533.334,830.0
533.471,829.4
533.607,828.6
533.743,835.9
533.879,858.9
534.016,902.5
534.152,925.1
534.288,928.9
534.424,930.1
534.561,917.8
534.697,925.6
534.833,923.0
534.969,921.8
535.106,917.5
535.242,918.7
535.378,913.4
535.514,918.8
535.65,917.3
535.786,912.5
535.923,917.2
536.059,917.9
536.195,916.4
536.331,914.6
536.467,913.0
536.603,913.9
536.739,918.9
536.876,912.1
537.012,915.0
537.148,916.1
537.284,911.7
537.42,917.9
537.556,916.2
537.692,918.0
537.828,920.4
537.964,916.1
538.1,917.2
538.236,915.8
538.372,916.4
538.508,918.1
538.644,921.1
538.78,915.9
538.916,919.4
539.052,917.7
539.188,917.0
539.324,919.6
539.46,919.9
539.596,924.2
539.732,919.4
539.868,921.8
540.004,921.7
540.14,919.6
540.275,925.2
540.411,924.5
540.547,924.6
540.683,925.6
540.819,923.4
540.955,922.0
541.091,923.6
541.227,926.6
541.362,924.2
541.498,927.4
541.634,925.0
541.77,924.7
541.906,928.7
542.041,928.5
542.177,928.7
542.313,928.2
542.449,930.4
542.585,929.1
542.72,928.4
542.856,929.9
542.992,931.6
543.128,928.5
543.263,931.8
543.399,932.6
543.535,933.3
543.67,932.6
543.806,933.2
543.942,939.1
544.078,933.1
544.213,938.4
544.349,941.0
544.485,938.7
544.62,938.2
544.756,943.9
544.892,938.6
545.027,942.3
545.163,937.2
545.298,941.4
545.434,939.4
545.57,940.3
545.705,944.0
545.841,947.1
545.976,944.7
546.112,944.8
546.248,945.1
546.383,946.0
546.519,945.0
546.654,945.5
546.79,941.0
546.925,946.9
547.061,942.4
547.196,946.2
547.332,946.9
547.467,945.1
547.603,943.5
547.738,938.9
547.874,943.6
548.009,943.1
548.145,946.0
548.28,944.3
548.416,942.9
548.551,946.4
548.686,947.1
548.822,948.5
548.957,947.4
549.093,946.7
549.228,949.4
549.363,953.7
549.499,947.5
549.634,949.4
549.77,948.8
549.905,950.4
550.04,948.0
550.176,953.2
550.311,953.7
550.446,958.0
550.582,960.0
550.717,963.8
550.852,961.0
550.988,953.9
551.123,952.6
551.258,954.8
551.394,957.3
551.529,954.4
551.664,955.7
551.799,954.8
551.935,958.5
552.07,958.3
552.205,959.3
552.34,953.0
552.476,957.3
552.611,958.6
552.746,961.9
552.881,958.8
553.016,961.2
553.152,958.3
553.287,960.2
553.422,962.4
553.557,956.6
553.692,957.6
553.827,958.6
553.963,959.1
554.098,959.6
554.233,963.3
554.368,963.5
554.503,963.0
554.638,961.1
554.773,964.9
554.908,963.7
555.043,965.2
555.179,961.7
555.314,962.4
555.449,963.5
555.584,967.9
555.719,963.9
555.854,966.1
555.989,960.8
556.124,966.9
556.259,963.4
556.394,966.9
556.529,967.3
556.664,965.6
556.799,971.1
556.934,966.7
557.069,968.7
557.204,971.4
557.339,973.9
557.474,974.5
557.609,975.7
557.744,981.3
557.879,974.8
558.014,971.2
558.149,966.8
558.284,970.4
558.419,968.8
558.553,971.3
558.688,966.9
558.823,969.7
558.958,971.6
559.093,971.8
559.228,967.1
559.363,968.5
559.498,972.4
559.632,969.3
559.767,975.6
559.902,978.7
560.037,974.7
560.172,975.4
560.307,975.9
560.441,980.7
560.576,973.7
560.711,978.5
560.846,974.5
560.981,979.1
561.115,978.3
561.25,976.8
561.385,978.8
561.52,978.4
561.654,977.3
561.789,982.5
561.924,985.9
562.059,991.3
562.193,1005.2
562.328,1011.0
562.463,1029.5
562.598,1028.2
562.732,1001.6
562.867,991.4
563.002,983.6
563.136,983.5
563.271,984.3
563.406,986.5
563.54,983.5
563.675,986.5
563.81,986.4
563.944,986.1
564.079,984.2
564.213,985.0
564.348,989.7
564.483,989.2
564.617,986.1
564.752,991.9
564.887,995.9
565.021,994.7
565.156,995.3
565.29,988.1
565.425,989.4
565.559,992.8
565.694,997.2
565.828,995.4
565.963,993.0
566.098,993.5
566.232,994.5
566.367,991.9
566.501,995.7
566.636,994.9
566.77,993.5
566.905,993.4
567.039,989.3
567.174,990.5
567.308,995.9
567.443,993.1
567.577,990.5
567.711,998.8
567.846,997.6
567.98,997.7
568.115,993.7
568.249,993.2
568.384,992.2
568.518,996.3
568.652,994.1
568.787,997.0
568.921,997.0
569.056,993.8
569.19,994.3
569.324,998.9
569.459,1003.6
569.593,1000.3
569.727,997.2
569.862,1000.1
569.996,1002.5
570.131,1005.2
570.265,998.9
570.399,1002.5
570.534,999.9
570.668,1010.2
570.802,1009.3
570.936,1003.4
571.071,1016.2
571.205,1010.7
571.339,1012.3
571.474,1014.3
571.608,1015.0
571.742,1012.3
571.876,1008.2
572.011,1007.3
572.145,1006.8
572.279,1011.3
572.413,1016.2
572.548,1006.7
572.682,1012.9
572.816,1008.8
572.95,1013.1
573.084,1010.9
573.219,1012.5
573.353,1004.1
573.487,1010.1
573.621,1010.2
573.755,1011.3
573.889,1014.8
574.024,1013.0
574.158,1016.1
574.292,1016.1
574.426,1010.8
574.56,1019.7
574.694,1013.2
574.828,1016.9
574.963,1016.0
575.097,1010.3
575.231,1014.3
575.365,1018.2
575.499,1020.1
575.633,1019.4
575.767,1017.0
575.901,1017.7
576.035,1020.2
576.169,1022.1
576.303,1015.6
576.437,1016.9
576.571,1018.9
576.706,1019.2
576.84,1021.0
576.974,1022.8
577.108,1024.2
577.242,1027.0
577.376,1019.6
577.51,1021.4
577.644,1024.6
577.778,1022.7
577.912,1020.9
578.046,1018.0
578.179,1024.8
578.313,1022.5
578.447,1025.3
578.581,1026.7
578.715,1028.2
578.849,1026.8
578.983,1025.6
579.117,1023.5
579.251,1028.0
579.385,1031.0
579.519,1026.5
579.653,1029.2
579.787,1028.5
579.921,1029.6
580.054,1030.8
580.188,1025.1
580.322,1030.0
580.456,1032.8
580.59,1025.8
580.724,1029.5
580.858,1028.1
580.991,1028.4
581.125,1027.9
581.259,1027.8
581.393,1032.4
581.527,1034.0
581.661,1035.5
581.794,1037.7
581.928,1051.0
582.062,1062.5
582.196,1075.2
582.33,1066.2
582.463,1048.8
582.597,1040.1
582.731,1034.9
582.865,1038.3
582.998,1037.9
583.132,1037.7
583.266,1036.0
583.4,1033.2
583.533,1034.3
583.667,1037.8
583.801,1034.9
583.935,1035.4
584.068,1041.1
584.202,1043.4
584.336,1036.3
584.469,1044.0
584.603,1036.9
584.737,1041.1
584.87,1037.9
585.004,1036.3
585.138,1035.1
585.271,1035.2
585.405,1041.5
585.539,1041.3
585.672,1050.0
585.806,1055.9
585.94,1064.4
586.073,1066.5
586.207,1060.1
586.34,1058.9
586.474,1064.9
586.608,1054.6
586.741,1045.2
586.875,1046.5
587.008,1047.5
587.142,1048.3
587.276,1045.2
587.409,1050.0
587.543,1041.3
587.676,1042.5
587.81,1045.2
587.943,1041.5
588.077,1043.6
588.21,1049.8
588.344,1051.5
588.478,1046.0
588.611,1043.0
588.745,1038.3
588.878,1047.6
589.012,1042.0
589.145,1038.8
589.279,1043.6
589.412,1047.0
589.546,1041.2
589.679,1043.7
589.812,1042.3
589.946,1049.1
590.079,1044.6
590.213,1041.9
590.346,1050.5
590.48,1044.5
590.613,1042.6
590.747,1050.8
590.88,1043.7
591.013,1053.1
591.147,1051.0
591.28,1053.4
591.414,1050.0
591.547,1048.6
591.68,1049.3
591.814,1047.9
591.947,1051.5
592.081,1047.5
592.214,1051.1
592.347,1050.3
592.481,1051.8
592.614,1048.9
592.747,1047.1
592.881,1045.9
593.014,1049.6
593.147,1046.3
593.281,1048.4
593.414,1058.1
593.547,1049.7
593.681,1048.6
593.814,1053.6
593.947,1046.4
594.081,1049.5
594.214,1050.5
594.347,1048.0
594.48,1053.9
594.614,1051.3
594.747,1053.1
594.88,1053.1
595.014,1058.5
595.147,1061.4
595.28,1058.1
595.413,1056.0
595.547,1054.6
595.68,1053.8
595.813,1057.5
595.946,1059.2
596.079,1053.1
596.213,1055.4
596.346,1054.7
596.479,1050.9
596.612,1059.9
596.745,1060.2
596.879,1060.2
597.012,1052.7
597.145,1054.9
597.278,1059.9
597.411,1066.4
597.545,1057.4
597.678,1065.0
597.811,1060.1
597.944,1064.1
598.077,1063.0
598.21,1059.4
598.343,1064.7
598.476,1057.9
598.61,1068.9
598.743,1063.2
598.876,1064.7
599.009,1060.5
599.142,1068.3
599.275,1068.5
599.408,1067.2
599.541,1068.8
599.674,1067.6
599.807,1062.6
599.941,1066.9
600.074,1063.9
600.207,1066.8
600.34,1062.1
600.473,1063.8
600.606,1060.4
600.739,1059.5
600.872,1066.5
601.005,1064.5
601.138,1065.3
601.271,1066.3
601.404,1062.7
601.537,1064.4
601.67,1070.5
601.803,1067.3
601.936,1067.6
602.069,1065.9
602.202,1069.6
602.335,1068.7
602.468,1070.1
602.601,1061.9
602.734,1066.9
602.867,1063.9
603.0,1068.8
603.133,1074.3
603.266,1063.8
603.399,1067.4
603.532,1069.6
603.664,1071.2
603.797,1071.8
603.93,1066.8
604.063,1068.4
604.196,1068.6
604.329,1072.2
604.462,1067.4
604.595,1072.3
604.728,1072.8
604.861,1065.0
604.994,1067.8
605.126,1066.6
605.259,1070.3
605.392,1066.5
605.525,1065.4
605.658,1066.9
605.791,1060.7
605.924,1066.4
606.056,1061.5
606.189,1065.3
606.322,1070.1
606.455,1068.8
606.588,1068.6
606.721,1069.0
606.853,1063.7
606.986,1067.8
607.119,1069.9
607.252,1068.7
607.385,1065.3
607.517,1076.3
607.65,1064.2
607.783,1075.0
607.916,1063.5
608.049,1069.2
608.181,1079.1
608.314,1073.1
608.447,1075.7
608.58,1072.7
608.712,1073.0
608.845,1077.9
608.978,1078.9
609.111,1077.1
609.243,1081.1
609.376,1075.8
609.509,1074.7
609.641,1074.8
609.774,1081.6
609.907,1077.5
610.04,1076.7
610.172,1078.9
610.305,1075.0
610.438,1077.9
610.57,1079.4
610.703,1070.1
610.836,1079.8
610.968,1078.7
611.101,1080.9
611.234,1078.6
611.366,1081.7
611.499,1085.9
611.632,1087.4
611.764,1080.2
611.897,1083.4
612.03,1087.0
612.162,1084.8
612.295,1085.2
612.428,1091.3
612.56,1093.9
612.693,1092.7
612.825,1086.3
612.958,1090.6
613.091,1092.4
613.223,1091.7
613.356,1092.8
613.488,1088.8
613.621,1097.9
613.754,1097.1
613.886,1099.4
614.019,1098.6
614.151,1098.2
614.284,1101.4
614.416,1104.9
614.549,1098.5
614.681,1102.2
614.814,1098.4
614.947,1100.6
615.079,1097.6
615.212,1105.5
615.344,1100.8
615.477,1101.6
615.609,1097.7
615.742,1104.5
615.874,1101.0
616.007,1096.4
616.139,1101.2
616.272,1102.0
616.404,1104.8
616.537,1101.3
616.669,1098.8
616.802,1111.4
616.934,1105.2
617.067,1104.7
617.199,1102.6
617.332,1105.0
617.464,1105.3
617.596,1108.0
617.729,1105.8
617.861,1108.8
617.994,1116.3
618.126,1110.4
618.259,1107.5
618.391,1117.8
618.524,1118.8
618.656,1117.7
618.788,1112.3
618.921,1113.0
619.053,1117.3
619.186,1118.5
619.318,1112.4
619.45,1113.4
619.583,1111.3
619.715,1116.2
619.848,1116.3
619.98,1109.7
620.112,1119.9
620.245,1122.4
620.377,1117.0
620.509,1123.3
620.642,1125.5
620.774,1111.2
620.907,1117.3
621.039,1113.1
621.171,1112.5
621.304,1121.4
621.436,1117.5
621.568,1120.9
621.701,1120.3
621.833,1126.0
621.965,1126.1
622.097,1129.4
622.23,1129.2
622.362,1127.8
622.494,1128.3
622.627,1124.6
622.759,1123.5
622.891,1131.6
623.024,1127.9
623.156,1133.2
623.288,1134.1
623.42,1131.6
623.553,1134.6
623.685,1132.8
623.817,1132.4
623.949,1138.7
624.082,1133.8
624.214,1137.3
624.346,1142.7
624.479,1142.1
624.611,1136.6
624.743,1141.6
624.875,1138.9
625.007,1146.3
625.14,1145.6
625.272,1146.2
625.404,1137.0
625.536,1142.8
625.669,1142.4
625.801,1139.9
625.933,1144.0
626.065,1145.6
626.197,1150.8
626.33,1143.2
626.462,1143.3
626.594,1150.4
626.726,1144.1
626.858,1142.7
626.99,1143.9
627.123,1143.4
627.255,1142.5
627.387,1145.4
627.519,1147.7
627.651,1141.4
627.783,1154.2
627.916,1154.8
628.048,1162.3
628.18,1147.4
628.312,1148.7
628.444,1157.2
628.576,1152.0
628.708,1154.3
628.84,1156.0
628.973,1158.7
629.105,1157.4
629.237,1146.9
629.369,1153.4
629.501,1156.7
629.633,1160.2
629.765,1164.7
629.897,1155.8
630.029,1163.9
630.161,1160.8
630.294,1158.6
630.426,1160.7
630.558,1158.0
630.69,1168.5
630.822,1159.0
630.954,1166.3
631.086,1167.8
631.218,1169.0
631.35,1169.5
631.482,1165.0
631.614,1169.5
631.746,1176.1
631.878,1168.3
632.01,1169.9
632.142,1175.2
632.274,1171.9
632.406,1174.8
632.538,1164.3
632.67,1169.5
632.802,1179.2
632.934,1175.7
633.066,1170.3
633.198,1182.6
633.33,1174.8
633.462,1173.4
633.594,1174.7
633.726,1168.4
633.858,1178.9
633.99,1176.7
634.122,1170.8
634.254,1176.6
634.386,1177.7
634.518,1176.8
634.65,1180.9
634.782,1184.8
634.914,1175.2
635.046,1174.6
635.178,1180.5
635.31,1179.9
635.442,1172.8
635.574,1177.9
635.706,1184.9
635.838,1186.0
635.97,1190.5
636.102,1180.0
636.234,1194.1
636.365,1186.6
636.497,1196.4
636.629,1191.7
636.761,1187.9
636.893,1198.9
637.025,1190.7
637.157,1189.6
637.289,1184.8
637.421,1199.9
637.553,1193.1
637.685,1196.2
637.816,1193.8
637.948,1187.1
638.08,1185.8
638.212,1184.6
638.344,1196.7
638.476,1194.1
638.608,1188.3
638.74,1186.8
638.871,1195.2
639.003,1192.3
639.135,1195.6
639.267,1189.1
639.399,1189.3
639.531,1197.3
639.662,1195.5
639.794,1192.0
639.926,1194.8
640.058,1198.9
640.19,1198.5
640.322,1198.9
640.453,1196.8
640.585,1189.0
640.717,1199.3
640.849,1202.0
640.981,1201.5
641.113,1197.8
641.244,1202.5
641.376,1199.0
641.508,1198.8
641.64,1200.2
641.772,1204.4
641.903,1201.5
642.035,1197.3
642.167,1199.1
642.299,1198.5
642.43,1195.1
642.562,1200.7
642.694,1197.8
642.826,1202.6
642.958,1197.7
643.089,1208.2
643.221,1203.9
643.353,1200.8
643.485,1196.1
643.616,1199.6
643.748,1197.6
643.88,1196.7
644.012,1199.8
644.143,1201.1
644.275,1199.0
644.407,1195.5
644.538,1202.4
644.67,1196.1
644.802,1196.7
644.934,1200.4
645.065,1197.4
645.197,1202.3
645.329,1193.1
645.461,1202.3
645.592,1197.5
645.724,1193.6
645.856,1198.0
645.987,1197.2
646.119,1200.9
646.251,1199.2
646.382,1200.2
646.514,1199.0
646.646,1197.8
646.777,1203.2
646.909,1198.7
647.041,1196.5
647.172,1208.0
647.304,1200.7
647.436,1203.7
647.567,1204.3
647.699,1208.4
647.831,1203.9
647.962,1199.7
648.094,1201.9
648.226,1203.6
648.357,1206.1
648.489,1201.5
648.621,1207.1
648.752,1209.5
648.884,1204.8
649.016,1199.6
649.147,1196.5
649.279,1198.3
649.411,1201.1
649.542,1204.9
649.674,1197.0
649.805,1204.5
649.937,1203.7
650.069,1200.7
650.2,1206.2
650.332,1203.2
650.463,1203.4
650.595,1201.6
650.727,1200.9
650.858,1199.9
650.99,1198.6
651.121,1198.4
651.253,1200.6
651.385,1206.1
651.516,1197.6
651.648,1202.4
651.779,1202.6
651.911,1208.0
652.043,1198.7
652.174,1200.0
652.306,1205.8
652.437,1204.0
652.569,1200.7
652.7,1202.7
652.832,1207.3
652.963,1204.1
653.095,1205.7
653.227,1211.1
653.358,1205.3
653.49,1204.0
653.621,1211.0
653.753,1203.6
653.884,1214.6
654.016,1204.5
654.147,1209.2
654.279,1205.9
654.41,1206.2
654.542,1205.9
654.674,1210.7
654.805,1213.6
654.937,1207.2
655.068,1204.4
655.2,1208.1
655.331,1210.6
655.463,1198.9
655.594,1207.6
655.726,1208.2
655.857,1205.0
655.989,1208.0
656.12,1205.1
656.252,1207.9
656.383,1206.3
656.515,1202.2
656.646,1211.5
656.778,1204.2
656.909,1215.1
657.041,1212.6
657.172,1211.3
657.304,1206.6
657.435,1212.9
657.567,1218.8
657.698,1211.2
657.829,1209.4
657.961,1208.1
658.092,1211.8
658.224,1205.4
658.355,1210.5
658.487,1211.1
658.618,1214.4
658.75,1212.1
658.881,1209.9
659.013,1216.2
659.144,1210.0
659.275,1213.0
659.407,1212.5
659.538,1214.7
659.67,1208.6
659.801,1215.6
659.933,1211.9
660.064,1213.6
660.196,1215.7
660.327,1211.3
660.458,1214.1
660.59,1211.5
660.721,1206.7
660.853,1216.0
660.984,1204.6
661.116,1207.2
661.247,1205.1
661.378,1214.9
661.51,1202.0
661.641,1198.4
661.773,1210.2
661.904,1207.5
662.035,1203.0
662.167,1206.1
662.298,1198.8
662.43,1203.1
662.561,1210.5
662.692,1211.7
662.824,1203.6
662.955,1201.3
663.087,1204.2