File: spectra/VLFR_06-PET_nobio_Raman_acc5168f.csv
cm-1,Intensity
-123.878,1855.55
-117.855,1857.9
-111.836,1858.3
-105.821,1856.6
-99.8104,1856.85
-93.8036,1856.95
-87.8007,1856.9
-81.8019,1856.25
-75.807,1856.65
-69.8161,1856.25
-63.8293,1857.95
-57.8464,1857.7
-51.8675,1857.55
-45.8926,1858.7
-39.9216,1858.05
-33.9547,1862.55
-27.9917,1862.95
-22.0326,1868.25
-16.0776,1918.55
-10.1265,2486.9
-4.17932,4569.6
1.76388,3802.9
7.70313,2030.55
13.6384,1864.3
19.5698,1861.25
25.4972,1863.35
31.4207,1865.2
37.3403,1869.7
43.256,1896.75
49.1677,2124.7
55.0755,3519.65
60.9794,5934.5
66.8794,7176.9
72.7754,7081.85
78.6676,6594.45
84.5559,6023.35
90.4402,5752.8
96.3207,5297.9
102.197,4896.1
108.07,4465.0
113.939,4199.25
119.804,3854.8
125.665,3553.3
131.522,3369.1
137.375,3149.35
143.225,3017.5
149.07,2957.1
154.912,2890.45
160.75,2812.8
166.584,2780.7
172.414,2741.75
178.241,2716.85
184.063,2707.6
189.882,2688.05
195.697,2682.15
201.508,2722.25
207.315,2684.4
213.119,2699.05
218.918,2700.8
224.714,2732.0
230.506,2705.8
236.294,2711.55
242.078,2751.35
247.859,2756.3
253.636,2820.6
259.409,2843.1
265.178,2879.8
270.943,2866.15
276.705,2833.65
282.463,2771.4
288.217,2708.5
293.967,2679.1
299.713,2623.55
305.456,2620.25
311.195,2595.75
316.93,2586.85
322.662,2576.1
328.389,2588.0
334.113,2589.6
339.834,2576.6
345.55,2597.3
351.263,2589.2
356.972,2580.0
362.677,2620.15
368.379,2606.95
374.077,2583.3
379.771,2619.85
385.461,2593.25
391.148,2603.95
396.831,2615.25
402.51,2648.9
408.186,2676.0
413.858,2646.5
419.526,2621.95
425.19,2633.05
430.851,2650.55
436.508,2648.85
442.162,2634.0
447.811,2645.45
453.458,2664.55
459.1,2658.0
464.739,2659.5
470.374,2669.25
476.005,2674.4
481.633,2685.35
487.257,2651.0
492.878,2663.05
498.494,2670.05
504.107,2690.25
509.717,2671.3
515.323,2698.2
520.925,2692.35
526.524,2706.9
532.119,2708.35
537.71,2717.1
543.298,2722.4
548.882,2750.8
554.462,2755.1
560.039,2748.35
565.613,2741.6
571.182,2734.7
576.748,2759.65
582.311,2710.75
587.87,2741.55
593.425,2744.7
598.977,2753.35
604.525,2764.65
610.069,2768.45
615.61,2798.95
621.148,2917.75
626.682,3325.5
632.212,3676.55
637.739,3241.45
643.262,2859.15
648.781,2829.5
654.297,2848.85
659.81,2848.15
665.319,2845.2
670.824,2850.3
676.326,2881.15
681.824,2878.15
687.319,2885.45
692.81,2916.05
698.298,3108.5
703.782,3181.6
709.262,3084.05
714.739,2940.85
720.213,2908.4
725.683,2919.75
731.15,2958.3
736.613,2938.05
742.072,2928.75
747.528,2917.55
752.981,2951.05
758.43,2974.1
763.875,2987.55
769.317,3015.7
774.756,3005.7
780.191,3109.15
785.623,3173.45
791.051,3354.1
796.475,3431.55
801.897,3402.75
807.314,3404.35
812.729,3461.5
818.139,3470.1
823.547,3446.05
828.951,3520.75
834.351,3530.65
839.748,3621.15
845.142,3957.3
850.532,4355.0
855.918,4571.0
861.302,4393.3
866.681,3845.0
872.058,3669.6
877.431,3708.4
882.8,3714.2
888.166,3646.75
893.529,3565.7
898.888,3461.05
904.244,3424.1
909.596,3298.55
914.945,3228.95
920.291,3246.55
925.633,3231.3
930.972,3212.55
936.308,3253.0
941.64,3200.1
946.968,3230.9
952.294,3220.4
957.615,3257.95
962.934,3275.75
968.249,3269.75
973.561,3302.95
978.869,3345.35
984.174,3366.9
989.476,3376.9
994.774,3392.05
1000.07,3441.1
1005.36,3441.45
1010.65,3446.85
1015.93,3494.85
1021.22,3531.4
1026.49,3560.95
1031.77,3574.9
1037.04,3543.25
1042.31,3518.5
1047.57,3503.25
1052.83,3478.4
1058.09,3453.2
1063.35,3470.55
1068.6,3499.15
1073.85,3506.15
1079.09,3593.45
1084.33,3687.95
1089.57,3859.4
1094.81,4009.1
1100.04,4136.65
1105.27,4278.9
1110.49,4327.55
1115.71,4452.35
1120.93,4457.3
1126.15,4305.3
1131.36,4025.3
1136.57,3802.9
1141.77,3670.1
1146.98,3627.25
1152.18,3589.9
1157.37,3579.95
1162.56,3652.7
1167.75,3865.7
1172.94,4050.15
1178.12,4153.0
1183.3,3963.6
1188.48,3757.6
1193.65,3684.45
1198.82,3637.15
1203.99,3636.45
1209.15,3654.5
1214.31,3615.4
1219.46,3641.15
1224.62,3674.7
1229.77,3704.45
1234.92,3787.3
1240.06,3875.4
1245.2,3917.4
1250.34,3984.05
1255.47,4052.95
1260.6,4317.25
1265.73,4595.7
1270.85,4834.0
1275.97,5154.75
1281.09,5556.55
1286.21,5822.7
1291.32,5797.35
1296.43,5442.25
1301.53,4917.55
1306.63,4798.15
1311.73,4597.7
1316.83,4337.95
1321.92,4121.8
1327.01,4009.9
1332.1,3941.65
1337.18,3911.0
1342.26,3899.85
1347.34,3900.75
1352.41,3881.6
1357.48,3909.2
1362.55,3911.5
1367.61,4050.8
1372.67,4080.3
1377.73,4048.05
1382.78,3959.7
1387.84,3917.1
1392.88,3960.65
1397.93,4065.9
1402.97,4139.4
1408.01,4205.5
1413.05,4301.55
1418.08,4155.3
1423.11,4018.15
1428.14,4056.2
1433.16,4199.35
1438.18,4250.55
1443.2,4292.1
1448.21,4325.1
1453.22,4361.05
1458.23,4321.7
1463.23,4218.15
1468.23,4196.95
1473.23,4124.45
1478.23,4046.15
1483.22,4031.4
1488.21,4052.55
1493.2,4027.0
1498.18,4072.8
1503.16,4054.8
1508.14,4051.5
1513.11,4039.7
1518.08,4083.8
1523.05,4087.6
1528.01,4097.6
1532.97,4112.3
1537.93,4135.9
1542.89,4118.95
1547.84,4164.1
1552.79,4212.75
1557.73,4204.6
1562.68,4228.4
1567.62,4259.0
1572.56,4342.95
1577.49,4374.55
1582.42,4387.5
1587.35,4409.2
1592.27,4561.95
1597.19,5059.3
1602.11,6046.55
1607.03,8319.3
1611.94,11150.7
1616.85,11058.2
1621.76,7519.9
1626.66,5242.55
1631.56,4665.45
1636.46,4444.05
1641.36,4405.3
1646.25,4420.15
1651.14,4353.5
1656.02,4332.0
1660.9,4402.0
1665.78,4394.65
1670.66,4366.55
1675.54,4428.55
1680.41,4390.7
1685.27,4488.7
1690.14,4547.4
1695.0,4587.1
1699.86,4675.65
1704.71,4931.8
1709.57,5587.45
1714.42,6752.1
1719.26,7890.9
1724.11,8455.2
1728.95,8626.65
1733.79,7866.05
1738.62,7004.75
1743.46,6023.05
1748.28,5343.85
1753.11,4907.0
1757.93,4682.6
1762.75,4634.1
1767.57,4560.1
1772.39,4504.85
1777.2,4578.65
1782.01,4526.65
1786.81,4539.1
1791.62,4586.05
1796.41,4510.25
1801.21,4474.75
1806.01,4501.9
1810.8,4550.8
1815.59,4523.2
1820.37,4509.05
1825.15,4505.95
1829.93,4429.4
1834.71,4539.85
1839.48,4494.6
1844.25,4518.35
1849.02,4492.5
1853.79,4458.9
1858.55,4510.45
1863.31,4545.45
1868.06,4525.45
1872.82,4517.45
1877.57,4556.05
1882.31,4497.9
1887.06,4535.9
1891.8,4563.85
1896.54,4591.15
1901.28,4586.7
1906.01,4589.0
1910.74,4599.25
1915.47,4563.6
1920.19,4544.5
1924.91,4573.35
1929.63,4519.1
1934.35,4572.75
1939.06,4610.55
1943.77,4596.85
1948.48,4560.7
1953.19,4556.7
1957.89,4655.35
1962.59,4546.3
1967.28,4686.4
1971.98,4499.9
1976.67,4657.65
1981.35,4656.25
1986.04,4638.65
1990.72,4631.5
1995.4,4628.45
2000.08,4667.6
2004.75,4636.05
2009.42,4651.5
2014.09,4658.05
2018.75,4655.3
2023.42,4671.35
2028.08,4665.2
2032.73,4690.15
2037.39,4757.8
2042.04,4647.15
2046.69,4659.5
2051.33,4673.95
2055.97,4681.25
2060.61,4686.55
2065.25,4641.7
2069.88,4736.75
2074.52,4709.35
2079.15,4708.45
2083.77,4647.25
2088.39,4697.8
2093.01,4741.75
2097.63,4691.7
2102.25,4729.75
2106.86,4709.9
2111.47,4723.95
2116.08,4682.95
2120.68,4792.2
2125.28,4681.45
2129.88,4730.6
2134.47,4747.9
2139.07,4723.9
2143.66,4779.1
2148.24,4679.55
2152.83,4739.0
2157.41,4768.5
2161.99,4768.15
2166.57,4677.25
2171.14,4688.85
2175.71,4735.55
2180.28,4780.7
2184.84,4726.4
2189.41,4835.6
2193.97,4737.3
2198.52,4694.15
2203.08,4798.4
2207.63,4736.5
2212.18,4729.95
2216.73,4726.9
2221.27,4738.35
2225.81,4819.45
2230.35,4721.7
2234.89,4754.9
2239.42,4675.95
2243.95,4799.85
2248.48,4790.0
2253.0,4780.55
2257.52,4763.65
2262.04,4674.7
2266.56,4782.25
2271.07,4677.6
2275.58,4787.45
2280.09,4722.9
2284.6,4822.25
2289.1,4702.7
2293.6,4744.85
2298.1,4703.85
2302.6,4802.2
2307.09,4753.35
2311.58,4785.3
2316.07,4770.55
2320.55,4855.7
2325.03,4736.35
2329.51,4690.15
2333.99,4764.15
2338.46,4806.4
2342.93,4713.75
2347.4,4729.7
2351.87,4800.85
2356.33,4724.65
2360.79,4726.15
2365.25,4810.55
2369.71,4784.35
2374.16,4763.8
2378.61,4778.35
2383.06,4755.3
2387.5,4836.6
2391.94,4722.15
2396.38,4700.7
2400.82,4803.25
2405.26,4808.2
2409.69,4806.9
2414.12,4792.05
2418.54,4783.9
2422.97,4753.6
2427.39,4730.6
2431.81,4761.6
2436.22,4768.7
2440.64,4775.55
2445.05,4798.35
2449.46,4757.75
2453.86,4732.85
2458.27,4745.25
2462.67,4819.5
2467.06,4823.3
2471.46,4747.4
2475.85,4758.4
2480.24,4810.45
2484.63,4785.3
2489.02,4783.65
2493.4,4856.1
2497.78,4811.6
2502.16,4813.0
2506.53,4718.5
2510.9,4797.65
2515.27,4872.15
2519.64,4857.4
2524.0,4870.15
2528.37,4787.5
2532.73,4811.7
2537.08,4752.2
2541.44,4834.95
2545.79,4867.65
2550.14,4842.5
2554.48,4765.15
2558.83,4807.25
2563.17,4892.85
2567.51,4800.15
2571.85,4858.1
2576.18,4923.75
2580.51,4792.2
2584.84,4732.0
2589.17,4910.95
2593.49,4866.8
2597.81,4943.65
2602.13,4832.85
2606.45,4927.85
2610.76,4967.3
2615.07,4912.3
2619.38,4948.05
2623.69,4925.3
2627.99,4846.5
2632.29,4953.5
2636.59,4996.95
2640.89,4862.9
2645.18,4837.25
2649.47,4970.7
2653.76,4881.1
2658.05,4853.4
2662.33,4879.9
2666.61,4906.8
2670.89,4897.55
2675.17,4828.35
2679.44,4880.45
2683.71,4953.15
2687.98,4852.75
2692.25,4893.2
2696.51,4898.2
2700.77,4892.0
2705.03,4900.8
2709.29,4917.15
2713.54,4942.1
2717.79,4870.5
2722.04,4872.1
2726.29,4853.85
2730.53,4930.25
2734.77,5007.7
2739.01,4974.45
2743.25,4929.9
2747.48,5002.55
2751.71,5047.55
2755.94,4955.65
2760.17,4935.1
2764.39,5029.4
2768.61,5000.95
2772.83,4974.65
2777.05,5078.05
2781.27,5062.35
2785.48,5034.55
2789.69,5014.1
2793.89,5063.6
2798.1,5185.45
2802.3,5003.4
2806.5,4957.05
2810.7,5140.2
2814.89,5068.7
2819.09,5055.1
2823.28,5062.5
2827.46,5077.4
2831.65,5054.55
2835.83,5045.85
2840.01,5019.5
2844.19,5077.25
2848.37,5124.25
2852.54,5200.75
2856.71,5049.5
2860.88,5094.0
2865.05,5150.4
2869.21,5262.4
2873.37,5203.6
2877.53,5241.7
2881.69,5287.25
2885.84,5457.75
2889.99,5355.4
2894.14,5408.0
2898.29,5435.0
2902.43,5467.6
2906.58,5515.05
2910.72,5473.75
2914.85,5417.0
2918.99,5420.6
2923.12,5404.45
2927.25,5293.25
2931.38,5399.7
2935.5,5470.5
2939.63,5575.3
2943.75,5912.3
2947.87,6099.95
2951.98,6206.15
2956.1,6550.3
2960.21,6739.85
2964.32,6666.0
2968.42,6677.9
2972.53,6600.45
2976.63,6270.2
2980.73,6200.1
2984.83,6136.35
2988.92,6057.4
2993.01,6067.0
2997.1,6054.3
3001.19,5950.15
3005.28,5952.45
3009.36,5893.65
3013.44,5884.55
3017.52,5759.6
3021.6,5795.65
3025.67,5786.55
3029.74,5746.95
3033.81,5711.1
3037.88,5654.95
3041.94,5621.0
3046.01,5647.1
3050.07,5705.9
3054.12,5742.0
3058.18,5975.6
3062.23,5929.8
3066.28,6237.0
3070.33,6651.5
3074.38,6697.65
3078.42,6999.15
3082.46,7337.8
3086.5,7094.15
3090.54,6711.65
3094.57,6395.95
3098.6,6165.7
3102.63,5977.5
3106.66,5845.25
3110.69,5831.15
3114.71,5853.45
3118.73,5827.85
3122.75,5784.9
3126.77,5729.05
3130.78,5791.35
3134.79,5746.7
3138.8,5791.9
3142.81,5750.75
3146.81,5711.8
3150.82,5781.75
3154.82,5738.55
3158.81,5737.5
3162.81,5675.2
3166.8,5777.25
3170.79,5831.2
3174.78,5756.95
3178.77,5788.05
3182.75,5593.05
3186.74,5717.9
3190.72,5669.65
3194.69,5808.75
3198.67,5758.5
3202.64,5838.8
3206.61,5824.2
3210.58,5752.65
3214.55,5783.2
3218.51,5848.35
3222.47,5876.45
3226.43,5944.4
3230.39,5871.1
3234.35,5905.15
3238.3,5901.6
3242.25,5782.45
3246.2,5851.9
3250.15,5827.65
3254.09,5826.5
3258.03,5914.15
3261.97,5837.05
3265.91,5814.45
3269.84,5812.45
3273.78,5790.6
3277.71,5943.65
3281.64,5774.2
3285.56,5761.8
3289.49,5828.55
3293.41,6000.65
3297.33,5907.75
3301.25,5816.85
3305.16,5838.3
3309.07,5769.95
3312.99,5778.15
3316.89,5858.8
3320.8,5992.55
3324.7,5798.05
3328.61,5831.55
3332.51,5794.45
3336.4,5870.95
3340.3,5874.15
3344.19,6022.9
3348.08,5815.1
3351.97,5828.3
3355.86,5860.45
3359.74,5815.25
3363.63,5814.4
3367.51,5924.6
3371.39,5661.15
3375.26,5856.95
3379.13,5908.9
3383.01,5891.05
3386.88,5749.6
3390.74,5782.1
3394.61,5744.6
3398.47,5769.2
3402.33,5847.75
3406.19,5787.35
3410.05,5824.95
3413.9,5756.8
3417.75,5866.55
3421.6,5796.9
3425.45,5749.3
3429.3,5707.75
3433.14,5700.25
3436.98,5831.15
3440.82,5643.15
3444.66,5720.5
3448.49,5848.9
3452.32,5790.9
3456.15,5835.05
3459.98,5673.8
3463.81,5665.35
3467.63,5635.45
3471.46,5879.0
3475.28,5760.4
3479.09,5815.5
3482.91,5660.0
3486.72,5662.45
3490.53,5700.1
3494.34,5683.9
3498.15,5526.6
3501.96,5620.95
3505.76,5587.65
3509.56,5603.1
3513.36,5690.1
3517.15,5516.7
3520.95,5500.75
3524.74,5666.05
3528.53,5520.65
3532.32,5583.4
3536.11,5624.2
3539.89,5571.9
3543.67,5694.2
3547.45,5494.8
3551.23,5585.0
3555.0,5622.25
3558.78,5500.4
3562.55,5540.4
3566.32,5413.9
3570.09,5486.5
3573.85,5466.2
3577.61,5491.6
3581.37,5426.15
3585.13,5413.35
3588.89,5391.4
3592.64,5426.1
3596.4,5469.8
3600.15,5347.5
3603.9,5377.9
3607.64,5310.4
3611.39,5440.1
3615.13,5543.4
3618.87,5251.8
3622.61,5225.3
3626.34,5233.15
3630.08,5196.0
3633.81,5217.75
3637.54,5342.95
3641.27,5205.2
3644.99,5125.5
3648.72,5156.65
3652.44,5113.9
3656.16,5148.8
3659.87,5256.95
3663.59,5201.55
3665.45,5286.55