File: spectra/VLFR_09-PET_bio_Raman_48d71573.csv
nm,Intensity
528.626,1863.3
528.795,1862.0
528.963,1862.2
529.132,1864.2
529.3,1864.2
529.469,1863.8
529.637,1864.2
529.806,1863.6
529.974,1863.5
530.143,1863.9
530.311,1864.5
530.48,1863.6
530.648,1865.0
530.816,1864.1
530.985,1865.8
531.153,1866.4
531.322,1867.3
531.49,1873.4
531.658,1896.5
531.827,2347.0
531.995,4588.2
532.164,4093.7
532.332,2187.8
532.5,1867.8
532.669,1864.6
532.837,1864.9
533.006,1864.0
533.174,1866.1
533.342,1866.4
533.511,1870.1
533.679,1901.5
533.847,1973.3
534.016,2028.5
534.184,2051.1
534.352,2058.0
534.521,2047.5
534.689,2063.2
534.857,2066.3
535.025,2066.8
535.194,2082.1
535.362,2086.5
535.53,2093.4
535.699,2097.2
535.867,2078.3
536.035,2092.8
536.203,2085.0
536.372,2089.9
536.54,2079.7
536.708,2081.3
536.876,2084.0
537.044,2086.8
537.213,2093.2
537.381,2093.7
537.549,2097.3
537.717,2101.6
537.885,2104.3
538.054,2093.1
538.222,2091.3
538.39,2094.9
538.558,2106.4
538.726,2096.9
538.894,2108.0
539.063,2102.1
539.231,2091.3
539.399,2114.4
539.567,2114.9
539.735,2113.3
539.903,2110.5
540.071,2128.9
540.239,2124.6
540.408,2101.4
540.576,2125.2
540.744,2116.0
540.912,2122.3
541.08,2127.1
541.248,2135.1
541.416,2128.1
541.584,2118.8
541.752,2137.9
541.92,2141.9
542.088,2122.8
542.256,2150.3
542.424,2136.0
542.592,2134.9
542.76,2151.2
542.928,2134.0
543.096,2140.6
543.264,2137.3
543.432,2134.7
543.6,2142.4
543.768,2156.9
543.936,2155.5
544.104,2151.6
544.272,2149.8
544.44,2151.6
544.608,2144.1
544.776,2163.2
544.944,2165.6
545.112,2156.3
545.28,2158.2
545.448,2142.5
545.616,2160.0
545.784,2162.7
545.951,2166.6
546.119,2165.5
546.287,2154.1
546.455,2162.4
546.623,2166.4
546.791,2175.1
546.959,2167.2
547.127,2182.2
547.294,2173.7
547.462,2172.9
547.63,2163.9
547.798,2166.8
547.966,2173.1
548.134,2176.5
548.301,2179.7
548.469,2188.4
548.637,2174.9
548.805,2168.8
548.972,2198.4
549.14,2199.0
549.308,2182.6
549.476,2202.5
549.644,2180.8
549.811,2181.6
549.979,2192.4
550.147,2195.2
550.315,2184.8
550.482,2192.3
550.65,2175.1
550.818,2206.2
550.985,2204.0
551.153,2191.8
551.321,2201.4
551.488,2197.3
551.656,2200.2
551.824,2210.5
551.991,2208.6
552.159,2205.3
552.327,2205.0
552.494,2188.5
552.662,2187.8
552.83,2194.7
552.997,2219.1
553.165,2207.1
553.333,2207.2
553.5,2202.2
553.668,2217.7
553.835,2209.5
554.003,2198.1
554.171,2202.3
554.338,2221.8
554.506,2218.1
554.673,2226.1
554.841,2216.2
555.008,2228.0
555.176,2222.4
555.343,2229.8
555.511,2224.5
555.679,2222.3
555.846,2227.9
556.014,2251.3
556.181,2226.9
556.349,2222.0
556.516,2242.0
556.684,2223.4
556.851,2233.3
557.018,2229.4
557.186,2229.5
557.353,2230.3
557.521,2233.3
557.688,2224.2
557.856,2237.9
558.023,2223.2
558.191,2236.2
558.358,2244.0
558.525,2237.3
558.693,2228.2
558.86,2226.4
559.028,2238.3
559.195,2229.9
559.362,2231.9
559.53,2246.7
559.697,2250.1
559.864,2242.3
560.032,2236.6
560.199,2237.0
560.366,2255.1
560.534,2243.8
560.701,2252.2
560.868,2250.1
561.036,2247.1
561.203,2267.9
561.37,2255.5
561.538,2233.0
561.705,2258.1
561.872,2255.6
562.039,2258.1
562.207,2242.8
562.374,2253.8
562.541,2263.0
562.708,2259.3
562.876,2267.4
563.043,2270.3
563.21,2260.9
563.377,2264.2
563.545,2254.7
563.712,2250.4
563.879,2270.8
564.046,2258.3
564.213,2280.4
564.38,2261.9
564.548,2259.9
564.715,2279.8
564.882,2272.1
565.049,2265.9
565.216,2286.9
565.383,2272.8
565.551,2273.8
565.718,2246.8
565.885,2261.0
566.052,2267.5
566.219,2276.6
566.386,2291.2
566.553,2277.1
566.72,2270.0
566.887,2280.4
567.054,2271.2
567.221,2282.8
567.388,2270.2
567.555,2269.9
567.722,2282.2
567.889,2291.2
568.057,2276.9
568.224,2293.6
568.391,2286.9
568.558,2281.2
568.725,2276.9
568.892,2287.4
569.058,2274.8
569.225,2280.2
569.392,2283.5
569.559,2301.7
569.726,2281.4
569.893,2292.3
570.06,2293.0
570.227,2296.4
570.394,2286.7
570.561,2280.9
570.728,2267.6
570.895,2275.7
571.062,2281.3
571.229,2289.1
571.395,2307.3
571.562,2308.5
571.729,2299.8
571.896,2315.3
572.063,2313.5
572.23,2316.3
572.397,2309.5
572.563,2319.3
572.73,2300.4
572.897,2299.1
573.064,2304.0
573.231,2318.3
573.397,2307.8
573.564,2307.1
573.731,2301.2
573.898,2306.1
574.064,2311.6
574.231,2291.2
574.398,2300.9
574.565,2306.2
574.731,2314.1
574.898,2312.5
575.065,2316.4
575.232,2298.3
575.398,2314.1
575.565,2302.2
575.732,2329.7
575.898,2302.3
576.065,2329.7
576.232,2313.2
576.398,2317.5
576.565,2324.1
576.732,2328.1
576.898,2308.4
577.065,2310.7
577.232,2321.8
577.398,2317.6
577.565,2310.1
577.731,2315.6
577.898,2312.2
578.065,2311.3
578.231,2315.3
578.398,2309.2
578.564,2308.0
578.731,2306.0
578.897,2316.1
579.064,2316.8
579.23,2310.2
579.397,2316.8
579.563,2325.7
579.73,2319.5
579.896,2337.1
580.063,2319.1
580.229,2317.8
580.396,2316.4
580.562,2317.7
580.729,2326.9
580.895,2326.3
581.062,2323.3
581.228,2339.7
581.395,2329.9
581.561,2339.2
581.728,2336.8
581.894,2343.7
582.06,2347.3
582.227,2354.3
582.393,2337.3
582.56,2332.0
582.726,2344.6
582.892,2324.7
583.059,2331.6
583.225,2338.5
583.391,2343.1
583.558,2315.0
583.724,2333.8
583.89,2341.1
584.057,2340.7
584.223,2334.2
584.389,2328.4
584.556,2322.2
584.722,2338.1
584.888,2335.3
585.054,2331.0
585.221,2333.2
585.387,2329.2
585.553,2328.4
585.719,2323.3
585.886,2345.6
586.052,2341.0
586.218,2337.3
586.384,2326.1
586.55,2334.0
586.717,2334.9
586.883,2324.4
587.049,2322.8
587.215,2334.0
587.381,2326.1
587.548,2348.7
587.714,2351.6
587.88,2332.8
588.046,2327.1
588.212,2329.3
588.378,2311.1
588.544,2318.2
588.71,2328.5
588.876,2307.3
589.043,2310.9
589.209,2319.3
589.375,2324.4
589.541,2306.4
589.707,2310.6
589.873,2316.7
590.039,2310.2
590.205,2321.9
590.371,2330.6
590.537,2316.9
590.703,2328.8
590.869,2332.4
591.035,2323.3
591.201,2328.6
591.367,2337.1
591.533,2317.6
591.699,2321.0
591.865,2318.4
592.031,2334.5
592.197,2344.8
592.363,2326.6
592.529,2325.5
592.694,2341.5
592.86,2353.7
593.026,2319.4
593.192,2331.7
593.358,2327.9
593.524,2330.4
593.69,2335.3
593.856,2320.9
594.021,2321.7
594.187,2318.6
594.353,2326.4
594.519,2328.6
594.685,2333.9
594.851,2333.7
595.016,2318.6
595.182,2341.9
595.348,2327.5
595.514,2329.2
595.68,2331.4
595.845,2337.6
596.011,2342.1
596.177,2336.4
596.342,2318.5
596.508,2325.8
596.674,2317.4
596.84,2323.3
597.005,2319.1
597.171,2340.1
597.337,2318.5
597.502,2326.8
597.668,2309.2
597.834,2325.2
597.999,2329.4
598.165,2340.7
598.331,2339.8
598.496,2333.3
598.662,2310.4
598.828,2334.2
598.993,2327.6
599.159,2321.2
599.324,2333.2
599.49,2338.0
599.656,2334.7
599.821,2339.7
599.987,2341.1
600.152,2320.8
600.318,2323.1
600.483,2324.4
600.649,2327.2
600.814,2346.9
600.98,2347.1
601.145,2338.8
601.311,2327.7
601.476,2339.4
601.642,2329.4
601.807,2327.6
601.973,2331.9
602.138,2334.7
602.304,2341.7
602.469,2326.7
602.635,2324.5
602.8,2328.5
602.965,2336.6
603.131,2338.1
603.296,2352.3
603.462,2351.7
603.627,2337.6
603.792,2329.8
603.958,2335.8
604.123,2344.0
604.288,2326.3
604.454,2340.1
604.619,2329.1
604.784,2330.3
604.95,2340.1
605.115,2323.5
605.28,2326.0
605.446,2330.9
605.611,2330.5
605.776,2339.2
605.941,2332.1
606.107,2320.9
606.272,2330.7
606.437,2316.6
606.602,2320.9
606.767,2337.0
606.933,2352.0
607.098,2330.2
607.263,2344.1
607.428,2329.0
607.593,2324.4
607.759,2340.3
607.924,2326.1
608.089,2334.7
608.254,2327.9
608.419,2316.3
608.584,2327.2
608.749,2334.1
608.915,2325.8
609.08,2332.8
609.245,2342.8
609.41,2314.4
609.575,2335.9
609.74,2329.6
609.905,2328.3
610.07,2319.7
610.235,2310.4
610.4,2324.6
610.565,2339.5
610.73,2331.2
610.895,2348.2
611.06,2322.3
611.225,2340.7
611.39,2338.0
611.555,2318.2
611.72,2329.9
611.885,2326.0
612.05,2348.0
612.215,2312.5
612.38,2332.1
612.545,2345.4
612.71,2330.0
612.875,2308.8
613.04,2323.9
613.204,2332.4
613.369,2328.7
613.534,2331.0
613.699,2308.1
613.864,2333.0
614.029,2338.0
614.194,2319.4
614.358,2332.5
614.523,2333.8
614.688,2341.4
614.853,2323.9
615.018,2340.2
615.182,2323.6
615.347,2332.8
615.512,2319.6
615.677,2318.3
615.841,2337.5
616.006,2316.8
616.171,2314.9
616.336,2337.0
616.5,2336.8
616.665,2335.1
616.83,2319.6
616.994,2316.0
617.159,2333.4
617.324,2330.0
617.489,2335.6
617.653,2347.2
617.818,2318.6
617.982,2335.0
618.147,2321.7
618.312,2335.8
618.476,2343.8
618.641,2315.3
618.805,2327.5
618.97,2333.6
619.135,2333.8
619.299,2341.5
619.464,2334.2
619.628,2333.9
619.793,2327.5
619.957,2319.6
620.122,2320.4
620.286,2327.5
620.451,2345.4
620.615,2331.1
620.78,2332.3
620.944,2340.3
621.109,2310.1
621.273,2326.2
621.438,2325.3
621.602,2336.4
621.767,2324.8
621.931,2328.1
622.095,2332.1
622.26,2344.5
622.424,2322.6
622.589,2327.7
622.753,2346.5
622.917,2318.7
623.082,2330.5
623.246,2330.8
623.41,2324.1
623.575,2324.9
623.739,2326.5
623.903,2330.6
624.068,2322.5
624.232,2338.5
624.396,2308.4
624.561,2314.3
624.725,2320.5
624.889,2342.4
625.053,2327.0
625.218,2332.6
625.382,2324.7
625.546,2322.6
625.71,2316.2
625.875,2319.8
626.039,2326.1
626.203,2328.6
626.367,2328.0
626.531,2323.8
626.695,2325.1
626.86,2329.1
627.024,2319.6
627.188,2339.0
627.352,2330.2
627.516,2322.0
627.68,2315.3
627.844,2314.1
628.008,2316.2
628.172,2315.6
628.337,2312.9
628.501,2316.9
628.665,2311.5
628.829,2312.0
628.993,2319.5
629.157,2332.1
629.321,2316.5
629.485,2322.5
629.649,2325.3
629.813,2321.2
629.977,2320.3
630.141,2322.0
630.305,2309.0
630.469,2309.7
630.633,2317.5
630.797,2328.5
630.96,2322.3
631.124,2320.5
631.288,2308.0
631.452,2311.7
631.616,2317.9
631.78,2309.6
631.944,2319.3
632.108,2319.9
632.272,2314.1
632.435,2294.3
632.599,2340.2
632.763,2326.8
632.927,2322.3
633.091,2330.1
633.254,2311.2
633.418,2336.0
633.582,2313.1
633.746,2321.9
633.91,2316.0
634.073,2320.4
634.237,2338.2
634.401,2305.4
634.564,2306.1
634.728,2321.7
634.892,2321.0
635.056,2306.8
635.219,2319.0
635.383,2310.9
635.547,2311.2
635.71,2296.1
635.874,2315.9
636.038,2288.8
636.201,2310.6
636.365,2325.3
636.528,2314.3
636.692,2321.1
636.856,2305.8
637.019,2291.6
637.183,2322.8
637.346,2309.2
637.51,2293.3
637.673,2306.7
637.837,2307.8
638.0,2315.7
638.164,2299.8
638.327,2315.3
638.491,2300.1
638.654,2311.9
638.818,2291.9
638.981,2319.3
639.145,2306.8
639.308,2287.2
639.472,2303.7
639.635,2287.6
639.799,2285.7
639.962,2279.8
640.125,2289.3
640.289,2309.3
640.452,2293.0
640.616,2292.5
640.779,2294.8
640.942,2276.2
641.106,2288.2
641.269,2283.1
641.432,2278.8
641.596,2286.2
641.759,2275.2
641.922,2275.5
642.085,2285.9
642.249,2284.5
642.412,2294.1
642.575,2308.9
642.738,2290.4
642.902,2271.3
643.065,2254.5
643.228,2280.7
643.391,2280.2
643.555,2274.5
643.718,2276.3
643.881,2276.3
644.044,2278.6
644.207,2271.1
644.37,2272.9
644.534,2287.5
644.697,2274.9
644.86,2272.4
645.023,2278.8
645.186,2280.8
645.349,2281.5
645.512,2268.0
645.675,2264.6
645.838,2265.0
646.001,2256.9
646.164,2264.4
646.327,2261.1
646.49,2259.4
646.653,2263.2
646.816,2256.0
646.979,2252.6
647.142,2246.3
647.305,2256.4
647.468,2250.5
647.631,2233.7
647.794,2269.6
647.957,2256.2
648.12,2262.7
648.283,2245.4
648.446,2239.3
648.609,2240.9
648.772,2256.1
648.935,2252.1
649.098,2245.8
649.26,2224.1
649.423,2234.1
649.586,2214.9
649.749,2234.1
649.912,2240.5
650.075,2235.8
650.237,2244.0
650.4,2239.9
650.563,2229.1
650.726,2259.2
650.888,2227.5
651.051,2246.5
651.214,2223.1
651.377,2222.5
651.539,2219.0
651.702,2210.1
651.865,2225.1
652.027,2218.1
652.19,2243.8
652.353,2215.3
652.515,2218.8
652.678,2219.9
652.841,2209.5
653.003,2227.2
653.166,2231.0
653.329,2218.7
653.491,2211.1
653.654,2213.7
653.816,2196.7
653.979,2197.1
654.142,2217.3
654.304,2202.3
654.467,2192.5
654.629,2189.6
654.792,2189.9
654.954,2194.2
655.117,2199.0
655.279,2211.5
655.442,2197.1
655.604,2181.8
655.767,2189.7
655.929,2190.6
656.091,2172.4
656.254,2150.1
656.416,2152.2
656.579,2180.5
656.741,2195.5
656.904,2191.4
657.066,2174.6
657.228,2176.9
657.391,2193.2
657.553,2184.2
657.715,2175.5
657.878,2195.8
658.04,2174.3
658.202,2181.8
658.365,2176.9
658.527,2184.9
658.689,2182.0
658.851,2165.9
659.014,2166.4
659.176,2164.6
659.338,2155.8
659.5,2153.5
659.663,2152.8
659.825,2151.6
659.987,2154.1
660.149,2164.8
660.311,2157.4
660.474,2169.4
660.636,2165.8
660.798,2150.3
660.96,2158.2
661.041,2161.3