File: spectra/VLFR_02-HDPE_bio_Raman_5509ec87.csv
nm,Intensity
528.635,1837.9
528.803,1836.6
528.972,1838.0
529.14,1836.3
529.308,1836.8
529.477,1836.4
529.645,1837.8
529.814,1837.6
529.982,1836.7
530.151,1836.8
530.319,1837.1
530.487,1838.0
530.656,1837.6
530.824,1836.7
530.993,1839.7
531.161,1841.2
531.329,1841.9
531.498,1847.7
531.666,1882.2
531.835,2486.2
532.003,4485.2
532.171,4449.7
532.34,1997.7
532.508,1843.1
532.676,1838.9
532.845,1839.1
533.013,1837.7
533.181,1839.6
533.35,1840.4
533.518,1863.2
533.686,1976.3
533.854,2198.6
534.023,2291.2
534.191,2309.2
534.359,2286.4
534.528,2295.9
534.696,2304.1
534.864,2323.2
535.032,2322.5
535.201,2277.8
535.369,2189.3
535.537,2137.4
535.705,2106.0
535.874,2068.5
536.042,2052.8
536.21,2059.1
536.378,2035.1
536.546,2049.8
536.715,2023.2
536.883,2016.3
537.051,2020.2
537.219,2023.3
537.387,2018.0
537.556,2026.1
537.724,2016.3
537.892,2018.7
538.06,2006.9
538.228,2003.9
538.396,1994.9
538.565,1980.1
538.733,1983.5
538.901,1972.1
539.069,1973.6
539.237,1972.6
539.405,1955.9
539.573,1945.9
539.741,1954.2
539.909,1946.5
540.077,1952.6
540.246,1950.7
540.414,1948.4
540.582,1947.1
540.75,1945.4
540.918,1944.3
541.086,1936.2
541.254,1941.3
541.422,1940.1
541.59,1938.0
541.758,1940.5
541.926,1945.8
542.094,1938.3
542.262,1943.3
542.43,1940.6
542.598,1945.2
542.766,1934.8
542.934,1936.0
543.102,1936.3
543.27,1933.1
543.438,1937.1
543.606,1939.1
543.774,1934.8
543.942,1937.1
544.11,1933.2
544.278,1937.3
544.445,1936.0
544.613,1932.7
544.781,1923.1
544.949,1924.2
545.117,1924.1
545.285,1925.3
545.453,1925.8
545.621,1927.2
545.789,1931.2
545.957,1926.1
546.124,1930.7
546.292,1927.9
546.46,1926.4
546.628,1934.1
546.796,1921.3
546.964,1925.4
547.131,1932.8
547.299,1926.8
547.467,1932.4
547.635,1931.2
547.803,1931.1
547.97,1927.5
548.138,1929.6
548.306,1928.3
548.474,1924.0
548.642,1927.5
548.809,1922.2
548.977,1919.7
549.145,1930.1
549.313,1924.2
549.48,1920.8
549.648,1923.9
549.816,1925.0
549.983,1930.1
550.151,1921.2
550.319,1923.5
550.487,1926.0
550.654,1932.2
550.822,1926.6
550.99,1925.3
551.157,1927.9
551.325,1929.9
551.493,1928.0
551.66,1926.4
551.828,1931.2
551.996,1929.6
552.163,1931.1
552.331,1928.8
552.499,1927.6
552.666,1932.5
552.834,1931.9
553.001,1938.3
553.169,1948.2
553.337,1952.9
553.504,1955.0
553.672,1952.4
553.839,1959.8
554.007,1952.5
554.174,1958.0
554.342,1957.1
554.509,1961.1
554.677,1964.2
554.845,1959.1
555.012,1972.5
555.18,1963.5
555.347,1969.7
555.515,1967.0
555.682,1973.2
555.85,1974.7
556.017,1971.1
556.185,1980.5
556.352,1976.2
556.52,1990.4
556.687,1986.6
556.854,1992.6
557.022,2005.6
557.189,2010.2
557.357,2018.5
557.524,2023.2
557.692,2026.2
557.859,2034.1
558.026,2044.5
558.194,2032.9
558.361,2029.7
558.529,2050.6
558.696,2031.2
558.863,2025.1
559.031,2016.9
559.198,2022.5
559.365,2013.2
559.533,2023.4
559.7,2007.7
559.867,2009.7
560.035,2010.2
560.202,2010.4
560.369,2002.6
560.537,2005.1
560.704,2000.6
560.871,2000.6
561.039,2002.9
561.206,2006.5
561.373,2000.3
561.54,2015.1
561.708,2022.6
561.875,2018.5
562.042,2027.3
562.209,2034.8
562.377,2038.0
562.544,2055.1
562.711,2056.0
562.878,2052.7
563.046,2049.5
563.213,2075.6
563.38,2096.5
563.547,2152.2
563.714,2417.8
563.881,2994.4
564.049,3329.9
564.216,2740.1
564.383,2310.4
564.55,2254.3
564.717,2254.2
564.884,2214.7
565.052,2184.4
565.219,2149.0
565.386,2169.7
565.553,2178.1
565.72,2274.6
565.887,2630.9
566.054,3366.1
566.221,3558.6
566.388,2688.3
566.555,2217.9
566.722,2143.5
566.889,2103.8
567.056,2103.4
567.224,2171.7
567.391,2252.8
567.558,2228.3
567.725,2119.7
567.892,2066.9
568.059,2055.9
568.226,2061.0
568.393,2064.7
568.56,2058.6
568.727,2053.9
568.893,2062.3
569.06,2068.6
569.227,2071.8
569.394,2068.3
569.561,2076.1
569.728,2064.4
569.895,2067.9
570.062,2090.9
570.229,2089.8
570.396,2123.2
570.563,2159.3
570.73,2162.7
570.897,2174.1
571.063,2235.8
571.23,2574.4
571.397,3530.0
571.564,4133.2
571.731,3128.2
571.898,2445.1
572.064,2273.7
572.231,2230.7
572.398,2169.3
572.565,2127.4
572.732,2104.7
572.899,2092.8
573.065,2091.6
573.232,2093.2
573.399,2094.9
573.566,2099.9
573.732,2139.4
573.899,2221.4
574.066,2176.8
574.233,2116.0
574.399,2085.4
574.566,2086.2
574.733,2093.8
574.9,2093.6
575.066,2142.6
575.233,2325.4
575.4,2810.1
575.566,3153.2
575.733,2757.7
575.9,2693.7
576.066,3082.8
576.233,3551.5
576.4,3421.6
576.566,3050.1
576.733,2976.7
576.899,2998.0
577.066,2967.2
577.233,2751.6
577.399,2557.6
577.566,2367.7
577.732,2281.7
577.899,2227.6
578.066,2225.9
578.232,2182.7
578.399,2187.7
578.565,2167.4
578.732,2184.3
578.898,2168.7
579.065,2207.7
579.231,2177.0
579.398,2190.2
579.564,2210.2
579.731,2175.4
579.897,2208.5
580.064,2201.6
580.23,2212.7
580.397,2209.3
580.563,2200.5
580.73,2195.1
580.896,2213.1
581.063,2212.2
581.229,2233.6
581.396,2219.7
581.562,2216.3
581.728,2221.8
581.895,2203.8
582.061,2232.0
582.228,2224.6
582.394,2185.8
582.56,2223.6
582.727,2224.3
582.893,2211.4
583.059,2222.5
583.226,2211.2
583.392,2195.0
583.558,2218.8
583.725,2216.4
583.891,2211.4
584.057,2200.6
584.224,2219.5
584.39,2202.7
584.556,2207.0
584.722,2188.1
584.889,2200.0
585.055,2193.1
585.221,2215.8
585.387,2184.6
585.554,2182.3
585.72,2166.2
585.886,2173.4
586.052,2180.2
586.219,2168.8
586.385,2182.2
586.551,2168.6
586.717,2175.9
586.883,2157.4
587.049,2166.0
587.216,2171.7
587.382,2149.4
587.548,2172.6
587.714,2136.8
587.88,2174.1
588.046,2166.5
588.212,2159.4
588.379,2142.3
588.545,2159.9
588.711,2154.8
588.877,2149.4
589.043,2142.7
589.209,2141.0
589.375,2143.3
589.541,2137.1
589.707,2122.2
589.873,2131.8
590.039,2138.4
590.205,2122.5
590.371,2121.9
590.537,2130.8
590.703,2120.6
590.869,2124.9
591.035,2121.6
591.201,2131.4
591.367,2122.8
591.533,2123.4
591.699,2116.4
591.865,2129.5
592.031,2119.1
592.197,2133.7
592.363,2121.6
592.529,2119.1
592.695,2118.4
592.86,2120.0
593.026,2125.2
593.192,2115.4
593.358,2123.4
593.524,2120.5
593.69,2133.9
593.856,2114.3
594.022,2120.2
594.187,2114.0
594.353,2115.5
594.519,2114.9
594.685,2122.1
594.851,2121.2
595.016,2118.8
595.182,2126.2
595.348,2114.9
595.514,2132.3
595.679,2129.9
595.845,2120.0
596.011,2133.0
596.177,2140.1
596.342,2126.0
596.508,2132.2
596.674,2124.8
596.84,2130.7
597.005,2127.3
597.171,2136.9
597.337,2135.7
597.502,2114.7
597.668,2128.4
597.834,2126.8
597.999,2143.1
598.165,2142.6
598.331,2143.1
598.496,2125.8
598.662,2131.1
598.827,2133.3
598.993,2144.1
599.159,2155.3
599.324,2149.2
599.49,2160.4
599.655,2157.4
599.821,2165.8
599.987,2155.8
600.152,2142.7
600.318,2145.3
600.483,2138.9
600.649,2148.2
600.814,2150.5
600.98,2142.7
601.145,2144.6
601.311,2143.1
601.476,2152.4
601.642,2158.5
601.807,2166.2
601.973,2182.6
602.138,2196.2
602.303,2173.3
602.469,2149.8
602.634,2130.0
602.8,2126.5
602.965,2139.9
603.13,2139.3
603.296,2123.1
603.461,2133.4
603.627,2137.6
603.792,2142.2
603.957,2114.1
604.123,2131.6
604.288,2139.0
604.453,2128.7
604.619,2126.9
604.784,2119.3
604.949,2115.0
605.115,2121.9
605.28,2097.2
605.445,2103.7
605.61,2106.7
605.776,2106.4
605.941,2087.7
606.106,2101.4
606.272,2086.8
606.437,2091.6
606.602,2103.2
606.767,2087.1
606.932,2084.8
607.098,2074.6
607.263,2081.9
607.428,2074.5
607.593,2073.8
607.758,2084.2
607.923,2062.4
608.089,2077.6
608.254,2076.8
608.419,2068.7
608.584,2081.1
608.749,2071.1
608.914,2074.7
609.079,2067.3
609.244,2072.9
609.41,2064.3
609.575,2058.9
609.74,2067.5
609.905,2060.8
610.07,2061.4
610.235,2072.7
610.4,2069.9
610.565,2065.5
610.73,2091.2
610.895,2088.4
611.06,2103.8
611.225,2090.3
611.39,2074.1
611.555,2069.7
611.72,2071.6
611.885,2054.8
612.05,2048.8
612.215,2056.7
612.38,2047.3
612.545,2048.5
612.709,2046.6
612.874,2048.2
613.039,2045.1
613.204,2045.3
613.369,2047.3
613.534,2048.6
613.699,2054.9
613.864,2043.6
614.028,2050.1
614.193,2047.2
614.358,2058.3
614.523,2044.6
614.688,2059.6
614.853,2053.3
615.017,2055.3
615.182,2054.4
615.347,2064.0
615.512,2068.8
615.676,2061.6
615.841,2067.4
616.006,2068.9
616.171,2085.8
616.335,2077.0
616.5,2088.2
616.665,2101.1
616.829,2120.0
616.994,2134.9
617.159,2137.9
617.324,2145.1
617.488,2143.8
617.653,2153.5
617.818,2154.5
617.982,2163.6
618.147,2169.2
618.311,2154.8
618.476,2157.5
618.641,2132.9
618.805,2140.2
618.97,2152.7
619.134,2164.8
619.299,2178.2
619.463,2183.8
619.628,2195.6
619.793,2203.8
619.957,2202.8
620.122,2184.8
620.286,2199.0
620.451,2208.8
620.615,2218.7
620.78,2227.3
620.944,2258.6
621.109,2283.6
621.273,2319.0
621.438,2391.7
621.602,2483.8
621.766,2546.7
621.931,2642.5
622.095,2718.0
622.26,2763.6
622.424,2743.2
622.588,2570.7
622.753,2444.6
622.917,2346.4
623.082,2291.9
623.246,2249.0
623.41,2232.4
623.575,2216.0
623.739,2219.3
623.903,2216.6
624.068,2201.6
624.232,2209.3
624.396,2216.6
624.56,2208.6
624.725,2208.3
624.889,2219.9
625.053,2243.9
625.218,2245.4
625.382,2273.6
625.546,2312.6
625.71,2339.1
625.874,2407.6
626.039,2493.3
626.203,2667.9
626.367,3023.4
626.531,3748.8
626.695,5123.6
626.86,7027.8
627.024,9323.9
627.188,10454.3
627.352,9673.9
627.516,8370.4
627.68,7192.8
627.844,6782.1
628.008,6761.0
628.172,7335.2
628.337,9613.0
628.501,11084.4
628.665,9402.8
628.829,7359.5
628.993,6674.9
629.157,6334.1
629.321,5971.6
629.485,5561.1
629.649,5129.8
629.813,4774.3
629.977,4649.2
630.141,4478.8
630.305,4385.4
630.469,4373.9
630.633,4037.2
630.797,3611.0
630.961,3175.5
631.124,2845.0
631.288,2576.4
631.452,2455.3
631.616,2384.7
631.78,2347.9
631.944,2285.8
632.108,2265.5
632.272,2241.9
632.436,2248.2
632.599,2231.8
632.763,2224.0
632.927,2198.8
633.091,2213.4
633.255,2195.0
633.418,2175.1
633.582,2174.2
633.746,2152.3
633.91,2157.1
634.074,2133.6
634.237,2140.6
634.401,2119.0
634.565,2108.6
634.728,2101.6
634.892,2112.8
635.056,2104.8
635.22,2085.2
635.383,2076.8
635.547,2090.1
635.711,2076.3
635.874,2071.8
636.038,2076.1
636.202,2068.8
636.365,2089.8
636.529,2074.0
636.692,2066.0
636.856,2054.7
637.02,2038.8
637.183,2039.2
637.347,2027.1
637.51,2014.8
637.674,2021.0
637.837,2016.2
638.001,2017.0
638.164,2013.2
638.328,2016.8
638.491,2009.5
638.655,2007.8
638.818,1997.7
638.982,2019.8
639.145,2001.0
639.309,1994.5
639.472,1996.8
639.636,1993.2
639.799,1995.6
639.963,1992.8
640.126,1990.0
640.289,1992.8
640.453,1990.9
640.616,1985.1
640.78,1987.3
640.943,1985.4
641.106,1987.5
641.27,1988.2
641.433,1980.2
641.596,1985.2
641.76,1980.6
641.923,1970.2
642.086,1980.1
642.249,1970.1
642.413,1974.3
642.576,1977.2
642.739,1978.5
642.903,1968.9
643.066,1982.3
643.229,1975.4
643.392,1979.2
643.555,1970.6
643.719,1971.2
643.882,1965.2
644.045,1964.5
644.208,1968.2
644.371,1970.9
644.534,1968.2
644.698,1972.4
644.861,1968.8
645.024,1969.0
645.187,1971.7
645.35,1966.4
645.513,1958.9
645.676,1968.8
645.839,1964.4
646.002,1964.0
646.165,1964.9
646.329,1970.6
646.492,1976.2
646.655,1961.3
646.818,1967.1
646.981,1964.0
647.144,1961.4
647.307,1969.6
647.47,1963.7
647.633,1955.1
647.796,1958.5
647.958,1965.7
648.121,1965.3
648.284,1958.4
648.447,1950.2
648.61,1958.7
648.773,1960.3
648.936,1963.4
649.099,1956.3
649.262,1969.2
649.425,1959.7
649.587,1962.4
649.75,1958.3
649.913,1960.8
650.076,1955.0
650.239,1956.6
650.402,1956.6
650.564,1960.0
650.727,1960.7
650.89,1955.5
651.053,1956.1
651.215,1953.9
651.378,1956.3
651.541,1951.3
651.704,1950.8
651.866,1966.4
652.029,1948.3
652.192,1951.8
652.354,1945.1
652.517,1949.3
652.68,1958.2
652.842,1952.0
653.005,1950.5
653.168,1945.9
653.33,1942.1
653.493,1952.6
653.656,1941.5
653.818,1945.6
653.981,1947.3
654.143,1945.0
654.306,1948.6
654.468,1946.5
654.631,1940.9
654.794,1943.7
654.956,1947.6
655.119,1947.3
655.281,1941.1
655.444,1944.9
655.606,1934.2
655.769,1938.6
655.931,1947.6
656.093,1951.9
656.256,1941.2
656.418,1938.5
656.581,1939.8
656.743,1943.4
656.906,1937.0
657.068,1937.4
657.23,1937.0
657.393,1939.7
657.555,1936.2
657.718,1934.8
657.88,1937.1
658.042,1933.6
658.205,1931.4
658.367,1930.4
658.529,1932.2
658.691,1934.8
658.854,1930.2
659.016,1931.7
659.178,1931.5
659.341,1931.2
659.503,1926.4
659.665,1936.7
659.827,1945.3
659.989,1935.7
660.152,1949.1
660.314,1936.8
660.476,1936.0
660.638,1930.5
660.8,1928.7
660.963,1925.4
661.044,1930.8