File: spectra/VLFR_02-HDPE_bio_Raman_3ad4a4f8.csv
nm,Intensity
526.508,830.4
526.645,829.9
526.782,830.2
526.919,829.0
527.055,829.5
527.192,830.1
527.329,830.8
527.465,830.1
527.602,830.7
527.739,831.1
527.875,830.2
528.012,830.1
528.149,830.4
528.285,831.3
528.422,830.5
528.558,829.5
528.695,829.7
528.832,831.5
528.968,830.0
529.105,829.8
529.241,829.5
529.378,830.4
529.514,830.4
529.651,829.5
529.787,828.9
529.924,831.0
530.061,829.5
530.197,830.9
530.334,829.9
530.47,829.8
530.606,831.0
530.743,829.6
530.879,830.8
531.016,830.2
531.152,830.0
531.289,829.2
531.425,830.3
531.562,831.0
531.698,830.0
531.834,830.4
531.971,835.1
532.107,869.9
532.244,885.7
532.38,844.1
532.516,831.3
532.653,831.0
532.789,830.1
532.925,829.4
533.062,830.1
533.198,830.2
533.334,830.6
533.471,829.6
533.607,831.2
533.743,838.0
533.879,862.5
534.016,904.7
534.152,922.1
534.288,921.3
534.424,915.5
534.561,914.0
534.697,913.7
534.833,907.1
534.969,904.6
535.106,897.4
535.242,898.7
535.378,893.7
535.514,892.8
535.65,890.9
535.786,888.7
535.923,889.2
536.059,886.7
536.195,887.6
536.331,882.7
536.467,881.3
536.603,882.0
536.739,880.7
536.876,884.2
537.012,878.8
537.148,878.8
537.284,881.0
537.42,881.0
537.556,880.0
537.692,877.6
537.828,879.0
537.964,879.0
538.1,878.8
538.236,877.9
538.372,875.6
538.508,876.9
538.644,872.9
538.78,877.6
538.916,874.4
539.052,873.8
539.188,872.7
539.324,873.2
539.46,873.5
539.596,875.0
539.732,873.0
539.868,874.3
540.004,872.0
540.14,871.7
540.275,873.9
540.411,869.7
540.547,873.3
540.683,872.9
540.819,872.5
540.955,873.5
541.091,869.7
541.227,869.9
541.362,870.5
541.498,871.6
541.634,871.2
541.77,874.6
541.906,872.4
542.041,872.3
542.177,872.3
542.313,872.4
542.449,872.7
542.585,874.1
542.72,874.0
542.856,872.2
542.992,870.2
543.128,873.2
543.263,872.9
543.399,873.7
543.535,873.0
543.67,872.3
543.806,874.6
543.942,875.6
544.078,875.3
544.213,873.4
544.349,874.0
544.485,875.0
544.62,874.7
544.756,876.4
544.892,877.5
545.027,875.8
545.163,873.1
545.298,875.6
545.434,876.0
545.57,876.2
545.705,874.1
545.841,878.2
545.976,877.2
546.112,877.1
546.248,878.6
546.383,878.7
546.519,880.3
546.654,877.6
546.79,876.7
546.925,879.5
547.061,879.0
547.196,879.4
547.332,877.4
547.467,877.6
547.603,877.0
547.738,879.9
547.874,879.3
548.009,876.9
548.145,878.3
548.28,877.6
548.416,880.4
548.551,879.1
548.686,879.5
548.822,876.2
548.957,878.2
549.093,880.8
549.228,880.4
549.363,879.0
549.499,876.6
549.634,880.8
549.77,878.2
549.905,881.1
550.04,878.0
550.176,876.2
550.311,879.8
550.446,878.0
550.582,879.0
550.717,877.6
550.852,877.4
550.988,879.1
551.123,880.0
551.258,878.8
551.394,879.0
551.529,877.2
551.664,881.6
551.799,879.7
551.935,878.3
552.07,879.1
552.205,881.8
552.34,880.3
552.476,880.1
552.611,877.5
552.746,879.5
552.881,882.8
553.016,880.7
553.152,882.0
553.287,880.3
553.422,878.7
553.557,882.8
553.692,876.4
553.827,882.3
553.963,880.5
554.098,881.7
554.233,880.2
554.368,883.5
554.503,883.2
554.638,881.6
554.773,881.7
554.908,882.4
555.043,882.6
555.179,880.0
555.314,882.6
555.449,881.7
555.584,883.3
555.719,881.8
555.854,881.3
555.989,882.4
556.124,883.3
556.259,883.4
556.394,882.2
556.529,882.6
556.664,886.0
556.799,888.1
556.934,884.2
557.069,886.9
557.204,887.4
557.339,885.1
557.474,884.8
557.609,890.5
557.744,889.1
557.879,888.3
558.014,891.0
558.149,889.4
558.284,889.3
558.419,892.2
558.553,894.0
558.688,893.5
558.823,891.2
558.958,891.9
559.093,893.2
559.228,892.0
559.363,888.5
559.498,889.4
559.632,892.0
559.767,891.4
559.902,893.2
560.037,890.1
560.172,891.4
560.307,893.0
560.441,892.3
560.576,889.3
560.711,890.4
560.846,890.8
560.981,892.0
561.115,893.9
561.25,892.8
561.385,894.3
561.52,893.2
561.654,894.8
561.789,893.8
561.924,895.1
562.059,897.3
562.193,898.6
562.328,895.8
562.463,900.1
562.598,899.1
562.732,901.9
562.867,902.6
563.002,903.3
563.136,906.9
563.271,908.9
563.406,905.1
563.54,911.8
563.675,916.5
563.81,936.4
563.944,1007.0
564.079,1069.3
564.213,1012.5
564.348,946.5
564.483,933.7
564.617,932.1
564.752,936.4
564.887,934.0
565.021,928.4
565.156,924.9
565.29,924.8
565.425,926.9
565.559,932.2
565.694,936.1
565.828,948.1
565.963,992.8
566.098,1122.1
566.232,1255.5
566.367,1105.2
566.501,975.8
566.636,945.2
566.77,931.5
566.905,926.8
567.039,926.9
567.174,925.9
567.308,929.1
567.443,926.2
567.577,934.0
567.711,923.9
567.846,927.5
567.98,926.3
568.115,931.0
568.249,928.6
568.384,927.2
568.518,930.9
568.652,931.1
568.787,934.4
568.921,936.1
569.056,936.1
569.19,936.2
569.324,941.4
569.459,940.1
569.593,941.4
569.727,943.4
569.862,944.9
569.996,949.1
570.131,947.8
570.265,951.6
570.399,956.3
570.534,956.3
570.668,965.4
570.802,968.4
570.936,963.3
571.071,972.1
571.205,979.8
571.339,1001.8
571.474,1123.9
571.608,1267.4
571.742,1118.3
571.876,1023.4
572.011,1000.8
572.145,994.4
572.279,990.1
572.413,988.3
572.548,984.5
572.682,991.4
572.816,986.9
572.95,984.7
573.084,995.6
573.219,997.3
573.353,1001.0
573.487,998.7
573.621,1007.9
573.755,1011.4
573.889,1027.8
574.024,1035.4
574.158,1030.8
574.292,1028.0
574.426,1031.5
574.56,1030.6
574.694,1044.5
574.828,1048.0
574.963,1043.9
575.097,1058.6
575.231,1064.7
575.365,1110.4
575.499,1234.2
575.633,1289.8
575.767,1194.3
575.901,1147.9
576.035,1145.9
576.169,1174.7
576.303,1196.3
576.437,1202.1
576.571,1194.8
576.706,1196.8
576.84,1201.9
576.974,1210.0
577.108,1217.1
577.242,1212.5
577.376,1203.8
577.51,1204.7
577.644,1216.8
577.778,1212.2
577.912,1218.1
578.046,1229.1
578.179,1238.1
578.313,1254.4
578.447,1262.3
578.581,1267.6
578.715,1284.5
578.849,1294.5
578.983,1315.2
579.117,1323.1
579.251,1329.8
579.385,1343.4
579.519,1365.2
579.653,1375.0
579.787,1387.3
579.921,1399.8
580.054,1405.2
580.188,1432.1
580.322,1437.0
580.456,1450.2
580.59,1458.5
580.724,1473.2
580.858,1493.2
580.991,1503.2
581.125,1502.0
581.259,1516.5
581.393,1530.2
581.527,1548.4
581.661,1568.2
581.794,1562.3
581.928,1573.7
582.062,1594.0
582.196,1593.6
582.33,1607.9
582.463,1622.6
582.597,1625.9
582.731,1636.2
582.865,1651.8
582.998,1660.2
583.132,1660.7
583.266,1664.2
583.4,1672.8
583.533,1678.5
583.667,1692.1
583.801,1692.5
583.935,1701.0
584.068,1697.4
584.202,1708.1
584.336,1713.4
584.469,1703.0
584.603,1715.8
584.737,1720.7
584.87,1717.2
585.004,1722.9
585.138,1737.3
585.271,1733.6
585.405,1736.5
585.539,1739.3
585.672,1736.4
585.806,1743.0
585.94,1744.7
586.073,1748.5
586.207,1749.8
586.34,1754.8
586.474,1770.5
586.608,1764.5
586.741,1777.2
586.875,1772.4
587.008,1793.9
587.142,1781.2
587.276,1795.9
587.409,1786.6
587.543,1792.7
587.676,1789.1
587.81,1803.8
587.943,1811.1
588.077,1796.3
588.21,1804.2
588.344,1819.6
588.478,1815.6
588.611,1817.0
588.745,1826.1
588.878,1819.9
589.012,1823.1
589.145,1829.2
589.279,1844.0
589.412,1846.5
589.546,1851.1
589.679,1865.5
589.812,1859.9
589.946,1867.4
590.079,1868.3
590.213,1884.9
590.346,1893.4
590.48,1884.6
590.613,1895.9
590.747,1900.7
590.88,1909.2
591.013,1900.9
591.147,1914.2
591.28,1904.6
591.414,1929.3
591.547,1932.6
591.68,1937.1
591.814,1940.6
591.947,1949.9
592.081,1951.1
592.214,1954.3
592.347,1949.7
592.481,1954.0
592.614,1959.0
592.747,1967.3
592.881,1955.1
593.014,1969.4
593.147,1956.2
593.281,1963.4
593.414,1976.3
593.547,1983.2
593.681,1986.6
593.814,1973.3
593.947,1975.0
594.081,1985.3
594.214,1987.6
594.347,1987.2
594.48,1982.9
594.614,2008.0
594.747,2007.4
594.88,1996.0
595.014,2007.4
595.147,2010.4
595.28,2016.7
595.413,2008.5
595.547,2025.9
595.68,2023.5
595.813,2017.6
595.946,2027.0
596.079,2031.2
596.213,2033.0
596.346,2028.8
596.479,2023.4
596.612,2045.9
596.745,2040.5
596.879,2046.1
597.012,2049.9
597.145,2056.4
597.278,2048.9
597.411,2052.6
597.545,2049.9
597.678,2051.2
597.811,2071.0
597.944,2064.9
598.077,2082.9
598.21,2089.2
598.343,2093.9
598.476,2092.7
598.61,2101.9
598.743,2105.6
598.876,2103.9
599.009,2097.9
599.142,2108.8
599.275,2103.2
599.408,2117.3
599.541,2106.2
599.674,2129.5
599.807,2120.1
599.941,2122.6
600.074,2128.0
600.207,2121.7
600.34,2116.5
600.473,2113.2
600.606,2111.2
600.739,2123.8
600.872,2124.8
601.005,2113.5
601.138,2105.2
601.271,2110.6
601.404,2119.6
601.537,2106.7
601.67,2106.0
601.803,2097.0
601.936,2103.7
602.069,2095.4
602.202,2110.6
602.335,2103.2
602.468,2089.4
602.601,2093.6
602.734,2084.1
602.867,2087.1
603.0,2096.5
603.133,2087.6
603.266,2073.6
603.399,2076.0
603.532,2072.2
603.664,2063.5
603.797,2046.4
603.93,2050.7
604.063,2036.6
604.196,2038.2
604.329,2028.5
604.462,2003.8
604.595,2013.6
604.728,2005.1
604.861,1976.5
604.994,1978.2
605.126,1961.5
605.259,1947.2
605.392,1934.8
605.525,1921.3
605.658,1926.3
605.791,1902.5
605.924,1903.3
606.056,1872.0
606.189,1871.1
606.322,1873.8
606.455,1865.5
606.588,1838.9
606.721,1847.4
606.853,1829.7
606.986,1845.2
607.119,1833.2
607.252,1822.7
607.385,1803.8
607.517,1801.9
607.65,1807.8
607.783,1795.3
607.916,1778.8
608.049,1783.9
608.181,1778.9
608.314,1770.0
608.447,1768.3
608.58,1763.6
608.712,1759.6
608.845,1745.9
608.978,1735.5
609.111,1737.4
609.243,1727.2
609.376,1719.2
609.509,1715.9
609.641,1707.9
609.774,1711.2
609.907,1693.6
610.04,1679.4
610.172,1674.4
610.305,1674.5
610.438,1677.6
610.57,1658.5
610.703,1660.5
610.836,1665.4
610.968,1648.9
611.101,1642.7
611.234,1645.9
611.366,1631.9
611.499,1636.1
611.632,1641.9
611.764,1625.0
611.897,1618.7
612.03,1619.9
612.162,1619.3
612.295,1613.2
612.428,1617.6
612.56,1609.7
612.693,1616.8
612.825,1613.2
612.958,1607.4
613.091,1605.6
613.223,1600.3
613.356,1590.0
613.488,1598.5
613.621,1584.7
613.754,1583.0
613.886,1566.7
614.019,1571.5
614.151,1568.8
614.284,1561.0
614.416,1568.6
614.549,1563.4
614.681,1549.3
614.814,1550.3
614.947,1539.9
615.079,1530.0
615.212,1534.7
615.344,1526.6
615.477,1511.6
615.609,1525.6
615.742,1512.9
615.874,1513.4
616.007,1499.2
616.139,1495.2
616.272,1496.1
616.404,1499.0
616.537,1495.5
616.669,1484.8
616.802,1490.6
616.934,1485.8
617.067,1481.7
617.199,1480.1
617.332,1476.4
617.464,1474.6
617.596,1475.8
617.729,1469.2
617.861,1471.1
617.994,1467.8
618.126,1462.7
618.259,1468.1
618.391,1467.0
618.524,1465.7
618.656,1447.9
618.788,1454.6
618.921,1446.1
619.053,1446.4
619.186,1437.2
619.318,1443.9
619.45,1444.7
619.583,1435.3
619.715,1431.9
619.848,1434.8
619.98,1438.8
620.112,1424.1
620.245,1424.2
620.377,1418.1
620.509,1416.8
620.642,1417.6
620.774,1423.2
620.907,1415.8
621.039,1424.3
621.171,1417.2
621.304,1422.2
621.436,1417.8
621.568,1428.6
621.701,1424.4
621.833,1423.8
621.965,1427.0
622.097,1439.2
622.23,1428.3
622.362,1435.6
622.494,1428.1
622.627,1425.1
622.759,1434.8
622.891,1410.8
623.024,1418.2
623.156,1415.8
623.288,1415.9
623.42,1414.1
623.553,1407.1
623.685,1408.4
623.817,1411.0
623.949,1403.2
624.082,1407.7
624.214,1409.9
624.346,1398.4
624.479,1413.0
624.611,1408.7
624.743,1409.0
624.875,1409.2
625.007,1406.8
625.14,1401.7
625.272,1404.3
625.404,1409.3
625.536,1413.4
625.669,1412.6
625.801,1419.9
625.933,1426.6
626.065,1425.9
626.197,1434.2
626.33,1427.0
626.462,1457.2
626.594,1474.4
626.726,1530.1
626.858,1615.6
626.99,1730.7
627.123,1905.9
627.255,2014.8
627.387,1995.2
627.519,1907.6
627.651,1831.6
627.783,1784.5
627.916,1746.5
628.048,1722.5
628.18,1732.8
628.312,1749.5
628.444,1849.2
628.576,1980.2
628.708,1970.5
628.84,1864.8
628.973,1816.7
629.105,1794.9
629.237,1788.6
629.369,1779.1
629.501,1732.0
629.633,1724.5
629.765,1688.3
629.897,1666.1
630.029,1653.5
630.161,1673.4
630.294,1664.9
630.426,1667.9
630.558,1662.5
630.69,1635.9
630.822,1612.6
630.954,1590.2
631.086,1555.4
631.218,1542.0
631.35,1511.5
631.482,1491.3
631.614,1500.9
631.746,1493.4
631.878,1482.5
632.01,1493.1
632.142,1482.3
632.274,1485.8
632.406,1477.6
632.538,1486.6
632.67,1493.0
632.802,1496.9
632.934,1491.2
633.066,1486.7
633.198,1480.7
633.33,1485.5
633.462,1500.4
633.594,1481.2
633.726,1492.0
633.858,1491.0
633.99,1490.1
634.122,1482.1
634.254,1492.1
634.386,1503.0
634.518,1506.5
634.65,1489.7
634.782,1495.1
634.914,1499.4
635.046,1495.9
635.178,1482.4
635.31,1493.3
635.442,1490.3
635.574,1501.1
635.706,1507.1
635.838,1502.7
635.97,1503.7
636.102,1496.4
636.234,1499.4
636.365,1512.3
636.497,1504.1
636.629,1497.8
636.761,1506.5
636.893,1512.7
637.025,1504.9
637.157,1509.8
637.289,1511.0
637.421,1509.8
637.553,1508.7
637.685,1513.0
637.816,1505.6
637.948,1517.2
638.08,1512.7
638.212,1501.1
638.344,1514.8
638.476,1508.5
638.608,1506.1
638.74,1502.9
638.871,1511.8
639.003,1522.9
639.135,1518.4
639.267,1514.8
639.399,1522.2
639.531,1518.9
639.662,1514.5
639.794,1525.7
639.926,1520.0
640.058,1528.2
640.19,1515.7
640.322,1516.4
640.453,1513.4
640.585,1524.8
640.717,1529.3
640.849,1532.9
640.981,1528.7
641.113,1518.7
641.244,1526.5
641.376,1527.0
641.508,1525.1
641.64,1530.6
641.772,1535.6
641.903,1531.8
642.035,1539.2
642.167,1536.4
642.299,1548.2
642.43,1537.1
642.562,1532.3
642.694,1537.4
642.826,1539.9
642.958,1543.9
643.089,1535.4
643.221,1537.6
643.353,1526.6
643.485,1536.0
643.616,1529.2
643.748,1532.0
643.88,1540.7
644.012,1538.2
644.143,1538.1
644.275,1532.9
644.407,1533.7
644.538,1533.8
644.67,1541.9
644.802,1539.2
644.934,1544.3
645.065,1528.3
645.197,1541.2
645.329,1540.5
645.461,1533.0
645.592,1532.1
645.724,1539.6
645.856,1538.5
645.987,1533.0
646.119,1544.7
646.251,1542.7
646.382,1544.5
646.514,1542.4
646.646,1553.1
646.777,1550.4
646.909,1537.2
647.041,1550.0
647.172,1537.1
647.304,1541.8
647.436,1538.7
647.567,1550.1
647.699,1554.4
647.831,1537.8
647.962,1543.3
648.094,1540.9
648.226,1537.4
648.357,1537.7
648.489,1536.6
648.621,1536.1
648.752,1533.7
648.884,1524.7
649.016,1525.8
649.147,1525.0
649.279,1529.6
649.411,1529.3
649.542,1519.5
649.674,1529.6
649.805,1516.6
649.937,1521.9
650.069,1514.2
650.2,1519.9
650.332,1513.8
650.463,1509.4
650.595,1500.4
650.727,1518.4
650.858,1505.6
650.99,1508.9
651.121,1508.5
651.253,1504.8
651.385,1516.0
651.516,1506.0
651.648,1512.8
651.779,1505.2
651.911,1510.3
652.043,1513.7
652.174,1502.5
652.306,1511.8
652.437,1509.9
652.569,1503.9
652.7,1502.5
652.832,1506.2
652.963,1510.2
653.095,1498.4
653.227,1503.1
653.358,1493.7
653.49,1494.6
653.621,1497.2
653.753,1498.0
653.884,1490.3
654.016,1491.3
654.147,1492.1
654.279,1492.2
654.41,1496.2
654.542,1492.1
654.674,1481.8
654.805,1484.4
654.937,1490.7
655.068,1475.1
655.2,1483.9
655.331,1481.3
655.463,1475.4
655.594,1474.6
655.726,1482.6
655.857,1462.3
655.989,1462.8
656.12,1467.9
656.252,1462.4
656.383,1466.2
656.515,1458.1
656.646,1461.1
656.778,1464.7
656.909,1450.7
657.041,1454.5
657.172,1450.6
657.304,1458.6
657.435,1449.6
657.567,1441.5
657.698,1439.3
657.829,1438.7
657.961,1439.0
658.092,1444.7
658.224,1426.7
658.355,1439.7
658.487,1420.8
658.618,1425.8
658.75,1415.1
658.881,1407.6
659.013,1408.2
659.144,1404.5
659.275,1408.1
659.407,1401.6
659.538,1394.9
659.67,1397.0
659.801,1391.2
659.933,1382.5
660.064,1389.7
660.196,1380.6
660.327,1372.1
660.458,1366.0
660.59,1368.9
660.721,1362.9
660.853,1363.9
660.984,1353.5
661.116,1351.2
661.247,1343.0
661.378,1348.9
661.51,1339.5
661.641,1327.8
661.773,1329.3
661.904,1325.7
662.035,1322.0
662.167,1305.5
662.298,1311.1
662.43,1306.5
662.561,1310.3
662.692,1303.7
662.824,1296.7
662.955,1294.8
663.087,1294.2