File: spectra/VLFR_01-LDPE_bio_Raman_8afeec81.csv
nm,Intensity
528.635,1835.6
528.803,1834.9
528.972,1835.4
529.14,1835.0
529.308,1835.9
529.477,1836.0
529.645,1834.3
529.814,1834.7
529.982,1836.5
530.151,1836.1
530.319,1835.3
530.487,1835.3
530.656,1836.5
530.824,1836.1
530.993,1835.8
531.161,1837.6
531.329,1837.1
531.498,1841.0
531.666,1865.2
531.835,2386.7
532.003,5126.4
532.171,3927.2
532.34,2047.8
532.508,1840.2
532.676,1837.5
532.845,1834.5
533.013,1835.8
533.181,1836.3
533.35,1837.6
533.518,1855.9
533.686,1960.4
533.854,2156.4
534.023,2260.3
534.191,2271.0
534.359,2255.1
534.528,2248.9
534.696,2275.7
534.864,2263.5
535.032,2251.6
535.201,2252.1
535.369,2262.2
535.537,2226.3
535.705,2209.7
535.874,2205.4
536.042,2222.7
536.21,2222.5
536.378,2214.3
536.546,2216.1
536.715,2210.3
536.883,2224.7
537.051,2201.0
537.219,2224.4
537.387,2223.5
537.556,2216.1
537.724,2214.1
537.892,2214.2
538.06,2224.0
538.228,2226.9
538.396,2242.9
538.565,2218.9
538.733,2219.7
538.901,2220.7
539.069,2228.8
539.237,2203.9
539.405,2225.9
539.573,2234.1
539.741,2214.3
539.909,2208.5
540.077,2206.5
540.246,2216.9
540.414,2235.1
540.582,2215.4
540.75,2221.6
540.918,2211.9
541.086,2202.9
541.254,2222.0
541.422,2210.0
541.59,2233.2
541.758,2210.1
541.926,2233.2
542.094,2239.4
542.262,2227.1
542.43,2217.7
542.598,2252.0
542.766,2246.1
542.934,2240.2
543.102,2237.4
543.27,2262.0
543.438,2244.0
543.606,2254.4
543.774,2238.4
543.942,2239.2
544.11,2238.3
544.278,2256.5
544.445,2252.8
544.613,2249.9
544.781,2259.9
544.949,2253.4
545.117,2250.5
545.285,2245.5
545.453,2258.7
545.621,2225.2
545.789,2257.1
545.957,2247.3
546.124,2247.9
546.292,2274.6
546.46,2263.5
546.628,2280.9
546.796,2267.5
546.964,2248.7
547.131,2262.4
547.299,2260.8
547.467,2302.5
547.635,2246.8
547.803,2260.1
547.97,2279.7
548.138,2275.4
548.306,2273.0
548.474,2272.7
548.642,2273.8
548.809,2312.9
548.977,2259.0
549.145,2263.2
549.313,2288.1
549.48,2281.5
549.648,2279.9
549.816,2273.3
549.983,2275.9
550.151,2267.1
550.319,2273.9
550.487,2300.7
550.654,2316.2
550.822,2305.2
550.99,2301.6
551.157,2298.5
551.325,2298.8
551.493,2293.3
551.66,2308.0
551.828,2313.4
551.996,2322.1
552.163,2323.5
552.331,2299.8
552.499,2321.3
552.666,2322.1
552.834,2305.0
553.001,2327.9
553.169,2328.0
553.337,2318.9
553.504,2334.8
553.672,2311.9
553.839,2319.7
554.007,2308.8
554.174,2333.0
554.342,2347.7
554.509,2330.9
554.677,2348.5
554.845,2354.2
555.012,2326.8
555.18,2344.3
555.347,2345.3
555.515,2341.4
555.682,2359.9
555.85,2352.2
556.017,2349.8
556.185,2349.5
556.352,2357.1
556.52,2359.7
556.687,2364.5
556.854,2375.9
557.022,2395.6
557.189,2367.6
557.357,2371.6
557.524,2384.6
557.692,2384.2
557.859,2398.7
558.026,2414.6
558.194,2381.7
558.361,2401.7
558.529,2395.2
558.696,2402.2
558.863,2380.5
559.031,2412.8
559.198,2423.6
559.365,2411.0
559.533,2387.5
559.7,2409.8
559.867,2405.9
560.035,2405.4
560.202,2379.4
560.369,2402.3
560.537,2382.1
560.704,2394.5
560.871,2409.0
561.039,2399.0
561.206,2417.2
561.373,2428.8
561.54,2418.5
561.708,2431.0
561.875,2403.3
562.042,2441.4
562.209,2431.3
562.377,2431.7
562.544,2447.2
562.711,2446.1
562.878,2468.4
563.046,2428.4
563.213,2476.1
563.38,2466.4
563.547,2470.8
563.714,2552.2
563.881,2695.2
564.049,2736.3
564.216,2642.8
564.383,2580.7
564.55,2576.7
564.717,2542.9
564.884,2539.3
565.052,2529.7
565.219,2511.1
565.386,2505.0
565.553,2531.4
565.72,2550.4
565.887,2638.7
566.054,2763.5
566.221,2755.4
566.388,2629.9
566.555,2565.4
566.722,2501.8
566.889,2509.7
567.056,2510.3
567.224,2542.9
567.391,2521.8
567.558,2527.3
567.725,2522.0
567.892,2531.2
568.059,2503.6
568.226,2525.0
568.393,2524.4
568.56,2516.1
568.727,2537.8
568.893,2516.1
569.06,2544.7
569.227,2571.4
569.394,2531.1
569.561,2535.9
569.728,2607.3
569.895,2571.4
570.062,2578.3
570.229,2582.6
570.396,2604.7
570.563,2595.4
570.73,2619.4
570.897,2643.9
571.063,2657.6
571.23,2705.3
571.397,2944.7
571.564,3101.9
571.731,2905.7
571.898,2777.5
572.064,2772.6
572.231,2755.0
572.398,2701.0
572.565,2717.6
572.732,2689.3
572.899,2696.2
573.065,2678.0
573.232,2674.5
573.399,2698.4
573.566,2656.9
573.732,2693.7
573.899,2708.9
574.066,2700.3
574.233,2696.1
574.399,2699.5
574.566,2692.4
574.733,2683.9
574.9,2699.9
575.066,2715.1
575.233,2772.7
575.4,2796.7
575.566,2899.3
575.733,2955.0
575.9,2929.3
576.066,3060.1
576.233,3218.9
576.4,3113.1
576.566,3118.1
576.733,3070.9
576.899,3042.9
577.066,2963.0
577.233,2969.4
577.399,2939.5
577.566,2849.8
577.732,2871.4
577.899,2860.1
578.066,2823.6
578.232,2859.2
578.399,2885.8
578.565,2861.9
578.732,2882.7
578.898,2887.9
579.065,2929.3
579.231,2929.4
579.398,2943.3
579.564,2918.1
579.731,2959.8
579.897,2979.6
580.064,2972.9
580.23,3017.9
580.397,3040.6
580.563,3031.1
580.73,3050.5
580.896,3097.4
581.063,3089.9
581.229,3059.2
581.396,3049.8
581.562,3140.0
581.728,3095.3
581.895,3083.4
582.061,3039.4
582.228,3109.9
582.394,3097.8
582.56,3080.5
582.727,3034.6
582.893,3106.5
583.059,3058.7
583.226,3037.0
583.392,3043.2
583.558,3071.9
583.725,3087.1
583.891,3047.9
584.057,3054.9
584.224,3084.4
584.39,3032.1
584.556,3076.0
584.722,3076.8
584.889,3052.7
585.055,3051.2
585.221,3062.0
585.387,3047.8
585.554,3045.5
585.72,3097.4
585.886,3101.0
586.052,3021.2
586.219,3099.0
586.385,3082.4
586.551,3083.1
586.717,3101.3
586.883,3101.4
587.049,3079.5
587.216,3101.4
587.382,3111.5
587.548,3208.9
587.714,3090.3
587.88,3096.0
588.046,3133.0
588.212,3145.3
588.379,3190.2
588.545,3127.4
588.711,3152.6
588.877,3123.3
589.043,3162.4
589.209,3170.6
589.375,3150.5
589.541,3176.0
589.707,3161.6
589.873,3211.0
590.039,3187.4
590.205,3190.0
590.371,3176.4
590.537,3166.6
590.703,3225.3
590.869,3182.0
591.035,3224.4
591.201,3231.3
591.367,3247.4
591.533,3240.1
591.699,3251.3
591.865,3287.3
592.031,3277.0
592.197,3270.7
592.363,3253.2
592.529,3257.8
592.695,3269.9
592.86,3243.8
593.026,3263.3
593.192,3285.0
593.358,3311.2
593.524,3274.4
593.69,3283.4
593.856,3285.9
594.022,3278.3
594.187,3327.3
594.353,3309.5
594.519,3308.8
594.685,3293.8
594.851,3291.4
595.016,3321.2
595.182,3310.3
595.348,3289.8
595.514,3361.6
595.679,3336.0
595.845,3332.7
596.011,3391.1
596.177,3328.8
596.342,3365.7
596.508,3362.9
596.674,3354.6
596.84,3366.7
597.005,3393.1
597.171,3360.0
597.337,3348.1
597.502,3356.6
597.668,3422.7
597.834,3385.6
597.999,3384.6
598.165,3406.4
598.331,3411.3
598.496,3377.0
598.662,3447.2
598.827,3420.7
598.993,3434.7
599.159,3470.7
599.324,3493.2
599.49,3450.5
599.655,3491.1
599.821,3440.4
599.987,3468.8
600.152,3463.4
600.318,3465.6
600.483,3478.1
600.649,3473.5
600.814,3486.6
600.98,3455.3
601.145,3507.7
601.311,3444.2
601.476,3497.6
601.642,3466.2
601.807,3455.9
601.973,3438.6
602.138,3467.6
602.303,3458.4
602.469,3426.0
602.634,3462.7
602.8,3430.3
602.965,3398.9
603.13,3409.9
603.296,3413.8
603.461,3382.5
603.627,3386.9
603.792,3340.6
603.957,3333.9
604.123,3300.9
604.288,3336.8
604.453,3309.1
604.619,3298.0
604.784,3270.7
604.949,3289.8
605.115,3280.8
605.28,3202.5
605.445,3243.8
605.61,3202.9
605.776,3165.5
605.941,3220.4
606.106,3182.4
606.272,3190.8
606.437,3131.5
606.602,3155.1
606.767,3123.3
606.932,3160.0
607.098,3085.5
607.263,3151.9
607.428,3103.3
607.593,3064.6
607.758,3044.1
607.923,3039.4
608.089,3051.6
608.254,3057.9
608.419,3010.2
608.584,3018.3
608.749,2993.2
608.914,2973.1
609.079,3040.4
609.244,2978.6
609.41,2980.4
609.575,2965.5
609.74,2983.8
609.905,2932.6
610.07,2956.1
610.235,2974.9
610.4,2955.3
610.565,2944.9
610.73,2936.7
610.895,2953.3
611.06,2956.1
611.225,2944.0
611.39,2923.7
611.555,2902.0
611.72,2910.3
611.885,2862.5
612.05,2879.5
612.215,2853.7
612.38,2852.1
612.545,2903.6
612.709,2854.7
612.874,2862.5
613.039,2830.4
613.204,2822.4
613.369,2831.7
613.534,2809.8
613.699,2825.7
613.864,2829.6
614.028,2838.6
614.193,2802.3
614.358,2829.0
614.523,2813.6
614.688,2797.2
614.853,2777.0
615.017,2799.7
615.182,2797.1
615.347,2801.9
615.512,2823.5
615.676,2782.9
615.841,2807.5
616.006,2786.7
616.171,2762.5
616.335,2753.1
616.5,2785.0
616.665,2788.1
616.829,2761.7
616.994,2745.1
617.159,2755.4
617.324,2788.9
617.488,2776.0
617.653,2776.9
617.818,2774.8
617.982,2757.6
618.147,2728.8
618.311,2727.7
618.476,2752.9
618.641,2734.4
618.805,2742.2
618.97,2748.6
619.134,2745.5
619.299,2756.0
619.463,2769.0
619.628,2745.3
619.793,2733.2
619.957,2750.8
620.122,2736.0
620.286,2742.8
620.451,2726.8
620.615,2758.1
620.78,2743.4
620.944,2706.6
621.109,2764.7
621.273,2791.0
621.438,2783.2
621.602,2786.2
621.766,2826.5
621.931,2797.4
622.095,2810.8
622.26,2851.8
622.424,2859.4
622.588,2804.4
622.753,2750.7
622.917,2733.7
623.082,2764.8
623.246,2708.8
623.41,2742.2
623.575,2705.3
623.739,2719.6
623.903,2675.3
624.068,2697.4
624.232,2723.7
624.396,2715.9
624.56,2718.6
624.725,2684.0
624.889,2701.8
625.053,2707.1
625.218,2686.6
625.382,2726.2
625.546,2711.4
625.71,2745.9
625.874,2751.1
626.039,2788.3
626.203,2811.7
626.367,2871.1
626.531,3028.8
626.695,3368.0
626.86,3826.8
627.024,4498.9
627.188,4833.1
627.352,4767.9
627.516,4402.6
627.68,4150.3
627.844,4004.7
628.008,4085.8
628.172,4134.2
628.337,4497.4
628.501,4813.2
628.665,4664.7
628.829,4341.7
628.993,4175.1
629.157,4063.0
629.321,3939.4
629.485,3903.5
629.649,3792.6
629.813,3683.2
629.977,3581.4
630.141,3583.8
630.305,3562.0
630.469,3485.6
630.633,3390.8
630.797,3312.4
630.961,3125.2
631.124,2983.3
631.288,2935.6
631.452,2820.4
631.616,2775.9
631.78,2791.4
631.944,2775.9
632.108,2750.8
632.272,2718.8
632.436,2732.8
632.599,2690.7
632.763,2673.1
632.927,2714.6
633.091,2657.1
633.255,2684.3
633.418,2677.1
633.582,2660.4
633.746,2668.0
633.91,2657.4
634.074,2642.5
634.237,2667.6
634.401,2620.6
634.565,2630.6
634.728,2623.1
634.892,2624.9
635.056,2642.1
635.22,2618.1
635.383,2613.4
635.547,2612.3
635.711,2608.6
635.874,2624.9
636.038,2602.1
636.202,2578.7
636.365,2623.4
636.529,2615.7
636.692,2601.4
636.856,2601.3
637.02,2591.3
637.183,2617.6
637.347,2573.0
637.51,2601.4
637.674,2576.5
637.837,2607.7
638.001,2589.4
638.164,2574.5
638.328,2558.3
638.491,2585.5
638.655,2589.1
638.818,2560.5
638.982,2577.9
639.145,2570.4
639.309,2514.0
639.472,2566.1
639.636,2554.7
639.799,2585.5
639.963,2554.2
640.126,2542.9
640.289,2533.8
640.453,2534.7
640.616,2538.5
640.78,2550.3
640.943,2556.6
641.106,2557.5
641.27,2556.7
641.433,2522.1
641.596,2543.0
641.76,2520.8
641.923,2535.3
642.086,2550.9
642.249,2548.2
642.413,2524.2
642.576,2558.9
642.739,2510.7
642.903,2549.6
643.066,2529.4
643.229,2526.0
643.392,2539.8
643.555,2539.0
643.719,2508.6
643.882,2548.6
644.045,2543.4
644.208,2539.5
644.371,2524.1
644.534,2504.2
644.698,2512.8
644.861,2501.8
645.024,2530.7
645.187,2498.1
645.35,2497.9
645.513,2536.4
645.676,2525.9
645.839,2521.5
646.002,2490.8
646.165,2503.2
646.329,2506.2
646.492,2530.2
646.655,2501.5
646.818,2475.7
646.981,2463.8
647.144,2493.7
647.307,2507.5
647.47,2496.3
647.633,2476.7
647.796,2466.4
647.958,2501.9
648.121,2481.9
648.284,2473.9
648.447,2495.3
648.61,2492.7
648.773,2452.5
648.936,2454.4
649.099,2466.5
649.262,2445.8
649.425,2421.2
649.587,2450.6
649.75,2495.0
649.913,2463.8
650.076,2452.8
650.239,2426.1
650.402,2444.1
650.564,2463.3
650.727,2465.3
650.89,2469.3
651.053,2440.9
651.215,2423.5
651.378,2432.4
651.541,2453.5
651.704,2415.5
651.866,2450.5
652.029,2437.2
652.192,2436.3
652.354,2454.6
652.517,2397.5
652.68,2440.8
652.842,2432.3
653.005,2423.2
653.168,2405.0
653.33,2395.1
653.493,2423.8
653.656,2412.8
653.818,2403.3
653.981,2396.3
654.143,2408.5
654.306,2427.6
654.468,2417.0
654.631,2391.1
654.794,2390.4
654.956,2405.7
655.119,2390.5
655.281,2404.1
655.444,2390.0
655.606,2357.8
655.769,2379.2
655.931,2367.5
656.093,2379.5
656.256,2367.1
656.418,2366.9
656.581,2366.6
656.743,2362.6
656.906,2357.9
657.068,2328.2
657.23,2337.5
657.393,2351.6
657.555,2346.8
657.718,2345.9
657.88,2317.8
658.042,2321.9
658.205,2324.3
658.367,2287.6
658.529,2311.8
658.691,2295.7
658.854,2304.0
659.016,2303.4
659.178,2298.6
659.341,2274.5
659.503,2287.8
659.665,2277.4
659.827,2263.2
659.989,2289.1
660.152,2284.6
660.314,2237.9
660.476,2247.7
660.638,2254.0
660.8,2248.4
660.963,2234.4
661.044,2237.6