File: spectra/VLFR_06-PET_bio_Raman_044a2b98.csv
nm,Intensity
526.508,829.1
526.645,830.0
526.782,829.4
526.919,831.4
527.055,828.9
527.192,831.1
527.329,828.9
527.465,830.7
527.602,828.8
527.739,830.4
527.875,831.0
528.012,829.7
528.149,830.2
528.285,829.0
528.422,831.0
528.558,829.8
528.695,830.3
528.832,830.5
528.968,830.6
529.105,830.6
529.241,828.7
529.378,830.0
529.514,829.7
529.651,829.6
529.787,828.6
529.924,831.0
530.061,830.1
530.197,830.2
530.334,830.7
530.47,830.4
530.606,830.6
530.743,828.8
530.879,829.9
531.016,829.6
531.152,829.4
531.289,830.2
531.425,831.2
531.562,828.6
531.698,829.2
531.834,831.5
531.971,833.4
532.107,862.7
532.244,880.3
532.38,842.4
532.516,830.7
532.653,829.5
532.789,830.1
532.925,830.2
533.062,829.1
533.198,830.4
533.334,830.7
533.471,831.4
533.607,838.5
533.743,899.3
533.879,1203.1
534.016,1697.9
534.152,1919.1
534.288,1891.1
534.424,1789.2
534.561,1684.9
534.697,1620.9
534.833,1550.2
534.969,1465.8
535.106,1382.9
535.242,1320.6
535.378,1262.0
535.514,1224.9
535.65,1185.9
535.786,1141.2
535.923,1106.7
536.059,1079.5
536.195,1046.4
536.331,1034.8
536.467,1018.2
536.603,1004.8
536.739,995.7
536.876,987.5
537.012,985.9
537.148,979.4
537.284,976.4
537.42,974.1
537.556,970.1
537.692,967.0
537.828,962.5
537.964,962.8
538.1,965.2
538.236,962.3
538.372,975.2
538.508,972.9
538.644,973.2
538.78,968.9
538.916,971.6
539.052,965.3
539.188,969.4
539.324,964.5
539.46,972.3
539.596,976.8
539.732,982.1
539.868,990.4
540.004,991.1
540.14,982.0
540.275,979.8
540.411,967.8
540.547,958.5
540.683,950.7
540.819,948.2
540.955,947.8
541.091,943.7
541.227,943.9
541.362,937.3
541.498,938.6
541.634,942.1
541.77,938.1
541.906,942.8
542.041,938.1
542.177,942.2
542.313,940.5
542.449,946.6
542.585,935.5
542.72,942.9
542.856,938.3
542.992,943.7
543.128,938.0
543.263,940.0
543.399,937.3
543.535,943.1
543.67,937.7
543.806,948.9
543.942,948.9
544.078,947.3
544.213,946.4
544.349,947.2
544.485,946.2
544.62,946.1
544.756,943.0
544.892,947.4
545.027,948.5
545.163,948.0
545.298,947.2
545.434,951.1
545.57,944.7
545.705,952.1
545.841,950.5
545.976,948.8
546.112,948.2
546.248,949.3
546.383,953.4
546.519,952.9
546.654,953.8
546.79,953.2
546.925,955.1
547.061,956.8
547.196,955.8
547.332,954.7
547.467,956.0
547.603,957.5
547.738,957.3
547.874,957.2
548.009,957.5
548.145,956.0
548.28,956.4
548.416,956.9
548.551,958.1
548.686,959.8
548.822,957.4
548.957,957.1
549.093,955.9
549.228,964.2
549.363,956.9
549.499,962.1
549.634,959.4
549.77,961.8
549.905,966.9
550.04,962.5
550.176,966.9
550.311,966.7
550.446,973.8
550.582,1029.9
550.717,1136.7
550.852,1073.6
550.988,986.3
551.123,973.6
551.258,969.4
551.394,973.8
551.529,976.8
551.664,969.7
551.799,971.9
551.935,968.6
552.07,972.2
552.205,982.3
552.34,976.5
552.476,975.9
552.611,978.6
552.746,1006.0
552.881,1035.3
553.016,1021.3
553.152,998.0
553.287,980.0
553.422,981.0
553.557,983.7
553.692,984.4
553.827,985.5
553.963,984.2
554.098,979.6
554.233,986.2
554.368,982.3
554.503,984.4
554.638,986.9
554.773,985.5
554.908,993.9
555.043,990.9
555.179,989.6
555.314,999.9
555.449,1006.5
555.584,1035.0
555.719,1053.8
555.854,1042.2
555.989,1039.7
556.124,1041.3
556.259,1051.5
556.394,1050.3
556.529,1049.3
556.664,1057.4
556.799,1058.3
556.934,1063.2
557.069,1069.9
557.204,1094.4
557.339,1123.1
557.474,1182.7
557.609,1230.2
557.744,1196.3
557.879,1131.2
558.014,1081.0
558.149,1076.4
558.284,1072.4
558.419,1077.6
558.553,1075.8
558.688,1066.7
558.823,1054.4
558.958,1049.3
559.093,1036.7
559.228,1025.4
559.363,1022.4
559.498,1018.6
559.632,1012.4
559.767,1016.7
559.902,1018.0
560.037,1017.9
560.172,1019.8
560.307,1013.8
560.441,1017.3
560.576,1020.8
560.711,1015.7
560.846,1019.9
560.981,1020.7
561.115,1022.1
561.25,1027.4
561.385,1024.1
561.52,1020.4
561.654,1027.9
561.789,1027.1
561.924,1026.4
562.059,1035.0
562.193,1050.6
562.328,1039.2
562.463,1036.0
562.598,1045.0
562.732,1048.9
562.867,1056.0
563.002,1063.9
563.136,1059.2
563.271,1066.2
563.406,1058.1
563.54,1052.8
563.675,1058.1
563.81,1049.0
563.944,1048.6
564.079,1045.9
564.213,1047.8
564.348,1049.5
564.483,1060.9
564.617,1060.4
564.752,1073.1
564.887,1080.8
565.021,1097.6
565.156,1120.7
565.29,1140.5
565.425,1144.2
565.559,1157.4
565.694,1170.5
565.828,1185.8
565.963,1174.7
566.098,1157.8
566.232,1137.3
566.367,1113.9
566.501,1092.9
566.636,1075.5
566.77,1077.9
566.905,1067.5
567.039,1065.0
567.174,1065.2
567.308,1071.0
567.443,1086.3
567.577,1115.3
567.711,1137.4
567.846,1132.0
567.98,1106.9
568.115,1087.8
568.249,1081.9
568.384,1074.7
568.518,1075.0
568.652,1077.5
568.787,1074.6
568.921,1075.9
569.056,1072.3
569.19,1075.1
569.324,1079.6
569.459,1083.7
569.593,1084.2
569.727,1101.7
569.862,1100.2
569.996,1108.1
570.131,1117.4
570.265,1129.1
570.399,1146.2
570.534,1178.3
570.668,1205.5
570.802,1230.7
570.936,1255.1
571.071,1304.9
571.205,1345.0
571.339,1374.9
571.474,1372.8
571.608,1326.4
571.742,1267.6
571.876,1235.7
572.011,1232.8
572.145,1201.9
572.279,1167.1
572.413,1153.2
572.548,1133.0
572.682,1118.2
572.816,1119.3
572.95,1111.0
573.084,1109.8
573.219,1109.9
573.353,1109.6
573.487,1111.5
573.621,1109.8
573.755,1116.9
573.889,1125.9
574.024,1140.4
574.158,1144.0
574.292,1136.9
574.426,1125.6
574.56,1113.7
574.694,1122.7
574.828,1123.9
574.963,1127.4
575.097,1131.5
575.231,1147.1
575.365,1168.7
575.499,1167.4
575.633,1143.8
575.767,1133.7
575.901,1133.3
576.035,1134.3
576.169,1143.6
576.303,1154.0
576.437,1167.1
576.571,1165.5
576.706,1165.8
576.84,1170.6
576.974,1171.3
577.108,1154.7
577.242,1159.5
577.376,1141.2
577.51,1143.1
577.644,1135.5
577.778,1135.8
577.912,1137.9
578.046,1138.9
578.179,1128.3
578.313,1138.0
578.447,1135.1
578.581,1136.5
578.715,1137.8
578.849,1139.7
578.983,1141.1
579.117,1131.8
579.251,1138.5
579.385,1151.5
579.519,1144.2
579.653,1146.4
579.787,1144.8
579.921,1150.1
580.054,1152.0
580.188,1143.2
580.322,1151.3
580.456,1150.8
580.59,1155.9
580.724,1158.7
580.858,1166.8
580.991,1172.6
581.125,1168.8
581.259,1172.8
581.393,1184.6
581.527,1196.9
581.661,1250.4
581.794,1333.0
581.928,1518.2
582.062,1887.7
582.196,2286.6
582.33,2107.8
582.463,1559.5
582.597,1291.4
582.731,1222.1
582.865,1198.2
582.998,1189.9
583.132,1176.1
583.266,1179.3
583.4,1172.7
583.533,1172.6
583.667,1175.9
583.801,1180.7
583.935,1175.8
584.068,1184.1
584.202,1179.4
584.336,1183.7
584.469,1190.8
584.603,1196.2
584.737,1194.1
584.87,1197.9
585.004,1203.1
585.138,1215.5
585.271,1241.2
585.405,1290.6
585.539,1389.7
585.672,1537.3
585.806,1691.4
585.94,1765.0
586.073,1777.4
586.207,1728.7
586.34,1649.4
586.474,1529.1
586.608,1417.6
586.741,1325.0
586.875,1267.7
587.008,1241.2
587.142,1232.1
587.276,1218.6
587.409,1210.2
587.543,1205.4
587.676,1200.1
587.81,1204.5
587.943,1195.3
588.077,1202.4
588.21,1201.4
588.344,1196.8
588.478,1192.7
588.611,1187.2
588.745,1193.1
588.878,1190.0
589.012,1197.8
589.145,1192.6
589.279,1192.6
589.412,1188.7
589.546,1188.6
589.679,1194.8
589.812,1192.2
589.946,1190.5
590.079,1195.1
590.213,1204.2
590.346,1193.4
590.48,1200.7
590.613,1193.6
590.747,1197.1
590.88,1194.6
591.013,1195.9
591.147,1199.7
591.28,1202.3
591.414,1198.8
591.547,1199.7
591.68,1203.9
591.814,1197.5
591.947,1208.6
592.081,1202.1
592.214,1195.9
592.347,1205.5
592.481,1196.3
592.614,1203.5
592.747,1205.0
592.881,1196.4
593.014,1204.2
593.147,1195.8
593.281,1203.5
593.414,1204.6
593.547,1207.7
593.681,1201.4
593.814,1194.2
593.947,1205.2
594.081,1209.1
594.214,1208.9
594.347,1206.2
594.48,1207.6
594.614,1212.0
594.747,1209.1
594.88,1206.6
595.014,1210.1
595.147,1210.7
595.28,1208.2
595.413,1211.9
595.547,1220.4
595.68,1206.2
595.813,1213.1
595.946,1210.0
596.079,1216.4
596.213,1216.0
596.346,1216.3
596.479,1221.5
596.612,1209.7
596.745,1220.7
596.879,1211.5
597.012,1220.6
597.145,1221.7
597.278,1216.0
597.411,1220.1
597.545,1213.9
597.678,1212.2
597.811,1221.9
597.944,1225.8
598.077,1229.4
598.21,1223.5
598.343,1221.1
598.476,1226.5
598.61,1226.9
598.743,1223.2
598.876,1227.7
599.009,1227.5
599.142,1228.3
599.275,1222.9
599.408,1229.9
599.541,1231.0
599.674,1225.0
599.807,1223.2
599.941,1223.4
600.074,1227.2
600.207,1222.3
600.34,1221.0
600.473,1226.2
600.606,1228.5
600.739,1228.9
600.872,1216.1
601.005,1227.5
601.138,1223.8
601.271,1224.4
601.404,1229.8
601.537,1226.7
601.67,1221.7
601.803,1227.5
601.936,1227.4
602.069,1224.2
602.202,1229.3
602.335,1218.4
602.468,1221.0
602.601,1222.3
602.734,1225.3
602.867,1228.5
603.0,1228.9
603.133,1226.9
603.266,1223.5
603.399,1230.0
603.532,1232.8
603.664,1231.1
603.797,1232.1
603.93,1231.5
604.063,1228.2
604.196,1235.2
604.329,1224.3
604.462,1231.6
604.595,1229.2
604.728,1221.5
604.861,1223.6
604.994,1223.2
605.126,1227.5
605.259,1228.1
605.392,1220.2
605.525,1219.4
605.658,1219.4
605.791,1215.0
605.924,1216.7
606.056,1210.6
606.189,1221.0
606.322,1222.9
606.455,1228.2
606.588,1221.8
606.721,1222.4
606.853,1215.7
606.986,1222.5
607.119,1231.8
607.252,1222.0
607.385,1231.4
607.517,1229.8
607.65,1226.7
607.783,1226.1
607.916,1225.3
608.049,1231.5
608.181,1220.9
608.314,1228.0
608.447,1226.3
608.58,1222.5
608.712,1221.9
608.845,1229.1
608.978,1228.2
609.111,1234.2
609.243,1232.3
609.376,1230.8
609.509,1229.4
609.641,1228.9
609.774,1235.0
609.907,1231.0
610.04,1230.2
610.172,1228.5
610.305,1225.6
610.438,1221.2
610.57,1228.3
610.703,1232.2
610.836,1231.4
610.968,1235.2
611.101,1233.7
611.234,1227.0
611.366,1225.2
611.499,1229.3
611.632,1238.2
611.764,1236.4
611.897,1237.2
612.03,1229.7
612.162,1230.1
612.295,1239.3
612.428,1240.8
612.56,1240.7
612.693,1243.8
612.825,1239.6
612.958,1250.9
613.091,1239.5
613.223,1251.2
613.356,1251.1
613.488,1251.5
613.621,1253.9
613.754,1244.2
613.886,1254.7
614.019,1248.8
614.151,1256.5
614.284,1253.3
614.416,1253.4
614.549,1256.4
614.681,1254.7
614.814,1250.7
614.947,1255.2
615.079,1251.8
615.212,1247.1
615.344,1251.6
615.477,1255.2
615.609,1248.6
615.742,1253.0
615.874,1250.4
616.007,1256.6
616.139,1256.0
616.272,1259.9
616.404,1254.4
616.537,1248.3
616.669,1261.1
616.802,1265.0
616.934,1263.6
617.067,1261.3
617.199,1257.7
617.332,1262.5
617.464,1268.7
617.596,1262.0
617.729,1271.6
617.861,1273.7
617.994,1269.6
618.126,1266.4
618.259,1271.6
618.391,1274.1
618.524,1276.3
618.656,1273.4
618.788,1267.2
618.921,1262.9
619.053,1264.9
619.186,1263.2
619.318,1261.4
619.45,1268.4
619.583,1261.9
619.715,1261.9
619.848,1266.4
619.98,1259.2
620.112,1274.5
620.245,1269.2
620.377,1261.7
620.509,1266.7
620.642,1270.3
620.774,1261.1
620.907,1260.4
621.039,1263.0
621.171,1263.4
621.304,1266.2
621.436,1266.3
621.568,1267.0
621.701,1270.4
621.833,1263.9
621.965,1274.3
622.097,1271.8
622.23,1274.3
622.362,1269.8
622.494,1280.2
622.627,1273.4
622.759,1279.2
622.891,1278.5
623.024,1286.5
623.156,1277.1
623.288,1295.3
623.42,1277.0
623.553,1279.3
623.685,1294.2
623.817,1282.7
623.949,1287.2
624.082,1287.9
624.214,1295.9
624.346,1292.8
624.479,1297.4
624.611,1298.9
624.743,1292.5
624.875,1294.3
625.007,1298.0
625.14,1296.6
625.272,1304.8
625.404,1298.9
625.536,1295.9
625.669,1300.1
625.801,1300.5
625.933,1295.5
626.065,1295.3
626.197,1301.3
626.33,1302.3
626.462,1295.1
626.594,1295.7
626.726,1300.2
626.858,1303.7
626.99,1300.2
627.123,1300.9
627.255,1304.8
627.387,1303.5
627.519,1313.5
627.651,1309.1
627.783,1312.7
627.916,1311.4
628.048,1319.8
628.18,1328.1
628.312,1324.8
628.444,1329.9
628.576,1337.1
628.708,1345.3
628.84,1344.1
628.973,1345.9
629.105,1367.4
629.237,1351.4
629.369,1362.1
629.501,1355.9
629.633,1352.7
629.765,1354.2
629.897,1347.3
630.029,1351.7
630.161,1357.5
630.294,1358.0
630.426,1355.0
630.558,1356.9
630.69,1359.9
630.822,1375.9
630.954,1390.1
631.086,1409.6
631.218,1445.0
631.35,1482.8
631.482,1503.6
631.614,1543.6
631.746,1575.7
631.878,1563.2
632.01,1553.0
632.142,1532.2
632.274,1508.0
632.406,1486.2
632.538,1470.7
632.67,1467.2
632.802,1443.6
632.934,1444.0
633.066,1438.7
633.198,1436.1
633.33,1440.1
633.462,1438.8
633.594,1430.0
633.726,1424.7
633.858,1416.4
633.99,1414.4
634.122,1401.8
634.254,1403.0
634.386,1394.1
634.518,1389.9
634.65,1393.6
634.782,1391.2
634.914,1388.5
635.046,1393.8
635.178,1386.9
635.31,1400.8
635.442,1408.2
635.574,1411.7
635.706,1433.2
635.838,1456.5
635.97,1485.3
636.102,1514.8
636.234,1547.8
636.365,1577.6
636.497,1628.5
636.629,1659.8
636.761,1625.1
636.893,1587.1
637.025,1530.4
637.157,1492.8
637.289,1466.4
637.421,1442.2
637.553,1434.3
637.685,1436.5
637.816,1422.0
637.948,1419.8
638.08,1425.9
638.212,1406.9
638.344,1418.0
638.476,1417.7
638.608,1420.9
638.74,1414.9
638.871,1414.9
639.003,1410.9
639.135,1416.7
639.267,1424.3
639.399,1416.0
639.531,1424.2
639.662,1421.9
639.794,1417.8
639.926,1417.3
640.058,1414.7
640.19,1423.3
640.322,1422.3
640.453,1422.1
640.585,1428.5
640.717,1426.1
640.849,1428.5
640.981,1421.0
641.113,1427.7
641.244,1435.4
641.376,1436.8
641.508,1433.4
641.64,1436.3
641.772,1441.4
641.903,1438.3
642.035,1444.8
642.167,1448.6
642.299,1451.4
642.43,1447.3
642.562,1444.0
642.694,1441.5
642.826,1451.1
642.958,1434.9
643.089,1444.7
643.221,1440.2
643.353,1437.4
643.485,1446.0
643.616,1437.7
643.748,1440.5
643.88,1430.7
644.012,1441.8
644.143,1429.5
644.275,1439.2
644.407,1436.9
644.538,1434.6
644.67,1436.8
644.802,1435.7
644.934,1446.9
645.065,1434.6
645.197,1441.3
645.329,1443.3
645.461,1446.9
645.592,1443.8
645.724,1440.5
645.856,1445.3
645.987,1439.2
646.119,1448.1
646.251,1451.9
646.382,1449.7
646.514,1449.0
646.646,1451.1
646.777,1458.3
646.909,1457.8
647.041,1459.8
647.172,1456.7
647.304,1460.2
647.436,1451.1
647.567,1463.3
647.699,1460.3
647.831,1462.8
647.962,1467.3
648.094,1475.4
648.226,1466.1
648.357,1460.2
648.489,1468.8
648.621,1459.1
648.752,1463.5
648.884,1462.2
649.016,1458.4
649.147,1456.6
649.279,1461.7
649.411,1463.4
649.542,1456.7
649.674,1462.5
649.805,1466.1
649.937,1460.8
650.069,1460.0
650.2,1450.4
650.332,1452.0
650.463,1461.1
650.595,1469.2
650.727,1466.8
650.858,1463.8
650.99,1463.3
651.121,1464.7
651.253,1472.0
651.385,1476.0
651.516,1462.1
651.648,1462.6
651.779,1473.5
651.911,1473.8
652.043,1474.8
652.174,1476.3
652.306,1475.7
652.437,1470.1
652.569,1476.0
652.7,1469.8
652.832,1474.0
652.963,1470.6
653.095,1478.0
653.227,1486.6
653.358,1476.9
653.49,1474.5
653.621,1483.7
653.753,1482.5
653.884,1477.2
654.016,1484.9
654.147,1480.4
654.279,1480.1
654.41,1477.0
654.542,1475.7
654.674,1472.4
654.805,1484.7
654.937,1485.6
655.068,1479.7
655.2,1481.4
655.331,1484.9
655.463,1479.4
655.594,1476.9
655.726,1480.7
655.857,1485.6
655.989,1485.0
656.12,1484.2
656.252,1480.8
656.383,1486.9
656.515,1494.4
656.646,1489.6
656.778,1492.7
656.909,1487.7
657.041,1482.6
657.172,1490.6
657.304,1480.3
657.435,1490.0
657.567,1485.5
657.698,1488.6
657.829,1482.3
657.961,1486.4
658.092,1489.5
658.224,1470.6
658.355,1496.0
658.487,1483.4
658.618,1489.6
658.75,1493.3
658.881,1479.0
659.013,1492.2
659.144,1489.8
659.275,1501.4
659.407,1491.4
659.538,1493.6
659.67,1490.1
659.801,1487.9
659.933,1483.3
660.064,1490.1
660.196,1493.0
660.327,1489.9
660.458,1489.6
660.59,1488.8
660.721,1489.0
660.853,1476.6
660.984,1482.6
661.116,1483.0
661.247,1483.8
661.378,1473.4
661.51,1477.6
661.641,1483.5
661.773,1481.2
661.904,1475.4
662.035,1482.4
662.167,1489.7
662.298,1478.8
662.43,1471.6
662.561,1470.2
662.692,1476.4
662.824,1480.3
662.955,1474.3
663.087,1468.4