File: spectra/VLFR_01-LDPE_bio_Raman_41330f71.csv
nm,Intensity
526.495,830.3
526.632,829.4
526.768,829.5
526.905,830.4
527.042,829.8
527.179,829.6
527.315,830.0
527.452,828.2
527.589,830.1
527.725,829.7
527.862,827.9
527.999,828.7
528.136,827.1
528.272,830.4
528.409,828.9
528.546,828.7
528.682,828.7
528.819,828.7
528.955,829.3
529.092,829.6
529.229,828.9
529.365,828.0
529.502,827.4
529.639,830.1
529.775,829.8
529.912,827.5
530.048,827.6
530.185,828.3
530.321,829.9
530.458,828.9
530.594,829.3
530.731,828.7
530.867,829.3
531.004,829.7
531.14,829.0
531.277,829.9
531.413,828.5
531.55,830.5
531.686,828.0
531.823,829.7
531.959,832.9
532.096,866.3
532.232,875.7
532.369,839.5
532.505,830.8
532.641,831.5
532.778,829.2
532.914,829.0
533.051,830.1
533.187,829.2
533.323,829.2
533.46,829.1
533.596,829.2
533.732,830.2
533.869,833.2
534.005,837.2
534.141,838.3
534.278,840.2
534.414,839.6
534.55,839.5
534.687,838.2
534.823,840.4
534.959,838.1
535.095,838.1
535.232,839.5
535.368,838.1
535.504,837.4
535.64,837.5
535.777,837.7
535.913,839.5
536.049,837.5
536.185,837.7
536.321,837.1
536.457,837.5
536.594,839.1
536.73,836.9
536.866,837.3
537.002,836.0
537.138,838.1
537.274,837.5
537.41,835.9
537.547,839.0
537.683,836.1
537.819,836.0
537.955,838.1
538.091,836.4
538.227,838.4
538.363,838.5
538.499,837.9
538.635,838.7
538.771,836.9
538.907,837.8
539.043,837.1
539.179,839.5
539.315,840.1
539.451,837.7
539.587,837.2
539.723,838.5
539.859,836.1
539.995,836.7
540.131,837.5
540.267,836.5
540.403,835.8
540.539,835.6
540.675,837.6
540.811,835.5
540.947,835.4
541.083,837.7
541.219,837.0
541.354,834.3
541.49,839.7
541.626,837.8
541.762,835.9
541.898,838.1
542.034,836.1
542.17,837.5
542.305,835.2
542.441,836.6
542.577,836.3
542.713,836.4
542.849,836.3
542.984,836.2
543.12,836.6
543.256,836.3
543.392,837.0
543.528,834.8
543.663,835.3
543.799,835.4
543.935,837.4
544.071,837.6
544.206,837.8
544.342,834.7
544.478,835.9
544.613,837.5
544.749,835.0
544.885,836.1
545.02,836.9
545.156,836.2
545.292,836.4
545.427,838.1
545.563,837.3
545.699,837.3
545.834,835.7
545.97,836.7
546.106,835.5
546.241,836.3
546.377,835.9
546.512,835.1
546.648,835.2
546.784,835.3
546.919,836.1
547.055,835.6
547.19,836.1
547.326,838.4
547.461,835.6
547.597,836.3
547.732,836.2
547.868,837.1
548.003,835.8
548.139,835.7
548.274,836.3
548.41,836.9
548.545,836.0
548.681,836.6
548.816,836.6
548.952,834.3
549.087,834.5
549.223,835.4
549.358,836.1
549.494,838.8
549.629,836.0
549.764,835.2
549.9,836.1
550.035,837.4
550.171,836.5
550.306,836.8
550.441,836.0
550.577,836.2
550.712,835.9
550.847,836.2
550.983,836.5
551.118,835.7
551.253,837.1
551.389,837.1
551.524,834.4
551.659,836.3
551.795,835.7
551.93,834.5
552.065,836.6
552.201,836.7
552.336,837.8
552.471,836.6
552.606,836.1
552.742,835.2
552.877,836.7
553.012,837.1
553.147,835.4
553.283,836.4
553.418,836.5
553.553,835.5
553.688,834.8
553.823,836.5
553.959,835.7
554.094,835.6
554.229,836.1
554.364,837.2
554.499,836.4
554.634,837.5
554.769,835.5
554.905,834.5
555.04,836.0
555.175,836.5
555.31,835.6
555.445,837.0
555.58,836.9
555.715,836.1
555.85,837.0
555.985,835.7
556.121,836.1
556.256,836.7
556.391,835.0
556.526,837.1
556.661,837.6
556.796,838.0
556.931,838.3
557.066,836.8
557.201,837.5
557.336,836.7
557.471,836.1
557.606,836.5
557.741,840.0
557.876,836.4
558.011,836.6
558.146,836.2
558.281,836.0
558.416,837.3
558.551,836.3
558.685,836.1
558.82,837.4
558.955,837.7
559.09,836.8
559.225,837.5
559.36,838.3
559.495,837.3
559.63,839.6
559.765,837.2
559.9,837.7
560.034,836.9
560.169,837.2
560.304,836.6
560.439,837.5
560.574,837.7
560.709,837.0
560.843,837.7
560.978,838.0
561.113,835.0
561.248,838.5
561.383,838.3
561.517,837.2
561.652,838.4
561.787,837.3
561.922,836.3
562.057,835.9
562.191,838.4
562.326,837.1
562.461,837.4
562.596,836.9
562.73,838.8
562.865,838.8
563.0,840.6
563.134,839.1
563.269,837.1
563.404,837.7
563.539,838.3
563.673,837.3
563.808,838.0
563.943,842.8
564.077,845.8
564.212,843.4
564.346,840.7
564.481,838.3
564.616,839.7
564.75,840.6
564.885,841.0
565.02,839.8
565.154,839.4
565.289,839.5
565.423,838.1
565.558,839.0
565.693,839.6
565.827,840.5
565.962,839.7
566.096,846.1
566.231,845.5
566.365,843.2
566.5,840.9
566.634,839.5
566.769,841.8
566.903,840.5
567.038,839.9
567.172,840.3
567.307,836.7
567.441,838.4
567.576,840.0
567.71,840.5
567.845,840.2
567.979,838.6
568.114,839.6
568.248,839.3
568.383,839.3
568.517,840.7
568.652,839.3
568.786,840.7
568.92,840.5
569.055,841.8
569.189,840.7
569.324,840.1
569.458,840.2
569.592,842.3
569.727,842.4
569.861,841.3
569.996,839.9
570.13,839.6
570.264,842.2
570.399,841.8
570.533,839.5
570.667,842.0
570.802,842.3
570.936,841.9
571.07,841.3
571.205,842.3
571.339,843.3
571.473,849.0
571.607,854.9
571.742,849.1
571.876,844.7
572.01,844.6
572.144,843.9
572.279,844.6
572.413,844.8
572.547,846.3
572.681,844.5
572.816,845.0
572.95,842.8
573.084,844.5
573.218,842.5
573.353,844.6
573.487,844.3
573.621,841.6
573.755,842.9
573.889,844.9
574.023,845.3
574.158,844.9
574.292,844.7
574.426,844.3
574.56,843.1
574.694,842.7
574.828,842.2
574.963,843.7
575.097,843.1
575.231,844.2
575.365,845.2
575.499,846.0
575.633,848.7
575.767,849.9
575.901,849.4
576.035,849.6
576.169,850.0
576.303,854.0
576.438,853.2
576.572,849.6
576.706,851.0
576.84,849.3
576.974,849.6
577.108,850.3
577.242,850.3
577.376,849.6
577.51,847.2
577.644,848.8
577.778,848.8
577.912,849.2
578.046,845.9
578.18,849.2
578.314,847.8
578.448,848.0
578.582,847.4
578.716,848.8
578.85,848.7
578.984,851.5
579.117,849.5
579.251,848.7
579.385,850.6
579.519,849.3
579.653,850.6
579.787,851.4
579.921,850.7
580.055,849.2
580.189,849.0
580.323,852.7
580.456,852.3
580.59,851.3
580.724,854.5
580.858,852.6
580.992,855.2
581.126,851.3
581.26,855.4
581.393,853.7
581.527,855.1
581.661,852.2
581.795,853.6
581.929,857.2
582.063,856.0
582.196,858.3
582.33,858.1
582.464,858.2
582.598,858.8
582.731,856.9
582.865,857.8
582.999,855.8
583.133,857.4
583.267,858.5
583.4,856.4
583.534,855.6
583.668,858.6
583.801,859.2
583.935,861.1
584.069,860.0
584.203,859.3
584.336,861.0
584.47,859.3
584.604,859.1
584.737,859.2
584.871,856.1
585.005,861.3
585.138,860.7
585.272,863.1
585.406,862.1
585.539,861.3
585.673,863.0
585.807,860.1
585.94,863.7
586.074,862.7
586.208,866.6
586.341,866.6
586.475,864.0
586.608,865.1
586.742,868.0
586.876,867.1
587.009,866.6
587.143,869.5
587.276,870.2
587.41,869.3
587.543,869.8
587.677,870.2
587.811,872.9
587.944,873.4
588.078,870.3
588.211,871.0
588.345,871.7
588.478,871.8
588.612,872.3
588.745,874.3
588.879,873.3
589.012,874.6
589.146,875.5
589.279,875.2
589.413,874.3
589.546,879.7
589.68,876.7
589.813,876.7
589.947,875.5
590.08,875.4
590.214,879.0
590.347,878.5
590.48,881.9
590.614,879.8
590.747,879.0
590.881,880.4
591.014,882.4
591.148,883.1
591.281,882.8
591.414,881.5
591.548,884.2
591.681,884.1
591.815,884.8
591.948,883.4
592.081,883.4
592.215,884.5
592.348,884.4
592.481,886.1
592.615,888.8
592.748,887.5
592.881,888.2
593.015,889.2
593.148,888.7
593.281,891.2
593.415,887.8
593.548,891.6
593.681,891.1
593.815,892.2
593.948,895.4
594.081,895.6
594.215,892.2
594.348,893.2
594.481,894.6
594.614,893.6
594.748,897.2
594.881,898.6
595.014,897.3
595.147,899.7
595.281,896.9
595.414,902.5
595.547,900.0
595.68,901.3
595.814,900.4
595.947,902.0
596.08,905.0
596.213,907.0
596.347,903.4
596.48,908.4
596.613,909.0
596.746,908.1
596.879,912.0
597.012,910.0
597.146,914.2
597.279,909.4
597.412,912.5
597.545,915.1
597.678,912.8
597.811,915.3
597.945,912.7
598.078,913.7
598.211,917.4
598.344,916.4
598.477,915.6
598.61,921.4
598.743,922.3
598.876,921.2
599.009,920.8
599.143,919.6
599.276,925.5
599.409,923.3
599.542,923.3
599.675,925.5
599.808,924.4
599.941,926.4
600.074,931.1
600.207,928.4
600.34,923.1
600.473,929.1
600.606,927.1
600.739,924.7
600.872,922.7
601.005,924.9
601.138,926.1
601.271,925.2
601.404,925.4
601.537,925.3
601.67,925.2
601.803,925.4
601.936,921.5
602.069,920.2
602.202,922.9
602.335,923.8
602.468,925.3
602.601,919.6
602.734,917.0
602.867,920.8
603.0,922.0
603.133,916.7
603.266,919.1
603.399,918.9
603.532,919.9
603.665,919.8
603.798,914.4
603.931,913.7
604.064,916.5
604.196,913.5
604.329,912.8
604.462,913.2
604.595,911.5
604.728,908.1
604.861,911.4
604.994,910.8
605.127,904.6
605.259,903.4
605.392,905.8
605.525,907.9
605.658,904.6
605.791,905.8
605.924,903.0
606.057,898.3
606.189,902.8
606.322,899.6
606.455,897.6
606.588,899.4
606.721,892.9
606.853,896.0
606.986,892.0
607.119,894.0
607.252,894.1
607.385,894.7
607.517,893.8
607.65,890.3
607.783,890.9
607.916,897.5
608.049,891.7
608.181,889.3
608.314,894.6
608.447,887.8
608.58,891.3
608.712,888.6
608.845,885.1
608.978,885.7
609.111,886.6
609.243,885.9
609.376,887.8
609.509,888.7
609.641,883.5
609.774,882.1
609.907,882.1
610.039,881.5
610.172,881.9
610.305,884.2
610.438,881.8
610.57,883.8
610.703,881.9
610.836,879.8
610.968,881.3
611.101,882.0
611.234,878.5
611.366,881.4
611.499,881.7
611.631,879.3
611.764,881.6
611.897,881.3
612.029,884.2
612.162,882.1
612.295,879.4
612.427,879.6
612.56,877.6
612.692,880.3
612.825,878.2
612.958,879.4
613.09,876.0
613.223,877.3
613.355,878.1
613.488,878.6
613.621,878.0
613.753,875.0
613.886,878.3
614.018,880.1
614.151,874.9
614.283,876.9
614.416,876.7
614.548,878.2
614.681,876.0
614.814,875.8
614.946,875.5
615.079,876.6
615.211,874.2
615.344,873.0
615.476,872.9
615.609,871.3
615.741,872.4
615.874,872.2
616.006,871.4
616.139,871.3
616.271,869.8
616.404,872.5
616.536,874.9
616.669,868.2
616.801,871.4
616.933,871.5
617.066,872.0
617.198,870.2
617.331,871.2
617.463,869.9
617.596,870.1
617.728,871.5
617.861,868.5
617.993,869.7
618.125,869.1
618.258,870.4
618.39,869.6
618.523,868.9
618.655,869.5
618.788,869.6
618.92,868.3
619.052,866.6
619.185,865.4
619.317,868.8
619.45,864.6
619.582,870.9
619.714,867.7
619.847,869.1
619.979,867.3
620.111,866.7
620.244,867.5
620.376,867.3
620.509,868.3
620.641,867.3
620.773,867.4
620.906,866.0
621.038,868.0
621.17,868.9
621.303,867.3
621.435,864.2
621.567,869.3
621.7,867.4
621.832,867.0
621.964,868.8
622.096,867.4
622.229,866.9
622.361,867.7
622.493,869.1
622.626,867.9
622.758,866.3
622.89,866.0
623.022,865.6
623.155,868.2
623.287,866.5
623.419,864.3
623.552,863.4
623.684,864.3
623.816,863.4
623.948,864.3
624.081,863.6
624.213,864.5
624.345,865.2
624.477,864.0
624.61,862.1
624.742,864.9
624.874,863.0
625.006,864.9
625.138,861.1
625.271,864.4
625.403,862.4
625.535,864.5
625.667,864.0
625.799,864.2
625.932,862.6
626.064,866.0
626.196,866.5
626.328,865.1
626.46,867.6
626.593,866.6
626.725,868.8
626.857,874.5
626.989,883.4
627.121,895.3
627.253,902.2
627.386,900.3
627.518,896.4
627.65,893.9
627.782,889.8
627.914,885.5
628.046,883.8
628.178,884.3
628.311,889.8
628.443,892.6
628.575,905.1
628.707,907.2
628.839,896.8
628.971,891.2
629.103,891.9
629.235,887.7
629.367,887.3
629.5,880.7
629.632,880.7
629.764,878.8
629.896,882.9
630.028,876.8
630.16,877.2
630.292,879.8
630.424,878.4
630.556,878.5
630.688,874.5
630.82,872.8
630.952,871.8
631.084,867.5
631.216,865.8
631.349,865.9
631.481,865.6
631.613,864.6
631.745,864.2
631.877,864.5
632.009,862.8
632.141,860.8
632.273,863.4
632.405,863.2
632.537,862.2
632.669,861.6
632.801,861.0
632.933,861.7
633.065,861.4
633.197,863.6
633.329,861.8
633.461,859.9
633.593,861.5
633.725,859.4
633.857,859.3
633.989,860.3
634.121,861.3
634.253,857.6
634.385,858.5
634.517,861.6
634.649,859.3
634.781,861.3
634.912,860.5
635.044,861.7
635.176,861.1
635.308,859.4
635.44,860.3
635.572,861.9
635.704,859.5
635.836,860.0
635.968,860.0
636.1,861.6
636.232,860.9
636.364,861.6
636.496,858.9
636.628,859.9
636.76,861.3
636.891,861.5
637.023,862.7
637.155,861.7
637.287,860.6
637.419,860.0
637.551,863.1
637.683,859.5
637.815,862.8
637.947,859.7
638.078,861.1
638.21,859.3
638.342,861.2
638.474,862.5
638.606,862.1
638.738,860.9
638.87,862.4
639.002,864.0
639.133,862.3
639.265,863.8
639.397,861.2
639.529,863.5
639.661,865.1
639.793,863.3
639.924,862.8
640.056,859.1
640.188,862.1
640.32,862.3
640.452,863.8
640.584,863.0
640.715,863.2
640.847,865.0
640.979,865.0
641.111,862.9
641.243,864.4
641.374,866.6
641.506,867.8
641.638,862.0
641.77,864.9
641.902,866.4
642.033,865.9
642.165,865.5
642.297,864.1
642.429,866.5
642.561,863.4
642.692,865.9
642.824,863.9
642.956,865.5
643.088,864.5
643.219,866.0
643.351,864.4
643.483,868.3
643.615,864.9
643.746,866.2
643.878,863.9
644.01,863.7
644.142,866.6
644.273,867.4
644.405,864.7
644.537,864.1
644.669,865.9
644.8,866.8
644.932,865.3
645.064,867.0
645.195,867.7
645.327,868.0
645.459,866.6
645.591,869.3
645.722,868.0
645.854,868.0
645.986,867.2
646.117,868.7
646.249,869.5
646.381,869.9
646.512,869.1
646.644,870.6
646.776,867.6
646.908,867.9
647.039,868.1
647.171,869.2
647.303,865.0
647.434,869.5
647.566,868.3
647.698,866.4
647.829,869.9
647.961,866.8
648.093,869.5
648.224,870.2
648.356,867.4
648.488,871.3
648.619,871.7
648.751,871.0
648.883,868.7
649.014,871.9
649.146,870.5
649.277,869.8
649.409,870.3
649.541,869.4
649.672,869.9
649.804,869.5
649.936,868.0
650.067,869.9
650.199,868.9
650.33,872.0
650.462,869.1
650.594,869.5
650.725,870.8
650.857,870.7
650.988,870.9
651.12,872.2
651.252,872.4
651.383,870.8
651.515,871.3
651.646,872.0
651.778,871.0
651.91,870.7
652.041,872.7
652.173,871.2
652.304,874.0
652.436,870.5
652.568,872.8
652.699,871.9
652.831,871.6
652.962,871.6
653.094,870.6
653.225,872.3
653.357,874.0
653.489,871.8
653.62,872.7
653.752,873.2
653.883,873.2
654.015,868.6
654.146,873.6
654.278,875.5
654.409,870.1
654.541,870.1
654.672,870.9
654.804,870.7
654.935,869.8
655.067,870.8
655.199,871.2
655.33,871.2
655.462,870.1
655.593,870.3
655.725,868.6
655.856,872.0
655.988,872.5
656.119,870.3
656.251,870.7
656.382,867.9
656.514,870.2
656.645,870.1
656.777,869.3
656.908,868.8
657.04,869.2
657.171,870.1
657.303,868.0
657.434,868.9
657.566,866.7
657.697,869.2
657.829,867.9
657.96,867.8
658.092,867.7
658.223,865.3
658.355,869.2
658.486,868.4
658.617,867.7
658.749,866.5
658.88,867.2
659.012,864.9
659.143,864.7
659.275,864.1
659.406,863.8
659.538,863.6
659.669,864.2
659.801,862.1
659.932,861.9
660.064,863.6
660.195,864.4
660.326,863.7
660.458,860.5
660.589,865.0
660.721,863.3
660.852,861.5
660.984,861.6
661.115,861.5
661.246,860.1
661.378,859.6
661.509,858.2
661.641,861.6
661.772,859.9
661.904,859.9
662.035,860.5
662.166,859.6
662.298,857.4
662.429,856.3
662.561,858.8
662.692,856.7
662.823,856.7
662.955,858.9
663.086,857.4