File: spectra/VLFR_02-HDPE_nobio_Raman_2bad5794.csv
nm,Intensity
526.486,830.0
526.622,829.9
526.759,830.2
526.896,830.6
527.033,830.4
527.169,830.7
527.306,831.7
527.443,828.7
527.579,828.8
527.716,830.3
527.853,830.1
527.989,831.2
528.126,830.4
528.263,829.5
528.399,829.1
528.536,829.3
528.672,829.9
528.809,830.7
528.946,830.0
529.082,830.1
529.219,830.5
529.355,830.4
529.492,829.4
529.628,828.8
529.765,828.1
529.901,831.1
530.038,831.4
530.174,829.7
530.311,830.0
530.447,830.2
530.584,828.6
530.72,830.2
530.857,829.0
530.993,829.0
531.13,829.7
531.266,828.7
531.403,830.9
531.539,830.3
531.676,829.1
531.812,830.0
531.948,833.0
532.085,852.4
532.221,871.0
532.358,840.8
532.494,832.3
532.63,830.5
532.767,831.0
532.903,830.0
533.039,830.3
533.176,828.5
533.312,829.7
533.448,830.7
533.585,829.3
533.721,834.3
533.857,855.3
533.993,893.6
534.13,915.2
534.266,913.4
534.402,907.2
534.539,902.3
534.675,898.3
534.811,897.8
534.947,893.3
535.083,894.3
535.22,889.2
535.356,882.0
535.492,875.1
535.628,874.4
535.764,869.5
535.901,871.2
536.037,866.5
536.173,866.5
536.309,864.9
536.445,863.4
536.581,861.2
536.717,860.5
536.854,859.7
536.99,861.3
537.126,857.9
537.262,859.3
537.398,858.3
537.534,858.7
537.67,860.6
537.806,857.0
537.942,858.9
538.078,860.2
538.214,856.7
538.35,856.5
538.486,855.2
538.622,852.4
538.758,852.9
538.894,851.1
539.03,853.1
539.166,848.5
539.302,850.8
539.438,850.8
539.574,848.6
539.71,847.0
539.846,848.5
539.982,849.7
540.118,847.3
540.254,849.0
540.39,849.1
540.526,846.1
540.662,847.0
540.798,846.4
540.933,848.2
541.069,846.5
541.205,847.4
541.341,846.5
541.477,846.7
541.613,845.1
541.749,844.5
541.884,846.2
542.02,842.7
542.156,847.4
542.292,844.6
542.428,844.0
542.563,845.4
542.699,844.9
542.835,843.2
542.971,842.7
543.106,843.3
543.242,845.0
543.378,843.9
543.514,843.3
543.649,844.9
543.785,845.4
543.921,842.7
544.057,844.2
544.192,842.5
544.328,841.4
544.464,844.3
544.599,843.3
544.735,840.6
544.871,842.7
545.006,843.0
545.142,841.8
545.278,842.6
545.413,841.7
545.549,843.1
545.684,842.7
545.82,840.6
545.956,840.2
546.091,841.9
546.227,840.3
546.362,841.8
546.498,842.5
546.634,842.3
546.769,841.1
546.905,841.4
547.04,839.6
547.176,841.4
547.311,844.1
547.447,842.6
547.582,842.2
547.718,840.0
547.853,841.4
547.989,841.3
548.124,842.6
548.26,843.2
548.395,842.6
548.531,840.8
548.666,840.1
548.802,840.1
548.937,840.8
549.072,839.7
549.208,839.7
549.343,840.1
549.479,840.3
549.614,838.5
549.75,841.1
549.885,839.3
550.02,840.6
550.156,840.1
550.291,839.8
550.426,841.3
550.562,839.1
550.697,839.6
550.832,839.7
550.968,840.4
551.103,839.1
551.238,839.7
551.374,839.2
551.509,840.7
551.644,840.0
551.78,843.2
551.915,840.4
552.05,839.2
552.185,841.8
552.321,838.9
552.456,841.1
552.591,840.0
552.726,840.3
552.862,840.1
552.997,841.3
553.132,844.0
553.267,842.6
553.403,843.4
553.538,845.4
553.673,844.2
553.808,843.4
553.943,844.9
554.078,844.9
554.214,845.9
554.349,844.6
554.484,844.6
554.619,846.9
554.754,843.4
554.889,844.4
555.024,846.0
555.16,846.1
555.295,844.2
555.43,845.7
555.565,844.8
555.7,849.1
555.835,850.5
555.97,847.1
556.105,848.2
556.24,849.3
556.375,847.8
556.51,848.6
556.645,846.9
556.78,851.3
556.915,850.3
557.05,852.0
557.185,850.5
557.32,853.5
557.455,854.5
557.59,851.9
557.725,854.9
557.86,856.8
557.995,857.1
558.13,854.6
558.265,857.2
558.4,857.8
558.535,858.8
558.67,858.9
558.805,858.7
558.94,856.4
559.075,853.0
559.21,855.1
559.345,852.9
559.479,854.3
559.614,853.3
559.749,852.3
559.884,850.0
560.019,851.7
560.154,851.0
560.289,851.3
560.424,851.9
560.558,851.2
560.693,851.1
560.828,850.7
560.963,851.4
561.098,852.2
561.232,850.9
561.367,851.7
561.502,850.5
561.637,854.0
561.772,852.4
561.906,851.9
562.041,853.2
562.176,854.9
562.311,855.6
562.445,854.5
562.58,855.2
562.715,855.9
562.85,858.8
562.984,859.4
563.119,861.0
563.254,860.8
563.388,862.4
563.523,864.1
563.658,871.0
563.792,883.9
563.927,921.8
564.062,975.2
564.196,947.7
564.331,900.5
564.466,886.4
564.6,884.3
564.735,885.7
564.87,880.3
565.004,877.8
565.139,876.7
565.273,870.1
565.408,871.2
565.543,871.0
565.677,874.0
565.812,879.7
565.946,896.0
566.081,938.1
566.215,967.5
566.35,931.7
566.485,895.8
566.619,876.4
566.754,871.5
566.888,867.8
567.023,867.3
567.157,869.1
567.292,864.2
567.426,870.0
567.561,875.8
567.695,866.7
567.83,864.0
567.964,863.0
568.099,859.1
568.233,863.5
568.368,858.7
568.502,859.6
568.636,860.3
568.771,862.8
568.905,860.6
569.04,860.8
569.174,864.0
569.309,865.7
569.443,862.3
569.577,864.8
569.712,861.8
569.846,865.7
569.98,865.7
570.115,866.0
570.249,866.6
570.384,868.2
570.518,873.2
570.652,873.0
570.787,875.2
570.921,878.6
571.055,879.1
571.19,886.7
571.324,903.8
571.458,970.7
571.592,1074.6
571.727,1002.6
571.861,937.3
571.995,914.4
572.13,907.4
572.264,894.3
572.398,891.5
572.532,885.3
572.667,879.8
572.801,878.1
572.935,878.6
573.069,879.8
573.204,880.4
573.338,876.8
573.472,882.3
573.606,879.1
573.74,883.1
573.875,888.3
574.009,894.4
574.143,889.9
574.277,887.2
574.411,883.2
574.545,881.2
574.68,883.0
574.814,885.6
574.948,885.4
575.082,888.1
575.216,892.2
575.35,900.2
575.484,926.9
575.619,958.1
575.753,947.4
575.887,943.3
576.021,962.0
576.155,1001.0
576.289,1051.6
576.423,1054.1
576.557,1015.1
576.691,997.6
576.825,999.9
576.959,1004.7
577.093,996.7
577.227,985.0
577.361,964.8
577.495,952.1
577.629,941.9
577.763,936.4
577.897,930.3
578.031,927.9
578.165,931.9
578.299,930.7
578.433,929.6
578.567,935.4
578.701,935.3
578.835,939.2
578.969,936.9
579.103,938.9
579.237,944.0
579.371,943.5
579.505,948.4
579.639,949.2
579.773,947.4
579.907,956.0
580.041,957.6
580.175,959.4
580.309,961.8
580.442,968.1
580.576,968.9
580.71,972.0
580.844,977.2
580.978,976.8
581.112,979.4
581.246,983.0
581.38,983.2
581.513,990.4
581.647,990.0
581.781,997.0
581.915,992.7
582.049,1002.1
582.183,1005.1
582.316,1008.7
582.45,1005.5
582.584,1008.9
582.718,1016.1
582.852,1018.0
582.985,1025.3
583.119,1023.1
583.253,1029.2
583.387,1029.4
583.52,1034.3
583.654,1035.2
583.788,1030.7
583.922,1041.4
584.055,1040.2
584.189,1045.6
584.323,1051.9
584.456,1053.0
584.59,1053.7
584.724,1055.4
584.858,1056.5
584.991,1057.2
585.125,1064.8
585.259,1064.7
585.392,1067.6
585.526,1074.7
585.66,1072.4
585.793,1079.0
585.927,1080.6
586.061,1082.5
586.194,1083.5
586.328,1087.9
586.462,1093.4
586.595,1095.7
586.729,1098.0
586.862,1104.3
586.996,1104.8
587.13,1111.1
587.263,1117.8
587.397,1110.8
587.53,1119.3
587.664,1114.5
587.797,1123.6
587.931,1126.8
588.065,1126.1
588.198,1128.9
588.332,1133.6
588.465,1134.1
588.599,1129.4
588.732,1139.3
588.866,1144.0
588.999,1141.6
589.133,1145.1
589.266,1157.3
589.4,1151.5
589.533,1154.2
589.667,1154.2
589.8,1151.9
589.934,1157.9
590.067,1161.9
590.201,1169.0
590.334,1171.5
590.468,1174.2
590.601,1169.3
590.735,1185.1
590.868,1186.2
591.001,1182.6
591.135,1184.4
591.268,1183.0
591.402,1187.6
591.535,1197.8
591.669,1191.6
591.802,1196.8
591.935,1196.0
592.069,1197.0
592.202,1196.9
592.335,1201.0
592.469,1201.2
592.602,1200.7
592.736,1204.3
592.869,1197.3
593.002,1212.5
593.136,1198.2
593.269,1205.6
593.402,1196.1
593.536,1208.6
593.669,1207.7
593.802,1210.0
593.936,1208.1
594.069,1211.7
594.202,1215.8
594.336,1216.0
594.469,1215.8
594.602,1216.7
594.735,1216.6
594.869,1221.9
595.002,1224.2
595.135,1226.9
595.268,1216.6
595.402,1226.8
595.535,1235.1
595.668,1226.5
595.801,1239.6
595.935,1231.3
596.068,1229.7
596.201,1238.4
596.334,1240.8
596.468,1244.6
596.601,1246.1
596.734,1239.5
596.867,1244.0
597.0,1253.4
597.133,1255.6
597.267,1249.9
597.4,1249.7
597.533,1258.5
597.666,1259.4
597.799,1256.1
597.932,1276.3
598.066,1264.5
598.199,1276.2
598.332,1275.0
598.465,1267.5
598.598,1286.0
598.731,1287.7
598.864,1286.1
598.998,1286.5
599.131,1292.2
599.264,1280.7
599.397,1294.6
599.53,1292.9
599.663,1290.4
599.796,1296.1
599.929,1295.5
600.062,1290.3
600.195,1295.6
600.328,1293.4
600.461,1294.8
600.594,1290.7
600.727,1294.3
600.86,1291.9
600.994,1290.2
601.127,1293.8
601.26,1289.0
601.393,1283.4
601.526,1284.6
601.659,1283.5
601.792,1275.3
601.925,1285.1
602.058,1281.5
602.191,1282.7
602.324,1271.2
602.457,1279.8
602.589,1272.8
602.722,1265.8
602.855,1260.5
602.988,1263.9
603.121,1269.1
603.254,1258.6
603.387,1255.1
603.52,1253.8
603.653,1251.7
603.786,1245.4
603.919,1243.1
604.052,1243.1
604.185,1235.3
604.318,1231.6
604.451,1224.7
604.583,1217.2
604.716,1222.2
604.849,1212.1
604.982,1201.3
605.115,1199.6
605.248,1194.3
605.381,1191.4
605.514,1194.3
605.646,1183.5
605.779,1177.2
605.912,1168.3
606.045,1174.8
606.178,1166.7
606.311,1163.5
606.443,1162.7
606.576,1154.8
606.709,1156.6
606.842,1152.4
606.975,1144.5
607.107,1144.0
607.24,1144.3
607.373,1138.4
607.506,1137.1
607.639,1130.4
607.771,1129.7
607.904,1126.8
608.037,1125.4
608.17,1119.5
608.302,1115.6
608.435,1117.5
608.568,1124.1
608.701,1111.6
608.833,1110.5
608.966,1109.5
609.099,1108.3
609.232,1108.8
609.364,1103.2
609.497,1093.9
609.63,1098.1
609.762,1092.5
609.895,1087.6
610.028,1087.3
610.161,1090.4
610.293,1077.6
610.426,1081.5
610.559,1084.0
610.691,1081.0
610.824,1078.0
610.957,1076.9
611.089,1076.6
611.222,1072.5
611.355,1076.1
611.487,1073.0
611.62,1070.3
611.752,1068.8
611.885,1064.6
612.018,1065.0
612.15,1065.5
612.283,1065.7
612.416,1053.4
612.548,1059.5
612.681,1067.4
612.813,1057.8
612.946,1053.5
613.078,1054.4
613.211,1054.1
613.344,1052.1
613.476,1052.0
613.609,1046.3
613.741,1048.8
613.874,1053.4
614.006,1049.1
614.139,1045.8
614.272,1043.8
614.404,1048.4
614.537,1041.6
614.669,1044.7
614.802,1036.8
614.934,1038.5
615.067,1040.0
615.199,1035.6
615.332,1033.4
615.464,1035.8
615.597,1032.0
615.729,1028.2
615.862,1028.0
615.994,1030.2
616.127,1026.3
616.259,1028.8
616.392,1027.5
616.524,1027.2
616.657,1025.4
616.789,1023.5
616.922,1022.4
617.054,1025.7
617.186,1022.9
617.319,1023.1
617.451,1022.5
617.584,1026.7
617.716,1021.5
617.849,1022.8
617.981,1022.7
618.113,1018.4
618.246,1017.4
618.378,1019.1
618.511,1016.1
618.643,1014.2
618.775,1014.8
618.908,1021.9
619.04,1017.7
619.173,1019.3
619.305,1014.7
619.437,1013.7
619.57,1015.5
619.702,1014.2
619.834,1017.1
619.967,1013.6
620.099,1015.9
620.231,1008.6
620.364,1015.2
620.496,1013.1
620.628,1013.8
620.761,1012.6
620.893,1009.6
621.025,1014.6
621.158,1012.8
621.29,1015.6
621.422,1024.2
621.555,1024.5
621.687,1032.6
621.819,1035.4
621.952,1037.8
622.084,1044.6
622.216,1051.9
622.348,1054.2
622.481,1055.7
622.613,1049.4
622.745,1039.8
622.878,1027.7
623.01,1021.6
623.142,1014.4
623.274,1007.4
623.407,1012.6
623.539,1004.5
623.671,1007.7
623.803,1005.9
623.935,1001.9
624.068,998.2
624.2,1000.4
624.332,998.9
624.464,999.7
624.597,1005.5
624.729,999.8
624.861,1000.6
624.993,998.2
625.125,1003.8
625.258,1005.1
625.39,1007.4
625.522,1012.7
625.654,1009.8
625.786,1010.7
625.918,1017.5
626.051,1021.2
626.183,1032.0
626.315,1044.4
626.447,1059.3
626.579,1100.1
626.711,1162.6
626.844,1287.1
626.976,1487.5
627.108,1721.5
627.24,1873.3
627.372,1867.9
627.504,1749.0
627.636,1648.9
627.768,1573.2
627.901,1523.0
628.033,1485.9
628.165,1501.3
628.297,1550.3
628.429,1702.8
628.561,1905.7
628.693,1878.1
628.825,1666.0
628.957,1582.7
629.089,1539.2
629.221,1515.8
629.354,1499.7
629.486,1462.3
629.618,1419.6
629.75,1385.5
629.882,1346.9
630.014,1338.9
630.146,1325.3
630.278,1320.6
630.41,1319.9
630.542,1302.6
630.674,1284.5
630.806,1252.5
630.938,1206.6
631.07,1154.3
631.202,1115.4
631.334,1090.5
631.466,1065.4
631.598,1067.1
631.73,1058.8
631.862,1050.5
631.994,1040.2
632.126,1037.8
632.258,1028.9
632.39,1031.6
632.522,1022.7
632.654,1020.9
632.786,1020.0
632.918,1018.8
633.05,1013.2
633.182,1010.8
633.314,1014.9
633.446,1011.7
633.578,1013.0
633.71,1010.9
633.842,1009.3
633.974,1016.4
634.106,1008.9
634.237,1009.1
634.369,1006.2
634.501,1008.0
634.633,1009.7
634.765,1009.2
634.897,1014.3
635.029,1011.9
635.161,1009.5
635.293,1010.4
635.425,1014.7
635.557,1007.0
635.689,1013.5
635.82,1009.6
635.952,1012.1
636.084,1007.7
636.216,1011.2
636.348,1015.9
636.48,1012.3
636.612,1017.9
636.744,1014.4
636.875,1012.8
637.007,1013.7
637.139,1016.9
637.271,1011.5
637.403,1011.4
637.535,1014.8
637.667,1012.7
637.798,1013.1
637.93,1015.6
638.062,1015.2
638.194,1014.3
638.326,1010.2
638.458,1015.6
638.589,1019.0
638.721,1022.7
638.853,1020.2
638.985,1017.1
639.117,1019.0
639.248,1014.6
639.38,1019.6
639.512,1019.1
639.644,1018.4
639.776,1024.4
639.907,1022.8
640.039,1020.4
640.171,1020.0
640.303,1021.5
640.435,1022.4
640.566,1017.4
640.698,1027.3
640.83,1025.5
640.962,1027.8
641.093,1025.7
641.225,1027.4
641.357,1026.7
641.489,1029.0
641.62,1025.8
641.752,1028.0
641.884,1029.1
642.016,1032.3
642.147,1034.2
642.279,1032.9
642.411,1028.4
642.543,1030.6
642.674,1038.7
642.806,1028.8
642.938,1033.3
643.069,1030.8
643.201,1033.9
643.333,1038.0
643.465,1035.0
643.596,1038.6
643.728,1033.5
643.86,1039.7
643.991,1036.2
644.123,1028.7
644.255,1032.1
644.386,1034.5
644.518,1030.6
644.65,1035.5
644.781,1032.3
644.913,1034.6
645.045,1035.0
645.176,1031.8
645.308,1033.8
645.44,1040.3
645.571,1032.5
645.703,1039.7
645.835,1041.3
645.966,1031.0
646.098,1033.1
646.23,1038.9
646.361,1032.5
646.493,1040.2
646.625,1039.1
646.756,1031.7
646.888,1030.6
647.019,1030.3
647.151,1037.1
647.283,1034.8
647.414,1037.8
647.546,1038.7
647.678,1037.0
647.809,1038.0
647.941,1036.6
648.072,1033.7
648.204,1036.6
648.336,1036.2
648.467,1036.1
648.599,1043.8
648.73,1037.0
648.862,1032.1
648.993,1031.9
649.125,1038.3
649.257,1033.6
649.388,1031.8
649.52,1030.4
649.651,1032.5
649.783,1036.2
649.914,1027.7
650.046,1037.6
650.178,1031.0
650.309,1028.3
650.441,1032.5
650.572,1033.0
650.704,1028.1
650.835,1040.3
650.967,1030.4
651.098,1033.3
651.23,1028.1
651.361,1035.2
651.493,1032.6
651.625,1029.2
651.756,1032.8
651.888,1031.8
652.019,1037.1
652.151,1029.9
652.282,1039.7
652.414,1033.6
652.545,1033.9
652.677,1033.1
652.808,1036.5
652.94,1032.4
653.071,1031.2
653.203,1038.1
653.334,1031.4
653.466,1035.7
653.597,1039.5
653.729,1037.3
653.86,1037.5
653.992,1025.1
654.123,1035.2
654.255,1034.3
654.386,1028.8
654.518,1030.1
654.649,1035.9
654.78,1031.5
654.912,1036.1
655.043,1032.5
655.175,1034.7
655.306,1025.1
655.438,1031.4
655.569,1029.4
655.701,1023.7
655.832,1027.7
655.964,1028.7
656.095,1020.5
656.226,1021.3
656.358,1025.8
656.489,1024.9
656.621,1018.9
656.752,1022.2
656.884,1023.7
657.015,1022.3
657.146,1016.5
657.278,1018.5
657.409,1019.5
657.541,1014.5
657.672,1015.8
657.804,1010.5
657.935,1018.2
658.066,1016.1
658.198,1014.9
658.329,1011.8
658.461,1015.0
658.592,1008.9
658.723,1011.9
658.855,1011.5
658.986,1006.7
659.118,1003.1
659.249,1002.4
659.38,1003.7
659.512,999.8
659.643,1001.8
659.774,995.7
659.906,996.6
660.037,997.1
660.169,992.7
660.3,996.6
660.431,992.1
660.563,986.2
660.694,985.6
660.825,984.1
660.957,981.3
661.088,982.7
661.22,983.2
661.351,980.2
661.482,981.0
661.614,976.7
661.745,974.4
661.876,972.4
662.008,965.4
662.139,972.1
662.27,965.0
662.402,969.2
662.533,961.6
662.664,961.4
662.796,965.7
662.927,960.8
663.058,961.5