File: spectra/VLFR_08-PLA_bio_Raman_ea5251ca.csv
nm,Intensity
528.65,1836.2
528.819,1834.15
528.987,1835.25
529.155,1835.45
529.324,1835.1
529.492,1833.8
529.66,1834.3
529.829,1835.35
529.997,1834.7
530.165,1834.7
530.334,1835.8
530.502,1835.45
530.67,1833.8
530.839,1836.25
531.007,1835.75
531.175,1837.7
531.344,1839.65
531.512,1843.25
531.68,1870.2
531.848,2366.65
532.017,4629.85
532.185,4143.35
532.353,2153.45
532.521,1840.2
532.69,1836.95
532.858,1837.5
533.026,1838.3
533.194,1840.45
533.363,1848.55
533.531,1930.4
533.699,2412.15
533.867,3261.35
534.036,3701.15
534.204,3694.85
534.372,3531.2
534.54,3470.25
534.708,3347.3
534.877,3254.2
535.045,3152.05
535.213,3079.65
535.381,2966.9
535.549,2893.65
535.717,2806.35
535.886,2731.1
536.054,2710.65
536.222,2738.05
536.39,2740.65
536.558,2771.35
536.726,2770.4
536.894,2700.2
537.062,2656.45
537.231,2630.95
537.399,2670.05
537.567,2670.6
537.735,2639.2
537.903,2597.45
538.071,2560.45
538.239,2529.8
538.407,2488.05
538.575,2480.15
538.743,2475.85
538.911,2485.2
539.079,2482.05
539.247,2478.75
539.415,2447.7
539.583,2432.65
539.751,2362.8
539.919,2350.2
540.087,2375.85
540.255,2452.9
540.423,2541.85
540.591,2580.0
540.759,2587.05
540.927,2611.55
541.095,2576.05
541.263,2565.35
541.431,2524.9
541.599,2486.15
541.767,2452.65
541.935,2439.05
542.103,2427.0
542.271,2418.95
542.439,2433.3
542.607,2430.35
542.775,2477.0
542.943,2511.25
543.111,2585.4
543.279,2707.85
543.446,2818.85
543.614,2851.0
543.782,2821.7
543.95,2795.15
544.118,2750.95
544.286,2637.3
544.454,2517.8
544.622,2466.3
544.789,2428.5
544.957,2397.0
545.125,2383.7
545.293,2368.15
545.461,2337.55
545.629,2336.1
545.796,2338.55
545.964,2340.55
546.132,2327.9
546.3,2340.2
546.468,2346.35
546.635,2339.45
546.803,2374.35
546.971,2355.25
547.139,2372.5
547.306,2381.0
547.474,2363.75
547.642,2377.65
547.81,2366.55
547.977,2370.2
548.145,2365.65
548.313,2375.6
548.481,2378.3
548.648,2384.8
548.816,2390.1
548.984,2389.5
549.151,2404.9
549.319,2422.7
549.487,2405.3
549.655,2381.55
549.822,2403.25
549.99,2407.2
550.158,2402.45
550.325,2404.1
550.493,2412.3
550.66,2446.3
550.828,2452.4
550.996,2476.7
551.163,2474.4
551.331,2462.4
551.499,2496.4
551.666,2508.2
551.834,2510.8
552.001,2505.9
552.169,2525.45
552.337,2544.9
552.504,2546.5
552.672,2537.65
552.839,2566.55
553.007,2541.5
553.174,2498.0
553.342,2468.2
553.509,2462.55
553.677,2539.8
553.844,2617.75
554.012,2633.2
554.179,2616.95
554.347,2552.35
554.514,2546.7
554.682,2510.6
554.849,2490.75
555.017,2472.25
555.184,2463.6
555.352,2424.9
555.519,2408.65
555.687,2400.2
555.854,2399.5
556.022,2392.45
556.189,2405.9
556.357,2412.25
556.524,2427.95
556.691,2424.2
556.859,2455.45
557.026,2507.4
557.194,2574.75
557.361,2689.1
557.528,2903.5
557.696,3320.75
557.863,4030.3
558.031,4552.45
558.198,4277.8
558.365,3513.35
558.533,2940.65
558.7,2753.75
558.867,2694.9
559.035,2682.55
559.202,2642.45
559.369,2619.4
559.537,2595.2
559.704,2590.35
559.871,2558.85
560.038,2538.0
560.206,2532.5
560.373,2499.35
560.54,2503.1
560.708,2506.7
560.875,2475.4
561.042,2468.4
561.209,2474.95
561.377,2443.2
561.544,2448.3
561.711,2486.8
561.878,2466.3
562.045,2471.0
562.213,2486.75
562.38,2476.9
562.547,2550.9
562.714,2587.85
562.881,2669.05
563.049,2776.2
563.216,2936.05
563.383,3072.6
563.55,3032.55
563.717,2912.35
563.884,2791.2
564.052,2653.9
564.219,2601.1
564.386,2603.4
564.553,2687.25
564.72,2778.7
564.887,2892.35
565.054,2966.35
565.221,2928.4
565.388,2880.65
565.556,2871.1
565.723,2962.85
565.89,3096.15
566.057,3241.3
566.224,3246.2
566.391,3032.45
566.558,2842.75
566.725,2675.3
566.892,2588.6
567.059,2553.5
567.226,2535.7
567.393,2528.05
567.56,2555.5
567.727,2646.3
567.894,2675.05
568.061,2663.65
568.228,2637.75
568.395,2649.2
568.562,2606.95
568.729,2619.6
568.896,2621.3
569.063,2640.55
569.23,2626.05
569.396,2596.95
569.563,2568.7
569.73,2539.65
569.897,2564.15
570.064,2565.55
570.231,2574.25
570.398,2574.6
570.565,2599.15
570.732,2600.5
570.898,2616.95
571.065,2649.8
571.232,2720.55
571.399,2844.65
571.566,2978.35
571.733,2982.9
571.9,2933.7
572.066,2835.1
572.233,2810.1
572.4,2792.4
572.567,2772.55
572.734,2766.3
572.9,2793.8
573.067,2788.2
573.234,2828.15
573.401,2805.8
573.567,2797.65
573.734,2799.55
573.901,2773.65
574.068,2767.05
574.234,2799.1
574.401,2862.15
574.568,2877.0
574.734,2807.15
574.901,2658.65
575.068,2594.25
575.235,2587.45
575.401,2603.65
575.568,2585.65
575.735,2625.6
575.901,2652.9
576.068,2715.85
576.235,2879.75
576.401,3224.8
576.568,3507.25
576.734,3654.2
576.901,3601.05
577.068,3394.15
577.234,3050.35
577.401,2808.1
577.567,2679.85
577.734,2635.75
577.901,2618.05
578.067,2569.45
578.234,2577.0
578.4,2568.9
578.567,2573.45
578.733,2568.1
578.9,2569.8
579.066,2565.05
579.233,2561.25
579.399,2569.6
579.566,2578.9
579.732,2548.2
579.899,2561.9
580.065,2560.2
580.232,2580.7
580.398,2560.8
580.565,2555.7
580.731,2565.6
580.898,2563.0
581.064,2556.2
581.231,2573.3
581.397,2557.55
581.563,2566.25
581.73,2576.5
581.896,2567.8
582.063,2575.55
582.229,2573.75
582.395,2560.7
582.562,2575.0
582.728,2583.9
582.895,2561.25
583.061,2574.35
583.227,2580.8
583.394,2587.25
583.56,2588.55
583.726,2573.7
583.893,2590.1
584.059,2582.7
584.225,2606.35
584.391,2586.25
584.558,2586.05
584.724,2588.4
584.89,2597.2
585.057,2589.7
585.223,2571.75
585.389,2581.3
585.555,2593.7
585.722,2616.25
585.888,2604.0
586.054,2636.55
586.22,2680.45
586.386,2777.25
586.553,2942.85
586.719,3126.2
586.885,3292.0
587.051,3392.75
587.217,3504.25
587.384,3537.2
587.55,3684.95
587.716,3405.85
587.882,3160.85
588.048,2932.6
588.214,2765.65
588.38,2690.0
588.546,2626.25
588.713,2613.9
588.879,2613.5
589.045,2594.7
589.211,2577.0
589.377,2564.05
589.543,2581.7
589.709,2567.45
589.875,2569.0
590.041,2574.8
590.207,2549.6
590.373,2548.0
590.539,2538.2
590.705,2586.0
590.871,2569.45
591.037,2576.5
591.203,2563.5
591.369,2575.1
591.535,2561.6
591.701,2555.1
591.867,2560.05
592.033,2578.9
592.199,2558.5
592.365,2558.25
592.531,2551.0
592.697,2571.5
592.863,2560.85
593.029,2549.2
593.195,2559.65
593.361,2538.05
593.526,2550.85
593.692,2575.95
593.858,2555.8
594.024,2545.7
594.19,2540.25
594.356,2560.6
594.522,2536.9
594.687,2562.3
594.853,2554.9
595.019,2567.85
595.185,2549.0
595.351,2542.65
595.516,2568.0
595.682,2562.8
595.848,2583.65
596.014,2554.05
596.18,2553.55
596.345,2549.25
596.511,2554.9
596.677,2564.2
596.843,2569.4
597.008,2574.7
597.174,2558.55
597.34,2551.5
597.505,2556.2
597.671,2556.55
597.837,2558.2
598.002,2549.8
598.168,2559.85
598.334,2569.15
598.499,2570.55
598.665,2565.85
598.831,2572.4
598.996,2554.65
599.162,2560.65
599.328,2550.95
599.493,2573.05
599.659,2554.1
599.824,2556.4
599.99,2554.05
600.156,2552.65
600.321,2558.2
600.487,2567.55
600.652,2558.95
600.818,2566.35
600.983,2555.8
601.149,2553.9
601.314,2565.45
601.48,2564.55
601.645,2553.75
601.811,2551.05
601.976,2559.8
602.142,2570.65
602.307,2574.05
602.473,2554.3
602.638,2546.4
602.804,2550.5
602.969,2546.55
603.135,2572.95
603.3,2553.1
603.466,2567.4
603.631,2550.5
603.796,2527.8
603.962,2547.1
604.127,2582.35
604.293,2541.05
604.458,2558.6
604.623,2543.4
604.789,2544.5
604.954,2535.1
605.119,2533.45
605.285,2539.25
605.45,2534.5
605.615,2544.55
605.781,2519.9
605.946,2553.95
606.111,2554.2
606.277,2526.95
606.442,2515.7
606.607,2543.1
606.772,2538.5
606.938,2539.35
607.103,2533.2
607.268,2541.9
607.433,2536.25
607.599,2552.5
607.764,2544.25
607.929,2535.55
608.094,2535.5
608.259,2531.4
608.425,2522.5
608.59,2529.0
608.755,2552.15
608.92,2503.0
609.085,2522.35
609.25,2549.95
609.415,2522.55
609.581,2531.65
609.746,2521.85
609.911,2552.0
610.076,2516.45
610.241,2550.35
610.406,2542.9
610.571,2528.05
610.736,2538.05
610.901,2543.45
611.066,2535.4
611.231,2526.55
611.396,2532.3
611.561,2510.8
611.727,2549.1
611.892,2522.4
612.057,2526.45
612.222,2500.6
612.386,2531.2
612.551,2510.7
612.716,2511.15
612.881,2517.5
613.046,2524.5
613.211,2533.2
613.376,2514.7
613.541,2516.4
613.706,2509.35
613.871,2523.7
614.036,2533.1
614.201,2528.55
614.366,2522.65
614.531,2518.8
614.695,2522.6
614.86,2524.7
615.025,2530.3
615.19,2517.9
615.355,2517.25
615.52,2532.0
615.684,2519.1
615.849,2530.65
616.014,2514.75
616.179,2540.55
616.344,2523.15
616.508,2539.65
616.673,2525.5
616.838,2515.5
617.003,2534.85
617.168,2536.95
617.332,2530.95
617.497,2519.0
617.662,2510.55
617.826,2522.65
617.991,2508.25
618.156,2502.5
618.32,2510.7
618.485,2506.4
618.65,2490.75
618.814,2508.3
618.979,2500.65
619.144,2505.6
619.308,2516.0
619.473,2495.3
619.638,2490.0
619.802,2500.35
619.967,2529.65
620.131,2501.55
620.296,2498.15
620.461,2500.05
620.625,2498.7
620.79,2491.65
620.954,2502.15
621.119,2493.85
621.283,2501.1
621.448,2511.05
621.612,2497.25
621.777,2504.0
621.941,2536.75
622.106,2539.9
622.27,2579.2
622.435,2604.25
622.599,2649.45
622.764,2700.9
622.928,2726.9
623.093,2660.05
623.257,2692.95
623.422,2660.35
623.586,2652.6
623.75,2614.05
623.915,2585.65
624.079,2544.4
624.244,2563.1
624.408,2552.6
624.572,2537.45
624.737,2530.0
624.901,2504.35
625.065,2503.5
625.23,2499.45
625.394,2500.1
625.558,2489.7
625.723,2483.25
625.887,2487.45
626.051,2524.9
626.215,2506.6
626.38,2501.7
626.544,2521.0
626.708,2520.05
626.872,2515.3
627.037,2518.4
627.201,2539.55
627.365,2551.0
627.529,2560.35
627.693,2595.5
627.858,2720.0
628.022,2902.0
628.186,3213.65
628.35,3587.25
628.514,3723.85
628.678,3648.0
628.843,3534.35
629.007,3388.65
629.171,3378.15
629.335,3459.4
629.499,3436.55
629.663,3477.8
629.827,3507.2
629.991,3539.2
630.155,3675.3
630.319,3946.6
630.483,4526.3
630.647,5747.5
630.812,7524.7
630.976,9416.3
631.14,9914.55
631.304,8746.7
631.468,7049.8
631.632,5819.65
631.796,5020.5
631.959,4633.65
632.123,4315.45
632.287,4200.25
632.451,4103.85
632.615,4208.4
632.779,4410.95
632.943,4908.2
633.107,5311.35
633.271,5411.95
633.435,5443.2
633.599,4962.25
633.763,4606.8
633.926,4135.35
634.09,3740.0
634.254,3359.2
634.418,3133.0
634.582,2975.4
634.746,2811.7
634.909,2691.15
635.073,2659.5
635.237,2604.35
635.401,2555.9
635.564,2525.65
635.728,2510.35
635.892,2487.65
636.056,2493.35
636.219,2482.05
636.383,2480.15
636.547,2470.55
636.711,2441.6
636.874,2441.15
637.038,2442.65
637.202,2428.6
637.365,2411.95
637.529,2420.65
637.693,2415.55
637.856,2430.0
638.02,2389.15
638.184,2416.25
638.347,2402.85
638.511,2398.2
638.674,2396.6
638.838,2397.65
639.002,2389.7
639.165,2376.55
639.329,2419.3
639.492,2414.05
639.656,2393.2
639.819,2388.3
639.983,2389.15
640.146,2391.15
640.31,2387.55
640.473,2382.6
640.637,2381.6
640.8,2375.75
640.964,2386.85
641.127,2390.85
641.291,2404.75
641.454,2393.0
641.618,2392.55
641.781,2395.9
641.944,2396.15
642.108,2391.45
642.271,2402.1
642.435,2415.15
642.598,2385.4
642.761,2379.35
642.925,2367.45
643.088,2393.65
643.251,2364.85
643.415,2361.55
643.578,2356.4
643.741,2344.8
643.905,2349.3
644.068,2328.8
644.231,2347.45
644.394,2329.8
644.558,2333.7
644.721,2297.55
644.884,2316.8
645.047,2327.45
645.211,2320.75
645.374,2331.45
645.537,2310.7
645.7,2302.15
645.863,2320.45
646.027,2283.75
646.19,2296.15
646.353,2302.55
646.516,2313.55
646.679,2324.9
646.842,2299.6
647.005,2284.0
647.169,2272.95
647.332,2305.5
647.495,2270.8
647.658,2296.55
647.821,2270.6
647.984,2262.65
648.147,2286.55
648.31,2279.15
648.473,2281.0
648.636,2270.45
648.799,2276.35
648.962,2257.15
649.125,2274.9
649.288,2268.6
649.451,2255.1
649.614,2266.85
649.777,2262.6
649.94,2275.5
650.103,2256.3
650.266,2241.15
650.429,2262.6
650.592,2268.9
650.755,2245.7
650.918,2243.5
651.08,2251.35
651.243,2250.6
651.406,2257.75
651.569,2243.95
651.732,2249.5
651.895,2241.4
652.058,2242.9
652.22,2245.2
652.383,2252.7
652.546,2224.8
652.709,2229.55
652.872,2244.3
653.034,2237.1
653.197,2229.1
653.36,2229.05
653.523,2224.4
653.685,2216.85
653.848,2228.35
654.011,2215.25
654.173,2208.25
654.336,2213.2
654.499,2214.45
654.662,2218.6
654.824,2203.75
654.987,2210.4
655.149,2212.9
655.312,2216.45
655.475,2201.75
655.637,2207.25
655.8,2212.65
655.963,2202.95
656.125,2199.85
656.288,2202.6
656.45,2208.8
656.613,2218.1
656.775,2205.9
656.938,2182.85
657.1,2198.05
657.263,2207.05
657.425,2217.3
657.588,2197.65
657.75,2191.8
657.913,2195.05
658.075,2195.25
658.238,2188.45
658.4,2174.3
658.563,2174.65
658.725,2173.25
658.888,2184.75
659.05,2161.95
659.212,2144.5
659.375,2155.6
659.537,2151.3
659.7,2163.6
659.862,2153.8
660.024,2159.1
660.187,2144.0
660.349,2160.2
660.511,2136.85
660.674,2134.4
660.836,2146.5
660.998,2147.15
661.079,2139.25