File: spectra/VLFR_02-HDPE_nobio_Raman_deeed74f.csv
nm,Intensity
528.65,1835.95
528.819,1836.1
528.987,1836.5
529.155,1836.05
529.324,1838.2
529.492,1837.8
529.66,1836.15
529.829,1836.2
529.997,1836.95
530.165,1836.15
530.334,1835.6
530.502,1837.55
530.67,1836.8
530.839,1837.7
531.007,1837.2
531.175,1836.05
531.344,1836.45
531.512,1838.35
531.68,1844.9
531.848,1954.9
532.017,2422.3
532.185,2408.55
532.353,1864.95
532.521,1837.55
532.69,1836.2
532.858,1836.5
533.026,1837.6
533.194,1837.35
533.363,1838.9
533.531,1851.15
533.699,1917.95
533.867,2035.55
534.036,2095.65
534.204,2116.1
534.372,2099.4
534.54,2102.75
534.708,2119.45
534.877,2112.4
535.045,2127.95
535.213,2109.85
535.381,2064.25
535.549,2050.35
535.717,2026.05
535.886,2015.9
536.054,2001.45
536.222,1996.8
536.39,1988.25
536.558,1993.3
536.726,1987.45
536.894,1992.05
537.062,1980.35
537.231,1990.0
537.399,2000.3
537.567,2004.15
537.735,1989.95
537.903,1997.55
538.071,1990.0
538.239,1985.2
538.407,1983.05
538.575,1980.15
538.743,1972.75
538.911,1971.35
539.079,1972.05
539.247,1969.25
539.415,1971.5
539.583,1959.05
539.751,1961.35
539.919,1965.45
540.087,1967.8
540.255,1958.7
540.423,1955.85
540.591,1957.15
540.759,1955.55
540.927,1962.35
541.095,1957.7
541.263,1958.45
541.431,1958.95
541.599,1955.25
541.767,1962.8
541.935,1963.25
542.103,1962.55
542.271,1964.9
542.439,1962.1
542.607,1968.9
542.775,1966.25
542.943,1954.85
543.111,1959.35
543.279,1969.0
543.446,1954.05
543.614,1963.35
543.782,1968.0
543.95,1967.4
544.118,1971.55
544.286,1957.35
544.454,1959.35
544.622,1957.0
544.789,1961.3
544.957,1971.75
545.125,1974.6
545.293,1964.6
545.461,1958.9
545.629,1960.15
545.796,1971.3
545.964,1969.05
546.132,1964.65
546.3,1961.95
546.468,1966.55
546.635,1969.5
546.803,1967.45
546.971,1964.8
547.139,1963.9
547.306,1965.5
547.474,1959.0
547.642,1963.85
547.81,1961.8
547.977,1969.9
548.145,1962.75
548.313,1975.15
548.481,1974.5
548.648,1963.4
548.816,1965.9
548.984,1972.1
549.151,1971.75
549.319,1969.8
549.487,1969.7
549.655,1965.65
549.822,1971.7
549.99,1965.7
550.158,1961.9
550.325,1970.95
550.493,1966.6
550.66,1974.1
550.828,1968.1
550.996,1970.6
551.163,1968.6
551.331,1979.7
551.499,1982.7
551.666,1976.75
551.834,1983.05
552.001,1977.0
552.169,1975.7
552.337,1980.55
552.504,1976.55
552.672,1974.25
552.839,1974.95
553.007,1982.1
553.174,1974.35
553.342,1989.65
553.509,1990.25
553.677,1991.35
553.844,1987.75
554.012,1993.05
554.179,1994.7
554.347,1988.1
554.514,1994.15
554.682,1988.5
554.849,2003.7
555.017,1999.7
555.184,1994.55
555.352,1996.65
555.519,1999.7
555.687,2000.65
555.854,2007.15
556.022,2003.3
556.189,2005.8
556.357,2006.9
556.524,2001.05
556.691,2006.15
556.859,2010.8
557.026,2021.2
557.194,2009.15
557.361,2014.85
557.528,2028.7
557.696,2030.65
557.863,2020.85
558.031,2023.95
558.198,2033.25
558.365,2031.9
558.533,2032.0
558.7,2025.65
558.867,2013.1
559.035,2018.15
559.202,2030.9
559.369,2020.1
559.537,2023.7
559.704,2018.15
559.871,2023.5
560.038,2018.05
560.206,2013.6
560.373,2018.3
560.54,2022.9
560.708,2027.9
560.875,2018.75
561.042,2022.6
561.209,2024.45
561.377,2024.25
561.544,2011.45
561.711,2020.65
561.878,2031.9
562.045,2031.1
562.213,2035.3
562.38,2035.3
562.547,2034.9
562.714,2043.55
562.881,2046.45
563.049,2052.65
563.216,2057.85
563.383,2064.35
563.55,2084.9
563.717,2216.3
563.884,2500.15
564.052,2558.3
564.219,2309.95
564.386,2162.75
564.553,2139.65
564.72,2148.25
564.887,2123.75
565.054,2103.45
565.221,2092.15
565.388,2093.5
565.556,2106.3
565.723,2148.0
565.89,2319.55
566.057,2671.05
566.224,2749.6
566.391,2328.25
566.558,2122.85
566.725,2082.4
566.892,2077.05
567.059,2070.05
567.226,2108.35
567.393,2149.45
567.56,2124.6
567.727,2082.1
567.894,2069.9
568.061,2058.9
568.228,2051.85
568.395,2054.35
568.562,2063.5
568.729,2057.4
568.896,2059.65
569.063,2065.85
569.23,2067.95
569.396,2064.8
569.563,2070.55
569.73,2073.9
569.897,2073.15
570.064,2075.45
570.231,2093.8
570.398,2091.85
570.565,2116.4
570.732,2130.25
570.898,2130.2
571.065,2159.7
571.232,2322.3
571.399,2774.5
571.566,3009.15
571.733,2539.9
571.9,2266.35
572.066,2209.25
572.233,2165.9
572.4,2167.35
572.567,2140.6
572.734,2121.15
572.9,2121.8
573.067,2122.85
573.234,2124.1
573.401,2134.6
573.567,2139.15
573.734,2157.4
573.901,2192.95
574.068,2176.25
574.234,2150.75
574.401,2142.3
574.568,2143.2
574.734,2171.55
574.901,2178.2
575.068,2185.2
575.235,2274.35
575.401,2531.95
575.568,2662.0
575.735,2495.15
575.901,2473.95
576.068,2620.3
576.235,2814.2
576.401,2780.55
576.568,2666.5
576.734,2601.5
576.901,2617.75
577.068,2610.3
577.234,2519.1
577.401,2447.35
577.567,2357.05
577.734,2330.0
577.901,2314.8
578.067,2321.5
578.234,2312.35
578.4,2320.4
578.567,2337.75
578.733,2337.85
578.9,2352.35
579.066,2365.0
579.233,2374.55
579.399,2385.75
579.566,2389.35
579.732,2401.0
579.899,2415.4
580.065,2444.75
580.232,2454.3
580.398,2455.4
580.565,2480.75
580.731,2482.05
580.898,2489.3
581.064,2524.15
581.231,2522.05
581.397,2517.95
581.563,2546.4
581.73,2577.7
581.896,2577.1
582.063,2575.2
582.229,2583.45
582.395,2619.8
582.562,2616.55
582.728,2622.8
582.895,2662.85
583.061,2668.6
583.227,2661.65
583.394,2702.8
583.56,2695.45
583.726,2725.75
583.893,2755.35
584.059,2749.35
584.225,2748.55
584.391,2802.35
584.558,2783.3
584.724,2826.5
584.89,2790.45
585.057,2833.0
585.223,2831.85
585.389,2832.15
585.555,2859.45
585.722,2857.5
585.888,2894.85
586.054,2928.5
586.22,2897.95
586.386,2933.5
586.553,2954.25
586.719,2959.3
586.885,2967.75
587.051,3023.95
587.217,3013.6
587.384,3039.65
587.55,3066.45
587.716,3095.9
587.882,3096.75
588.048,3103.35
588.214,3138.45
588.38,3116.75
588.546,3158.75
588.713,3169.35
588.879,3185.6
589.045,3183.3
589.211,3182.7
589.377,3255.4
589.543,3223.95
589.709,3229.65
589.875,3261.95
590.041,3276.9
590.207,3300.3
590.373,3330.2
590.539,3352.5
590.705,3351.95
590.871,3371.5
591.037,3408.95
591.203,3449.5
591.369,3420.6
591.535,3423.2
591.701,3440.8
591.867,3502.05
592.033,3505.4
592.199,3520.8
592.365,3484.0
592.531,3512.1
592.697,3569.15
592.863,3526.9
593.029,3563.0
593.195,3532.3
593.361,3550.75
593.526,3551.4
593.692,3565.6
593.858,3600.35
594.024,3573.55
594.19,3587.75
594.356,3594.8
594.522,3603.25
594.687,3622.2
594.853,3605.9
595.019,3622.35
595.185,3640.2
595.351,3639.05
595.516,3667.65
595.682,3658.95
595.848,3690.65
596.014,3689.5
596.18,3712.7
596.345,3691.2
596.511,3637.8
596.677,3708.1
596.843,3724.25
597.008,3720.6
597.174,3742.15
597.34,3734.35
597.505,3745.0
597.671,3767.8
597.837,3749.45
598.002,3712.1
598.168,3782.3
598.334,3751.05
598.499,3755.95
598.665,3800.25
598.831,3797.2
598.996,3786.9
599.162,3872.15
599.328,3820.05
599.493,3815.6
599.659,3832.7
599.824,3845.95
599.99,3861.0
600.156,3844.05
600.321,3824.5
600.487,3843.65
600.652,3858.95
600.818,3851.95
600.983,3857.15
601.149,3835.2
601.314,3823.6
601.48,3895.1
601.645,3828.3
601.811,3826.4
601.976,3877.7
602.142,3830.9
602.307,3828.05
602.473,3814.45
602.638,3763.25
602.804,3796.85
602.969,3781.65
603.135,3791.1
603.3,3716.1
603.466,3747.25
603.631,3787.7
603.796,3700.8
603.962,3711.25
604.127,3693.55
604.293,3645.7
604.458,3680.7
604.623,3646.45
604.789,3600.75
604.954,3618.05
605.119,3580.05
605.285,3552.1
605.45,3529.25
605.615,3567.5
605.781,3505.25
605.946,3458.55
606.111,3504.1
606.277,3477.5
606.442,3473.35
606.607,3432.7
606.772,3401.0
606.938,3374.05
607.103,3378.0
607.268,3393.15
607.433,3327.75
607.599,3305.0
607.764,3284.3
607.929,3297.5
608.094,3310.75
608.259,3272.2
608.425,3258.95
608.59,3219.7
608.755,3191.55
608.92,3207.55
609.085,3179.95
609.25,3178.95
609.415,3166.3
609.581,3157.85
609.746,3122.25
609.911,3134.55
610.076,3144.85
610.241,3096.4
610.406,3092.15
610.571,3095.95
610.736,3120.3
610.901,3053.75
611.066,3044.95
611.231,3057.8
611.396,3031.85
611.561,3032.15
611.727,3016.7
611.892,3011.6
612.057,3002.25
612.222,2974.2
612.386,2974.85
612.551,2976.65
612.716,2946.4
612.881,2947.7
613.046,2953.75
613.211,2932.65
613.376,2926.45
613.541,2903.5
613.706,2912.3
613.871,2933.4
614.036,2881.9
614.201,2868.35
614.366,2873.95
614.531,2884.15
614.695,2879.85
614.86,2847.8
615.025,2845.75
615.19,2815.15
615.355,2845.9
615.52,2824.95
615.684,2808.6
615.849,2829.45
616.014,2804.25
616.179,2809.65
616.344,2778.2
616.508,2779.8
616.673,2810.8
616.838,2796.7
617.003,2771.85
617.168,2800.1
617.332,2789.25
617.497,2797.75
617.662,2760.45
617.826,2772.05
617.991,2776.05
618.156,2773.05
618.32,2744.8
618.485,2761.15
618.65,2741.05
618.814,2739.8
618.979,2748.1
619.144,2745.4
619.308,2722.55
619.473,2749.1
619.638,2733.45
619.802,2731.65
619.967,2724.0
620.131,2736.3
620.296,2718.3
620.461,2711.75
620.625,2695.7
620.79,2742.4
620.954,2716.95
621.119,2727.65
621.283,2752.95
621.448,2790.8
621.612,2780.15
621.777,2831.1
621.941,2879.6
622.106,2909.7
622.27,2924.8
622.435,2867.45
622.599,2816.05
622.764,2786.45
622.928,2731.6
623.093,2666.0
623.257,2683.45
623.422,2669.0
623.586,2664.25
623.75,2643.2
623.915,2617.8
624.079,2626.25
624.244,2630.0
624.408,2634.5
624.572,2612.65
624.737,2619.45
624.901,2640.65
625.065,2624.75
625.23,2631.85
625.394,2646.65
625.558,2630.25
625.723,2678.6
625.887,2706.2
626.051,2721.45
626.215,2803.9
626.38,2970.8
626.544,3300.75
626.708,3894.85
626.872,4945.7
627.037,5895.9
627.201,6287.95
627.365,5975.35
627.529,5376.55
627.693,4930.75
627.858,4728.5
628.022,4785.5
628.186,5036.65
628.35,5988.1
628.514,6506.3
628.678,5773.5
628.843,4870.35
629.007,4535.45
629.171,4360.85
629.335,4303.75
629.499,4091.4
629.663,3926.05
629.827,3733.35
629.991,3690.8
630.155,3593.65
630.319,3625.8
630.483,3570.65
630.647,3380.1
630.812,3160.8
630.976,3050.2
631.14,2888.25
631.304,2738.8
631.468,2722.3
631.632,2667.3
631.796,2644.6
631.959,2620.25
632.123,2634.85
632.287,2613.45
632.451,2596.6
632.615,2610.25
632.779,2599.25
632.943,2598.6
633.107,2602.15
633.271,2577.3
633.435,2601.0
633.599,2590.4
633.763,2592.05
633.926,2601.15
634.09,2562.7
634.254,2568.45
634.418,2570.75
634.582,2564.15
634.746,2579.45
634.909,2577.05
635.073,2563.95
635.237,2560.9
635.401,2547.9
635.564,2552.0
635.728,2593.6
635.892,2561.15
636.056,2546.45
636.219,2573.35
636.383,2576.3
636.547,2570.35
636.711,2556.05
636.874,2552.8
637.038,2571.15
637.202,2584.05
637.365,2558.2
637.529,2575.75
637.693,2595.65
637.856,2560.25
638.02,2555.9
638.184,2606.15
638.347,2565.8
638.511,2586.75
638.674,2563.2
638.838,2563.3
639.002,2572.4
639.165,2574.65
639.329,2573.9
639.492,2618.75
639.656,2563.05
639.819,2579.35
639.983,2568.6
640.146,2580.6
640.31,2608.3
640.473,2600.35
640.637,2571.35
640.8,2556.85
640.964,2586.55
641.127,2586.8
641.291,2591.05
641.454,2601.35
641.618,2608.4
641.781,2584.5
641.944,2592.75
642.108,2570.85
642.271,2614.25
642.435,2624.3
642.598,2606.35
642.761,2617.65
642.925,2624.75
643.088,2586.85
643.251,2581.7
643.415,2600.85
643.578,2607.2
643.741,2611.9
643.905,2628.15
644.068,2610.1
644.231,2617.4
644.394,2626.35
644.558,2612.95
644.721,2598.0
644.884,2614.4
645.047,2626.1
645.211,2600.65
645.374,2609.55
645.537,2594.4
645.7,2614.15
645.863,2600.6
646.027,2559.95
646.19,2586.6
646.353,2578.0
646.516,2580.8
646.679,2619.75
646.842,2605.85
647.005,2589.9
647.169,2571.05
647.332,2565.35
647.495,2568.0
647.658,2568.45
647.821,2583.85
647.984,2593.35
648.147,2571.15
648.31,2560.3
648.473,2574.95
648.636,2551.35
648.799,2569.8
648.962,2551.8
649.125,2513.6
649.288,2544.25
649.451,2524.85
649.614,2550.45
649.777,2572.15
649.94,2557.3
650.103,2540.2
650.266,2544.1
650.429,2540.85
650.592,2550.25
650.755,2527.15
650.918,2521.2
651.08,2514.65
651.243,2528.2
651.406,2522.55
651.569,2486.95
651.732,2517.35
651.895,2492.7
652.058,2513.6
652.22,2500.5
652.383,2493.25
652.546,2509.1
652.709,2497.3
652.872,2481.0
653.034,2473.2
653.197,2480.85
653.36,2495.65
653.523,2474.05
653.685,2466.45
653.848,2462.0
654.011,2455.95
654.173,2478.4
654.336,2441.95
654.499,2448.3
654.662,2452.0
654.824,2440.35
654.987,2452.0
655.149,2453.3
655.312,2444.85
655.475,2426.35
655.637,2419.95
655.8,2428.4
655.963,2429.8
656.125,2416.9
656.288,2405.55
656.45,2407.2
656.613,2399.35
656.775,2389.25
656.938,2402.45
657.1,2406.6
657.263,2411.6
657.425,2381.15
657.588,2373.3
657.75,2393.35
657.913,2360.7
658.075,2382.35
658.238,2360.65
658.4,2335.55
658.563,2339.75
658.725,2333.15
658.888,2325.4
659.05,2335.85
659.212,2314.3
659.375,2318.35
659.537,2322.35
659.7,2302.9
659.862,2303.0
660.024,2310.45
660.187,2273.05
660.349,2311.1
660.511,2288.25
660.674,2275.65
660.836,2260.2
660.998,2277.7
661.079,2260.95