File: spectra/VLFR_02-HDPE_nobio_Raman_f9277f16.csv
nm,Intensity
526.532,830.467
526.669,830.2
526.805,830.067
526.942,829.667
527.079,830.533
527.216,830.8
527.352,829.867
527.489,830.8
527.625,829.7
527.762,830.033
527.899,830.233
528.035,830.433
528.172,830.3
528.309,830.3
528.445,830.367
528.582,830.067
528.718,830.9
528.855,829.067
528.992,830.2
529.128,829.6
529.265,830.233
529.401,830.1
529.538,829.6
529.674,830.533
529.811,830.767
529.947,830.8
530.084,829.867
530.22,829.933
530.357,829.867
530.493,830.1
530.63,830.1
530.766,829.533
530.903,830.633
531.039,829.9
531.176,831.167
531.312,830.033
531.449,830.0
531.585,830.133
531.721,830.367
531.858,830.733
531.994,835.733
532.131,858.8
532.267,854.4
532.403,834.067
532.54,830.633
532.676,830.233
532.812,830.233
532.949,829.333
533.085,829.933
533.221,829.967
533.358,830.567
533.494,830.8
533.63,830.867
533.767,839.533
533.903,867.8
534.039,899.367
534.176,908.1
534.312,900.067
534.448,896.9
534.584,893.467
534.721,892.1
534.857,887.1
534.993,885.5
535.129,881.967
535.266,879.267
535.402,876.633
535.538,873.2
535.674,869.633
535.81,867.767
535.947,866.033
536.083,864.833
536.219,864.8
536.355,861.633
536.491,862.567
536.627,861.567
536.764,860.833
536.9,859.0
537.036,858.767
537.172,858.8
537.308,859.0
537.444,858.867
537.58,859.533
537.716,858.867
537.852,859.0
537.988,860.333
538.125,858.9
538.261,858.033
538.397,855.933
538.533,855.1
538.669,853.5
538.805,854.033
538.941,853.6
539.077,853.0
539.213,852.0
539.349,852.967
539.485,850.7
539.621,850.333
539.757,850.867
539.893,848.767
540.029,850.033
540.165,849.1
540.301,849.233
540.437,848.233
540.572,847.7
540.708,848.733
540.844,848.6
540.98,848.267
541.116,849.367
541.252,847.5
541.388,847.467
541.524,847.9
541.66,848.267
541.795,848.533
541.931,848.0
542.067,847.5
542.203,847.267
542.339,847.633
542.475,847.167
542.611,847.567
542.746,848.533
542.882,846.867
543.018,846.3
543.154,847.333
543.289,847.3
543.425,846.933
543.561,846.2
543.697,847.533
543.833,846.6
543.968,846.867
544.104,848.633
544.24,847.133
544.375,847.133
544.511,847.667
544.647,846.433
544.783,846.167
544.918,846.7
545.054,847.267
545.19,845.267
545.325,846.567
545.461,846.033
545.597,846.3
545.732,845.1
545.868,846.3
546.004,847.433
546.139,845.767
546.275,846.167
546.41,846.033
546.546,845.967
546.682,847.533
546.817,846.4
546.953,847.2
547.088,846.333
547.224,846.1
547.36,846.267
547.495,847.133
547.631,846.933
547.766,845.9
547.902,846.0
548.037,846.133
548.173,846.733
548.308,847.467
548.444,846.267
548.579,844.867
548.715,846.1
548.85,845.733
548.986,844.933
549.121,845.2
549.257,845.833
549.392,846.267
549.528,846.433
549.663,845.1
549.798,844.933
549.934,846.7
550.069,845.267
550.205,846.033
550.34,846.833
550.475,846.567
550.611,846.5
550.746,845.867
550.882,845.4
551.017,847.4
551.152,846.4
551.288,845.933
551.423,845.933
551.558,845.2
551.694,845.767
551.829,846.767
551.964,846.133
552.1,845.733
552.235,846.167
552.37,846.633
552.505,846.2
552.641,845.967
552.776,847.4
552.911,846.6
553.047,847.167
553.182,848.8
553.317,849.133
553.452,849.033
553.588,850.267
553.723,849.167
553.858,849.7
553.993,848.167
554.128,849.067
554.264,849.3
554.399,849.267
554.534,849.233
554.669,849.833
554.804,851.233
554.939,850.967
555.075,849.567
555.21,849.8
555.345,850.967
555.48,849.6
555.615,851.6
555.75,851.133
555.885,851.833
556.02,851.033
556.155,851.567
556.291,852.1
556.426,852.767
556.561,852.967
556.696,853.167
556.831,855.633
556.966,853.6
557.101,854.967
557.236,854.533
557.371,856.4
557.506,857.7
557.641,858.9
557.776,859.633
557.911,858.033
558.046,859.867
558.181,859.767
558.316,861.133
558.451,860.433
558.586,861.233
558.721,861.867
558.856,860.4
558.991,858.833
559.126,859.467
559.261,857.133
559.396,855.133
559.531,857.533
559.665,858.067
559.8,856.933
559.935,857.333
560.07,855.367
560.205,856.167
560.34,855.467
560.475,852.733
560.61,855.0
560.745,855.167
560.879,855.467
561.014,854.367
561.149,855.333
561.284,856.133
561.419,855.767
561.553,854.9
561.688,855.5
561.823,856.1
561.958,854.7
562.093,857.267
562.227,857.633
562.362,857.267
562.497,858.833
562.632,859.733
562.767,860.167
562.901,861.667
563.036,863.3
563.171,863.467
563.305,864.6
563.44,865.367
563.575,870.967
563.71,876.667
563.844,908.667
563.979,998.5
564.114,1043.93
564.248,952.1
564.383,897.833
564.518,887.967
564.652,887.867
564.787,887.133
564.922,882.667
565.056,879.833
565.191,876.267
565.325,875.8
565.46,875.0
565.595,879.067
565.729,884.9
565.864,905.6
565.999,965.033
566.133,1143.43
566.268,1193.53
566.402,1007.7
566.537,904.7
566.671,880.033
566.806,871.067
566.94,867.1
567.075,868.933
567.21,867.233
567.344,867.733
567.479,872.333
567.613,869.533
567.748,864.4
567.882,861.867
568.017,860.9
568.151,861.767
568.285,861.467
568.42,861.133
568.554,860.6
568.689,860.7
568.823,860.833
568.958,859.2
569.092,860.3
569.227,861.4
569.361,861.8
569.495,863.167
569.63,862.433
569.764,862.333
569.899,862.0
570.033,862.7
570.167,863.5
570.302,865.2
570.436,869.167
570.571,869.633
570.705,874.233
570.839,875.967
570.974,875.867
571.108,878.267
571.242,886.3
571.377,931.067
571.511,1108.5
571.645,1150.73
571.78,975.1
571.914,910.067
572.048,894.8
572.182,886.667
572.317,879.267
572.451,874.333
572.585,871.367
572.719,867.933
572.854,865.767
572.988,865.333
573.122,864.367
573.256,864.567
573.391,865.233
573.525,864.633
573.659,867.367
573.793,871.3
573.927,881.0
574.062,882.1
574.196,875.267
574.33,870.067
574.464,865.833
574.598,865.267
574.733,865.7
574.867,866.2
575.001,868.767
575.135,872.633
575.269,884.767
575.403,942.933
575.537,1083.13
575.671,1066.87
575.806,962.567
575.94,936.5
576.074,942.633
576.208,971.867
576.342,989.3
576.476,976.3
576.61,955.1
576.744,947.833
576.878,948.767
577.012,945.3
577.146,940.2
577.28,925.733
577.414,907.567
577.548,894.333
577.682,887.267
577.817,882.2
577.951,880.533
578.085,878.6
578.219,876.733
578.353,874.867
578.486,875.067
578.62,874.267
578.754,875.633
578.888,874.1
579.022,876.233
579.156,876.467
579.29,876.067
579.424,875.767
579.558,875.9
579.692,877.6
579.826,877.8
579.96,880.0
580.094,879.467
580.228,879.867
580.362,879.833
580.496,877.467
580.629,878.8
580.763,880.0
580.897,879.933
581.031,881.733
581.165,882.967
581.299,882.4
581.433,882.133
581.566,883.033
581.7,883.767
581.834,885.533
581.968,884.8
582.102,884.7
582.236,885.633
582.369,885.933
582.503,888.133
582.637,886.433
582.771,888.1
582.905,888.533
583.038,889.967
583.172,890.3
583.306,891.767
583.44,890.467
583.573,890.533
583.707,891.733
583.841,893.233
583.975,893.033
584.108,893.4
584.242,893.933
584.376,894.867
584.509,895.367
584.643,895.133
584.777,895.767
584.911,897.233
585.044,897.567
585.178,899.167
585.312,899.2
585.445,900.567
585.579,902.6
585.713,901.067
585.846,903.733
585.98,902.033
586.113,903.833
586.247,904.867
586.381,907.033
586.514,906.1
586.648,908.633
586.782,909.567
586.915,911.5
587.049,910.167
587.182,912.2
587.316,912.767
587.45,913.133
587.583,912.467
587.717,912.567
587.85,911.267
587.984,915.367
588.117,915.2
588.251,917.8
588.384,914.767
588.518,917.133
588.651,917.733
588.785,919.033
588.919,918.267
589.052,920.067
589.186,919.467
589.319,923.5
589.453,921.6
589.586,921.9
589.72,925.133
589.853,925.933
589.986,925.233
590.12,926.033
590.253,927.233
590.387,927.1
590.52,927.133
590.654,928.033
590.787,930.933
590.921,928.433
591.054,931.067
591.187,933.067
591.321,930.467
591.454,932.7
591.588,936.233
591.721,936.067
591.854,934.9
591.988,934.133
592.121,935.033
592.255,932.3
592.388,935.533
592.521,937.133
592.655,936.433
592.788,935.367
592.921,937.267
593.055,936.5
593.188,938.3
593.321,937.5
593.455,938.8
593.588,939.567
593.721,938.2
593.855,941.167
593.988,940.6
594.121,938.567
594.255,940.4
594.388,938.5
594.521,941.7
594.654,939.167
594.788,940.467
594.921,941.9
595.054,940.567
595.187,942.133
595.321,940.333
595.454,943.5
595.587,941.233
595.72,942.633
595.854,943.733
595.987,943.367
596.12,941.333
596.253,939.933
596.387,942.767
596.52,944.767
596.653,941.9
596.786,944.567
596.919,942.667
597.052,944.7
597.186,943.1
597.319,943.467
597.452,945.467
597.585,941.767
597.718,944.0
597.851,948.367
597.985,944.067
598.118,945.633
598.251,947.4
598.384,945.6
598.517,945.667
598.65,945.867
598.783,947.367
598.916,943.367
599.049,948.7
599.183,946.9
599.316,947.333
599.449,948.133
599.582,946.833
599.715,945.4
599.848,947.133
599.981,949.4
600.114,948.2
600.247,946.867
600.38,946.267
600.513,943.1
600.646,946.533
600.779,944.367
600.912,944.533
601.045,941.9
601.178,945.667
601.311,944.333
601.444,943.867
601.577,940.567
601.71,942.967
601.843,944.633
601.976,943.367
602.109,943.467
602.242,942.533
602.375,943.9
602.508,942.867
602.641,941.767
602.774,941.167
602.907,940.067
603.04,937.0
603.173,939.167
603.306,937.267
603.439,940.3
603.572,939.267
603.705,937.4
603.838,936.9
603.971,937.967
604.103,935.167
604.236,931.9
604.369,935.633
604.502,929.9
604.635,934.567
604.768,930.333
604.901,931.367
605.034,928.667
605.167,928.633
605.299,927.567
605.432,924.933
605.565,926.267
605.698,926.3
605.831,923.3
605.964,924.633
606.096,923.767
606.229,919.533
606.362,920.1
606.495,917.867
606.628,919.333
606.761,922.067
606.893,918.467
607.026,918.067
607.159,918.067
607.292,920.1
607.425,915.833
607.557,917.867
607.69,917.0
607.823,915.633
607.956,917.967
608.088,917.667
608.221,915.4
608.354,915.667
608.487,915.633
608.619,915.633
608.752,913.567
608.885,911.467
609.018,912.433
609.15,914.133
609.283,910.433
609.416,912.8
609.548,912.2
609.681,909.9
609.814,911.067
609.947,909.8
610.079,909.4
610.212,910.9
610.345,910.8
610.477,907.167
610.61,912.2
610.743,912.067
610.875,912.4
611.008,914.233
611.141,912.3
611.273,915.367
611.406,913.3
611.539,910.267
611.671,908.033
611.804,906.333
611.936,906.6
612.069,905.6
612.202,905.8
612.334,906.867
612.467,906.733
612.6,906.467
612.732,906.067
612.865,902.733
612.997,901.733
613.13,904.833
613.263,903.633
613.395,903.867
613.528,903.3
613.66,902.8
613.793,902.567
613.925,902.167
614.058,902.6
614.19,898.833
614.323,902.367
614.456,900.333
614.588,902.067
614.721,901.5
614.853,901.467
614.986,900.2
615.118,899.7
615.251,899.933
615.383,899.833
615.516,899.233
615.648,900.367
615.781,898.2
615.913,898.733
616.046,899.7
616.178,897.6
616.311,899.8
616.443,898.6
616.576,898.4
616.708,899.233
616.841,899.9
616.973,902.567
617.106,901.6
617.238,904.167
617.37,902.967
617.503,903.033
617.635,902.433
617.768,900.433
617.9,901.233
618.033,901.767
618.165,901.967
618.297,901.267
618.43,901.633
618.562,900.4
618.695,898.633
618.827,899.333
618.96,900.867
619.092,900.433
619.224,901.4
619.357,901.467
619.489,900.733
619.621,902.567
619.754,903.867
619.886,901.3
620.019,901.933
620.151,899.767
620.283,900.867
620.416,901.0
620.548,901.933
620.68,902.5
620.813,903.767
620.945,903.1
621.077,903.433
621.21,905.667
621.342,907.0
621.474,907.667
621.607,914.133
621.739,917.267
621.871,921.1
622.004,926.067
622.136,929.0
622.268,932.767
622.401,934.133
622.533,931.0
622.665,925.867
622.797,915.8
622.93,912.033
623.062,910.067
623.194,906.2
623.326,902.733
623.459,901.1
623.591,900.667
623.723,900.3
623.856,900.9
623.988,899.533
624.12,901.8
624.252,899.033
624.384,900.433
624.517,898.133
624.649,900.233
624.781,900.4
624.913,898.6
625.046,901.0
625.178,902.233
625.31,903.5
625.442,904.1
625.574,905.6
625.707,908.867
625.839,908.533
625.971,913.567
626.103,917.467
626.235,923.467
626.368,935.533
626.5,954.3
626.632,989.433
626.764,1052.3
626.896,1159.03
627.028,1317.4
627.161,1503.6
627.293,1582.23
627.425,1522.77
627.557,1423.8
627.689,1344.9
627.821,1289.43
627.953,1252.4
628.086,1236.97
628.218,1240.93
628.35,1295.07
628.482,1437.3
628.614,1600.43
628.746,1522.97
628.878,1395.2
629.01,1340.5
629.143,1322.83
629.275,1301.5
629.407,1274.77
629.539,1238.8
629.671,1205.0
629.803,1179.53
629.935,1159.5
630.067,1149.33
630.199,1141.27
630.331,1142.1
630.463,1132.03
630.596,1116.53
630.728,1092.77
630.86,1064.93
630.992,1025.37
631.124,988.333
631.256,961.133
631.388,944.033
631.52,933.5
631.652,930.267
631.784,924.0
631.916,919.267
632.048,913.4
632.18,910.1
632.312,909.433
632.444,905.1
632.576,905.033
632.708,901.533
632.84,900.133
632.972,901.833
633.104,901.6
633.236,900.4
633.368,900.633
633.5,899.233
633.632,898.2
633.764,898.467
633.896,897.467
634.028,896.867
634.16,895.433
634.292,895.233
634.424,896.233
634.556,895.067
634.688,893.3
634.82,893.833
634.952,893.7
635.084,892.933
635.216,894.6
635.348,892.967
635.48,891.767
635.612,892.567
635.744,893.6
635.876,893.367
636.007,893.733
636.139,893.567
636.271,895.4
636.403,893.0
636.535,893.133
636.667,892.9
636.799,893.7
636.931,892.367
637.063,890.867
637.195,892.367
637.327,890.467
637.459,892.367
637.59,890.333
637.722,889.367
637.854,888.733
637.986,891.333
638.118,889.533
638.25,892.9
638.382,888.933
638.514,890.833
638.645,889.133
638.777,890.6
638.909,890.9
639.041,891.8
639.173,891.1
639.305,889.567
639.437,892.767
639.568,891.033
639.7,889.967
639.832,888.5
639.964,891.167
640.096,891.2
640.228,891.467
640.36,890.467
640.491,892.967
640.623,891.367
640.755,890.367
640.887,892.867
641.019,891.9
641.15,892.567
641.282,892.733
641.414,892.433
641.546,892.733
641.678,892.6
641.81,891.067
641.941,892.1
642.073,891.533
642.205,890.233
642.337,891.067
642.468,890.967
642.6,890.833
642.732,894.2
642.864,892.167
642.996,889.8
643.127,893.767
643.259,894.567
643.391,891.933
643.523,892.067
643.654,890.2
643.786,891.2
643.918,891.433
644.05,892.033
644.181,890.733
644.313,892.5
644.445,893.4
644.577,892.033
644.708,892.3
644.84,894.033
644.972,892.333
645.104,892.033
645.235,891.667
645.367,893.433
645.499,890.167
645.631,892.667
645.762,891.9
645.894,890.667
646.026,891.3
646.157,893.833
646.289,890.667
646.421,893.067
646.553,892.1
646.684,892.333
646.816,893.667
646.948,893.4
647.079,891.967
647.211,891.833
647.343,892.067
647.474,893.0
647.606,893.067
647.738,891.633
647.869,890.067
648.001,890.9
648.133,891.133
648.265,888.767
648.396,891.667
648.528,891.333
648.66,892.667
648.791,890.167
648.923,889.533
649.054,891.667
649.186,889.8
649.318,890.0
649.449,888.967
649.581,889.6
649.713,891.733
649.844,890.1
649.976,889.3
650.108,890.267
650.239,890.833
650.371,889.767
650.503,889.4
650.634,888.9
650.766,887.267
650.897,888.733
651.029,890.233
651.161,891.0
651.292,887.667
651.424,887.133
651.556,889.433
651.687,887.2
651.819,888.167
651.95,889.267
652.082,889.8
652.214,887.433
652.345,888.8
652.477,888.5
652.608,887.3
652.74,888.1
652.872,888.767
653.003,886.833
653.135,888.667
653.266,887.367
653.398,886.567
653.529,889.367
653.661,887.3
653.793,886.8
653.924,886.3
654.056,887.367
654.187,887.467
654.319,888.267
654.45,885.933
654.582,885.5
654.714,886.3
654.845,884.0
654.977,885.3
655.108,885.9
655.24,883.867
655.371,885.733
655.503,885.833
655.634,886.833
655.766,884.8
655.897,885.433
656.029,883.833
656.161,883.667
656.292,885.067
656.424,885.2
656.555,884.267
656.687,884.733
656.818,884.333
656.95,884.8
657.081,883.333
657.213,883.7
657.344,883.8
657.476,883.567
657.607,884.167
657.739,883.433
657.87,883.167
658.002,882.7
658.133,881.2
658.265,881.067
658.396,881.3
658.528,885.1
658.659,882.1
658.791,883.433
658.922,881.067
659.054,880.933
659.185,879.833
659.317,881.033
659.448,880.433
659.58,880.133
659.711,880.267
659.843,879.8
659.974,879.1
660.106,880.633
660.237,880.133
660.368,878.733
660.5,879.933
660.631,877.667
660.763,877.033
660.894,877.167
661.026,877.867
661.157,876.333
661.289,876.867
661.42,877.5
661.552,875.1
661.683,878.233
661.815,876.533
661.946,876.467
662.077,874.4
662.209,875.233
662.34,874.933
662.472,873.4
662.603,871.8
662.735,873.433
662.866,872.2
662.997,872.367
663.129,873.167