File: spectra/VLFR_08-PLA_bio_Raman_b3eaa2af.csv
nm,Intensity
528.65,1845.65
528.819,1844.7
528.987,1845.5
529.155,1844.6
529.324,1844.7
529.492,1844.3
529.66,1844.25
529.829,1844.6
529.997,1844.0
530.165,1844.9
530.334,1843.8
530.502,1844.7
530.67,1844.4
530.839,1844.25
531.007,1845.0
531.175,1846.0
531.344,1846.5
531.512,1847.6
531.68,1857.1
531.848,2048.75
532.017,2863.3
532.185,2581.7
532.353,1905.35
532.521,1846.35
532.69,1845.45
532.858,1846.05
533.026,1846.8
533.194,1845.45
533.363,1846.85
533.531,1865.65
533.699,1960.65
533.867,2116.45
534.036,2210.85
534.204,2207.55
534.372,2208.9
534.54,2179.75
534.708,2168.95
534.877,2160.1
535.045,2179.55
535.213,2169.95
535.381,2161.95
535.549,2148.65
535.717,2144.7
535.886,2125.85
536.054,2122.35
536.222,2117.45
536.39,2132.5
536.558,2142.95
536.726,2150.55
536.894,2131.65
537.062,2110.3
537.231,2122.65
537.399,2117.85
537.567,2128.0
537.735,2143.45
537.903,2139.0
538.071,2131.0
538.239,2119.65
538.407,2123.65
538.575,2121.25
538.743,2123.35
538.911,2138.5
539.079,2148.35
539.247,2144.3
539.415,2121.9
539.583,2106.9
539.751,2098.4
539.919,2100.85
540.087,2098.4
540.255,2122.25
540.423,2135.45
540.591,2159.05
540.759,2159.45
540.927,2155.55
541.095,2152.6
541.263,2146.3
541.431,2132.8
541.599,2135.65
541.767,2117.95
541.935,2123.55
542.103,2132.5
542.271,2134.5
542.439,2135.85
542.607,2128.3
542.775,2132.55
542.943,2155.75
543.111,2163.7
543.279,2179.1
543.446,2216.0
543.614,2219.5
543.782,2220.55
543.95,2226.85
544.118,2200.55
544.286,2173.9
544.454,2156.45
544.622,2143.65
544.789,2137.0
544.957,2145.6
545.125,2137.35
545.293,2137.05
545.461,2128.55
545.629,2133.45
545.796,2150.1
545.964,2134.5
546.132,2145.85
546.3,2140.85
546.468,2143.85
546.635,2159.45
546.803,2153.95
546.971,2148.3
547.139,2150.35
547.306,2153.75
547.474,2167.1
547.642,2156.8
547.81,2166.6
547.977,2157.25
548.145,2161.15
548.313,2175.1
548.481,2167.05
548.648,2170.45
548.816,2167.8
548.984,2177.0
549.151,2165.7
549.319,2179.9
549.487,2191.95
549.655,2188.2
549.822,2169.5
549.99,2183.1
550.158,2184.15
550.325,2176.5
550.493,2192.4
550.66,2173.25
550.828,2200.3
550.996,2200.05
551.163,2208.2
551.331,2204.9
551.499,2218.1
551.666,2223.45
551.834,2204.9
552.001,2223.2
552.169,2234.75
552.337,2227.1
552.504,2218.35
552.672,2218.5
552.839,2227.7
553.007,2231.55
553.174,2226.15
553.342,2219.8
553.509,2216.85
553.677,2226.15
553.844,2248.25
554.012,2243.0
554.179,2240.35
554.347,2227.1
554.514,2216.55
554.682,2221.35
554.849,2213.0
555.017,2219.05
555.184,2211.0
555.352,2193.9
555.519,2207.0
555.687,2207.25
555.854,2211.6
556.022,2201.45
556.189,2200.95
556.357,2227.7
556.524,2216.95
556.691,2221.8
556.859,2219.7
557.026,2205.7
557.194,2246.15
557.361,2246.5
557.528,2280.0
557.696,2345.65
557.863,2472.0
558.031,2582.15
558.198,2535.1
558.365,2389.75
558.533,2286.0
558.7,2268.2
558.867,2265.95
559.035,2260.85
559.202,2253.05
559.369,2246.95
559.537,2275.85
559.704,2264.75
559.871,2253.2
560.038,2242.25
560.206,2252.15
560.373,2234.35
560.54,2252.95
560.708,2239.95
560.875,2237.55
561.042,2244.95
561.209,2240.45
561.377,2240.9
561.544,2232.75
561.711,2241.7
561.878,2238.0
562.045,2249.25
562.213,2249.2
562.38,2234.95
562.547,2262.15
562.714,2257.2
562.881,2273.1
563.049,2305.8
563.216,2340.9
563.383,2345.65
563.55,2352.65
563.717,2320.75
563.884,2297.4
564.052,2282.15
564.219,2278.8
564.386,2288.15
564.553,2301.8
564.72,2327.25
564.887,2332.4
565.054,2328.8
565.221,2342.7
565.388,2338.7
565.556,2333.85
565.723,2336.2
565.89,2359.3
566.057,2408.5
566.224,2409.8
566.391,2393.25
566.558,2345.05
566.725,2300.9
566.892,2287.7
567.059,2291.15
567.226,2285.0
567.393,2278.55
567.56,2283.9
567.727,2314.5
567.894,2336.15
568.061,2318.25
568.228,2298.75
568.395,2308.5
568.562,2310.2
568.729,2314.85
568.896,2318.7
569.063,2320.85
569.23,2317.95
569.396,2308.15
569.563,2302.0
569.73,2317.35
569.897,2313.95
570.064,2320.75
570.231,2305.7
570.398,2338.3
570.565,2316.05
570.732,2322.25
570.898,2337.55
571.065,2339.9
571.232,2354.6
571.399,2391.0
571.566,2424.3
571.733,2416.15
571.9,2396.55
572.066,2367.5
572.233,2362.5
572.4,2362.9
572.567,2367.8
572.734,2364.0
572.9,2364.6
573.067,2359.45
573.234,2366.45
573.401,2367.4
573.567,2378.4
573.734,2374.85
573.901,2370.3
574.068,2373.1
574.234,2378.05
574.401,2395.6
574.568,2387.0
574.734,2387.35
574.901,2347.4
575.068,2339.4
575.235,2329.95
575.401,2345.1
575.568,2342.9
575.735,2340.8
575.901,2354.3
576.068,2350.15
576.235,2380.05
576.401,2443.3
576.568,2504.45
576.734,2568.25
576.901,2512.85
577.068,2470.85
577.234,2404.45
577.401,2370.65
577.567,2339.5
577.734,2348.85
577.901,2349.85
578.067,2333.15
578.234,2338.7
578.4,2328.9
578.567,2328.35
578.733,2332.85
578.9,2334.65
579.066,2338.95
579.233,2323.45
579.399,2341.65
579.566,2335.15
579.732,2350.3
579.899,2333.8
580.065,2334.1
580.232,2334.3
580.398,2344.6
580.565,2334.05
580.731,2330.35
580.898,2329.1
581.064,2344.15
581.231,2322.2
581.397,2326.7
581.563,2336.7
581.73,2336.0
581.896,2329.1
582.063,2334.65
582.229,2324.4
582.395,2328.35
582.562,2321.3
582.728,2336.95
582.895,2332.6
583.061,2336.15
583.227,2336.9
583.394,2339.85
583.56,2342.25
583.726,2328.2
583.893,2337.25
584.059,2324.25
584.225,2322.35
584.391,2341.55
584.558,2340.9
584.724,2322.8
584.89,2349.05
585.057,2332.1
585.223,2334.55
585.389,2331.3
585.555,2323.3
585.722,2335.0
585.888,2332.95
586.054,2324.45
586.22,2348.7
586.386,2340.65
586.553,2375.2
586.719,2406.65
586.885,2447.95
587.051,2449.0
587.217,2487.45
587.384,2515.85
587.55,2493.55
587.716,2468.6
587.882,2424.45
588.048,2390.25
588.214,2360.6
588.38,2349.95
588.546,2343.45
588.713,2330.65
588.879,2329.2
589.045,2329.45
589.211,2339.85
589.377,2323.35
589.543,2327.15
589.709,2328.1
589.875,2302.0
590.041,2319.7
590.207,2316.95
590.373,2321.35
590.539,2332.45
590.705,2336.1
590.871,2321.55
591.037,2315.1
591.203,2325.3
591.369,2324.65
591.535,2329.3
591.701,2314.45
591.867,2322.65
592.033,2323.9
592.199,2320.25
592.365,2336.25
592.531,2338.05
592.697,2328.7
592.863,2316.25
593.029,2340.85
593.195,2319.6
593.361,2308.45
593.526,2323.4
593.692,2301.5
593.858,2335.3
594.024,2334.5
594.19,2319.55
594.356,2316.75
594.522,2324.3
594.687,2321.9
594.853,2316.8
595.019,2328.95
595.185,2334.15
595.351,2321.85
595.516,2330.55
595.682,2336.2
595.848,2313.55
596.014,2330.55
596.18,2331.5
596.345,2319.65
596.511,2318.85
596.677,2324.5
596.843,2320.45
597.008,2327.5
597.174,2337.65
597.34,2319.75
597.505,2339.15
597.671,2316.65
597.837,2306.75
598.002,2313.2
598.168,2324.2
598.334,2326.85
598.499,2323.0
598.665,2325.6
598.831,2318.45
598.996,2311.45
599.162,2323.8
599.328,2337.9
599.493,2324.85
599.659,2330.65
599.824,2329.85
599.99,2328.8
600.156,2328.0
600.321,2317.5
600.487,2325.6
600.652,2325.2
600.818,2318.4
600.983,2326.1
601.149,2308.85
601.314,2322.15
601.48,2335.95
601.645,2332.65
601.811,2329.45
601.976,2302.95
602.142,2339.95
602.307,2323.55
602.473,2329.7
602.638,2325.3
602.804,2325.35
602.969,2326.7
603.135,2317.95
603.3,2313.8
603.466,2332.3
603.631,2318.5
603.796,2335.65
603.962,2323.05
604.127,2311.7
604.293,2325.7
604.458,2319.25
604.623,2325.85
604.789,2321.9
604.954,2328.2
605.119,2309.95
605.285,2316.45
605.45,2324.15
605.615,2311.1
605.781,2310.8
605.946,2313.7
606.111,2310.5
606.277,2319.75
606.442,2321.35
606.607,2329.5
606.772,2328.55
606.938,2311.55
607.103,2320.6
607.268,2307.9
607.433,2319.55
607.599,2334.4
607.764,2317.15
607.929,2323.9
608.094,2319.4
608.259,2327.9
608.425,2296.75
608.59,2330.6
608.755,2307.9
608.92,2312.3
609.085,2312.2
609.25,2318.9
609.415,2302.25
609.581,2326.6
609.746,2318.8
609.911,2316.2
610.076,2327.85
610.241,2312.9
610.406,2312.3
610.571,2321.85
610.736,2329.0
610.901,2308.55
611.066,2316.6
611.231,2328.4
611.396,2302.4
611.561,2319.9
611.727,2319.85
611.892,2320.2
612.057,2308.35
612.222,2315.6
612.386,2309.25
612.551,2315.75
612.716,2321.9
612.881,2311.45
613.046,2309.9
613.211,2308.9
613.376,2307.2
613.541,2313.0
613.706,2311.9
613.871,2316.7
614.036,2321.0
614.201,2296.9
614.366,2322.5
614.531,2306.1
614.695,2309.45
614.86,2301.75
615.025,2311.0
615.19,2308.6
615.355,2311.1
615.52,2307.3
615.684,2319.25
615.849,2320.4
616.014,2315.5
616.179,2297.95
616.344,2286.75
616.508,2323.3
616.673,2307.35
616.838,2302.35
617.003,2303.8
617.168,2297.65
617.332,2305.95
617.497,2298.4
617.662,2306.4
617.826,2304.75
617.991,2309.1
618.156,2308.7
618.32,2303.9
618.485,2296.1
618.65,2304.4
618.814,2305.8
618.979,2307.05
619.144,2298.5
619.308,2299.45
619.473,2295.25
619.638,2296.5
619.802,2306.6
619.967,2306.0
620.131,2299.6
620.296,2303.35
620.461,2313.0
620.625,2300.1
620.79,2296.2
620.954,2297.05
621.119,2300.4
621.283,2288.95
621.448,2283.8
621.612,2307.75
621.777,2303.2
621.941,2289.1
622.106,2295.1
622.27,2311.25
622.435,2320.8
622.599,2325.8
622.764,2336.85
622.928,2329.65
623.093,2337.25
623.257,2330.25
623.422,2326.7
623.586,2325.0
623.75,2316.8
623.915,2315.0
624.079,2326.6
624.244,2299.6
624.408,2314.8
624.572,2298.15
624.737,2292.7
624.901,2296.7
625.065,2290.9
625.23,2284.9
625.394,2285.95
625.558,2289.15
625.723,2289.9
625.887,2293.9
626.051,2277.6
626.215,2290.2
626.38,2273.05
626.544,2283.7
626.708,2296.45
626.872,2296.2
627.037,2277.4
627.201,2287.0
627.365,2279.25
627.529,2287.3
627.693,2301.9
627.858,2340.55
628.022,2369.3
628.186,2446.35
628.35,2532.45
628.514,2540.25
628.678,2493.2
628.843,2485.4
629.007,2479.9
629.171,2467.7
629.335,2474.75
629.499,2518.4
629.663,2490.7
629.827,2477.15
629.991,2477.1
630.155,2503.5
630.319,2571.45
630.483,2717.2
630.647,2944.45
630.812,3361.8
630.976,3736.85
631.14,3976.6
631.304,3678.4
631.468,3332.45
631.632,3020.8
631.796,2857.95
631.959,2751.55
632.123,2656.0
632.287,2612.15
632.451,2584.8
632.615,2614.7
632.779,2660.1
632.943,2768.1
633.107,2890.25
633.271,2898.9
633.435,2929.65
633.599,2812.25
633.763,2729.7
633.926,2650.6
634.09,2540.05
634.254,2442.15
634.418,2402.95
634.582,2356.35
634.746,2313.4
634.909,2303.55
635.073,2293.45
635.237,2282.75
635.401,2265.15
635.564,2255.45
635.728,2262.2
635.892,2258.05
636.056,2248.3
636.219,2242.05
636.383,2243.65
636.547,2240.1
636.711,2230.3
636.874,2241.25
637.038,2240.95
637.202,2226.3
637.365,2229.1
637.529,2240.3
637.693,2225.25
637.856,2236.05
638.02,2215.8
638.184,2216.75
638.347,2227.4
638.511,2213.85
638.674,2224.15
638.838,2224.25
639.002,2196.0
639.165,2226.15
639.329,2221.9
639.492,2216.2
639.656,2211.55
639.819,2208.4
639.983,2201.7
640.146,2219.9
640.31,2222.2
640.473,2203.5
640.637,2201.4
640.8,2212.65
640.964,2202.55
641.127,2202.6
641.291,2218.2
641.454,2210.45
641.618,2194.8
641.781,2204.65
641.944,2202.15
642.108,2197.7
642.271,2205.65
642.435,2201.3
642.598,2213.3
642.761,2208.95
642.925,2197.65
643.088,2187.7
643.251,2200.4
643.415,2186.95
643.578,2190.4
643.741,2185.2
643.905,2186.4
644.068,2188.2
644.231,2182.9
644.394,2191.1
644.558,2178.2
644.721,2176.85
644.884,2163.3
645.047,2185.2
645.211,2169.6
645.374,2182.95
645.537,2183.45
645.7,2162.3
645.863,2165.6
646.027,2158.2
646.19,2162.4
646.353,2172.9
646.516,2164.2
646.679,2162.35
646.842,2162.4
647.005,2163.2
647.169,2162.55
647.332,2164.85
647.495,2159.8
647.658,2159.35
647.821,2158.8
647.984,2148.75
648.147,2151.65
648.31,2162.0
648.473,2147.3
648.636,2145.3
648.799,2147.6
648.962,2150.05
649.125,2137.75
649.288,2143.25
649.451,2138.65
649.614,2135.95
649.777,2140.55
649.94,2147.15
650.103,2136.95
650.266,2137.0
650.429,2154.9
650.592,2123.15
650.755,2143.8
650.918,2124.35
651.08,2122.15
651.243,2143.15
651.406,2145.55
651.569,2138.25
651.732,2133.8
651.895,2124.05
652.058,2126.1
652.22,2125.85
652.383,2128.55
652.546,2118.3
652.709,2120.65
652.872,2125.9
653.034,2119.8
653.197,2124.4
653.36,2123.95
653.523,2117.75
653.685,2119.95
653.848,2109.05
654.011,2101.95
654.173,2116.85
654.336,2103.3
654.499,2110.15
654.662,2107.4
654.824,2108.25
654.987,2117.75
655.149,2111.45
655.312,2105.55
655.475,2103.7
655.637,2104.85
655.8,2109.9
655.963,2107.95
656.125,2105.7
656.288,2098.2
656.45,2095.9
656.613,2091.55
656.775,2095.75
656.938,2096.45
657.1,2103.3
657.263,2098.1
657.425,2090.95
657.588,2085.65
657.75,2090.05
657.913,2102.55
658.075,2095.75
658.238,2093.7
658.4,2081.0
658.563,2098.4
658.725,2082.45
658.888,2081.95
659.05,2076.6
659.212,2070.65
659.375,2069.05
659.537,2071.85
659.7,2075.95
659.862,2085.65
660.024,2077.5
660.187,2077.15
660.349,2070.75
660.511,2068.25
660.674,2069.65
660.836,2068.95
660.998,2068.8
661.079,2066.6