File: spectra/VLFR_06-PET_nobio_Raman_fbbd0e56.csv
cm-1,Intensity
-123.878,1851.6
-117.855,1851.9
-111.836,1852.9
-105.821,1851.45
-99.8104,1853.9
-93.8036,1853.5
-87.8007,1852.0
-81.8019,1853.3
-75.807,1853.1
-69.8161,1851.9
-63.8293,1854.0
-57.8464,1852.7
-51.8675,1852.95
-45.8926,1852.6
-39.9216,1853.9
-33.9547,1853.6
-27.9917,1854.8
-22.0326,1855.2
-16.0776,1870.0
-10.1265,2165.7
-4.17932,3185.4
1.76388,2866.7
7.70313,1932.2
13.6384,1854.65
19.5698,1854.8
25.4972,1854.05
31.4207,1854.85
37.3403,1855.55
43.256,1858.05
49.1677,1882.05
55.0755,2040.35
60.9794,2325.95
66.8794,2515.7
72.7754,2540.1
78.6676,2549.25
84.5559,2520.6
90.4402,2530.3
96.3207,2515.6
102.197,2521.8
108.07,2518.3
113.939,2526.95
119.804,2519.9
125.665,2504.5
131.522,2502.55
137.375,2481.85
143.225,2499.2
149.07,2492.15
154.912,2494.5
160.75,2502.6
166.584,2495.55
172.414,2518.05
178.241,2516.3
184.063,2559.75
189.882,2537.85
195.697,2548.2
201.508,2565.35
207.315,2578.35
213.119,2574.5
218.918,2578.2
224.714,2583.65
230.506,2597.95
236.294,2588.3
242.078,2615.55
247.859,2613.75
253.636,2602.35
259.409,2635.25
265.178,2630.75
270.943,2664.45
276.705,2660.55
282.463,2665.25
288.217,2677.15
293.967,2669.75
299.713,2671.9
305.456,2662.65
311.195,2679.8
316.93,2718.9
322.662,2700.45
328.389,2702.0
334.113,2708.7
339.834,2718.0
345.55,2733.0
351.263,2737.45
356.972,2751.35
362.677,2777.4
368.379,2780.5
374.077,2763.4
379.771,2807.35
385.461,2781.0
391.148,2823.75
396.831,2816.9
402.51,2809.35
408.186,2836.95
413.858,2830.15
419.526,2809.9
425.19,2853.15
430.851,2836.7
436.508,2879.25
442.162,2866.2
447.811,2877.95
453.458,2867.25
459.1,2904.75
464.739,2876.9
470.374,2904.1
476.005,2889.8
481.633,2936.4
487.257,2910.7
492.878,2931.15
498.494,2926.2
504.107,2964.15
509.717,2959.5
515.323,2961.3
520.925,2966.25
526.524,2975.65
532.119,2977.8
537.71,2989.15
543.298,3036.8
548.882,3023.9
554.462,3035.85
560.039,3032.15
565.613,3060.65
571.182,3078.3
576.748,3056.35
582.311,3041.0
587.87,3081.35
593.425,3084.3
598.977,3089.1
604.525,3119.4
610.069,3090.2
615.61,3087.9
621.148,3149.4
626.682,3169.45
632.212,3201.35
637.739,3206.5
643.262,3186.35
648.781,3190.05
654.297,3186.65
659.81,3208.6
665.319,3229.15
670.824,3229.6
676.326,3266.65
681.824,3255.95
687.319,3248.85
692.81,3265.0
698.298,3271.2
703.782,3276.2
709.262,3258.5
714.739,3276.15
720.213,3306.9
725.683,3280.95
731.15,3321.3
736.613,3346.4
742.072,3339.15
747.528,3360.7
752.981,3371.75
758.43,3368.85
763.875,3410.0
769.317,3431.15
774.756,3421.6
780.191,3392.1
785.623,3428.1
791.051,3455.45
796.475,3476.7
801.897,3452.9
807.314,3475.45
812.729,3491.65
818.139,3489.4
823.547,3491.35
828.951,3518.85
834.351,3528.65
839.748,3496.95
845.142,3564.5
850.532,3560.5
855.918,3595.2
861.302,3606.2
866.681,3570.1
872.058,3596.3
877.431,3610.35
882.8,3626.95
888.166,3642.25
893.529,3614.95
898.888,3625.55
904.244,3660.2
909.596,3674.6
914.945,3661.0
920.291,3696.85
925.633,3717.9
930.972,3682.1
936.308,3695.2
941.64,3742.55
946.968,3752.85
952.294,3726.9
957.615,3785.85
962.934,3800.6
968.249,3785.8
973.561,3758.05
978.869,3842.15
984.174,3807.1
989.476,3845.15
994.774,3865.9
1000.07,3874.5
1005.36,3864.1
1010.65,3885.4
1015.93,3909.0
1021.22,3942.05
1026.49,3926.0
1031.77,3958.25
1037.04,3957.75
1042.31,3969.75
1047.57,3981.7
1052.83,3991.3
1058.09,3984.4
1063.35,4048.55
1068.6,3997.85
1073.85,4019.0
1079.09,4070.8
1084.33,4107.25
1089.57,4110.2
1094.81,4130.0
1100.04,4149.95
1105.27,4128.7
1110.49,4162.25
1115.71,4225.95
1120.93,4242.95
1126.15,4177.6
1131.36,4178.95
1136.57,4148.75
1141.77,4181.8
1146.98,4213.8
1152.18,4238.15
1157.37,4276.55
1162.56,4253.1
1167.75,4266.7
1172.94,4317.25
1178.12,4293.4
1183.3,4291.2
1188.48,4309.45
1193.65,4322.3
1198.82,4293.4
1203.99,4359.3
1209.15,4340.2
1214.31,4379.95
1219.46,4391.2
1224.62,4404.45
1229.77,4419.5
1234.92,4413.35
1240.06,4413.65
1245.2,4431.0
1250.34,4450.25
1255.47,4454.0
1260.6,4454.35
1265.73,4543.75
1270.85,4494.05
1275.97,4479.2
1281.09,4572.1
1286.21,4575.85
1291.32,4679.1
1296.43,4549.75
1301.53,4616.4
1306.63,4637.55
1311.73,4613.0
1316.83,4676.85
1321.92,4605.3
1327.01,4539.45
1332.1,4646.35
1337.18,4591.35
1342.26,4627.55
1347.34,4647.35
1352.41,4641.25
1357.48,4552.1
1362.55,4589.7
1367.61,4623.9
1372.67,4709.9
1377.73,4658.85
1382.78,4625.75
1387.84,4638.15
1392.88,4613.35
1397.93,4661.45
1402.97,4764.75
1408.01,4673.55
1413.05,4679.3
1418.08,4700.85
1423.11,4768.75
1428.14,4761.75
1433.16,4713.65
1438.18,4779.65
1443.2,4734.45
1448.21,4769.2
1453.22,4736.5
1458.23,4754.65
1463.23,4765.65
1468.23,4749.8
1473.23,4747.2
1478.23,4725.6
1483.22,4792.8
1488.21,4803.25
1493.2,4722.0
1498.18,4714.15
1503.16,4698.1
1508.14,4730.9
1513.11,4700.7
1518.08,4761.2
1523.05,4772.2
1528.01,4771.7
1532.97,4833.45
1537.93,4809.95
1542.89,4802.15
1547.84,4708.2
1552.79,4821.4
1557.73,4784.2
1562.68,4863.85
1567.62,4825.65
1572.56,4797.85
1577.49,4813.4
1582.42,4822.4
1587.35,4869.45
1592.27,4860.0
1597.19,4830.85
1602.11,4851.1
1607.03,4989.0
1611.94,5114.9
1616.85,5093.0
1621.76,4928.0
1626.66,4859.95
1631.56,4833.3
1636.46,4850.3
1641.36,4842.25
1646.25,4823.65
1651.14,4826.05
1656.02,4856.8
1660.9,4829.25
1665.78,4904.65
1670.66,4811.4
1675.54,4886.2
1680.41,4826.0
1685.27,4773.5
1690.14,4901.05
1695.0,4867.75
1699.86,4753.7
1704.71,4837.1
1709.57,4808.7
1714.42,4895.6
1719.26,4981.65
1724.11,5012.55
1728.95,4927.65
1733.79,4930.9
1738.62,4946.95
1743.46,4897.35
1748.28,4837.4
1753.11,4814.6
1757.93,4917.6
1762.75,4877.95
1767.57,4799.4
1772.39,4818.0
1777.2,4871.8
1782.01,4863.3
1786.81,4858.5
1791.62,4845.85
1796.41,4891.45
1801.21,4833.15
1806.01,4854.1
1810.8,4814.6
1815.59,4842.25
1820.37,4851.25
1825.15,4756.0
1829.93,4729.6
1834.71,4826.2
1839.48,4850.05
1844.25,4741.85
1849.02,4820.9
1853.79,4798.6
1858.55,4829.3
1863.31,4792.65
1868.06,4815.3
1872.82,4819.95
1877.57,4796.45
1882.31,4870.5
1887.06,4797.15
1891.8,4827.2
1896.54,4849.8
1901.28,4894.85
1906.01,4870.0
1910.74,4827.9
1915.47,4844.05
1920.19,4796.35
1924.91,4869.25
1929.63,4848.4
1934.35,4814.6
1939.06,4757.35
1943.77,4842.45
1948.48,4858.55
1953.19,4788.8
1957.89,4766.05
1962.59,4814.45
1967.28,4884.25
1971.98,4864.85
1976.67,4806.4
1981.35,4749.9
1986.04,4885.15
1990.72,4884.05
1995.4,4851.8
2000.08,4853.45
2004.75,4848.7
2009.42,4884.15
2014.09,4891.6
2018.75,4884.3
2023.42,4904.45
2028.08,4875.5
2032.73,4904.45
2037.39,4895.1
2042.04,4841.8
2046.69,4880.1
2051.33,4810.4
2055.97,4911.9
2060.61,4864.7
2065.25,4889.3
2069.88,4943.6
2074.52,4836.6
2079.15,4901.65
2083.77,4871.5
2088.39,4905.25
2093.01,4912.0
2097.63,4866.25
2102.25,4903.05
2106.86,4831.85
2111.47,4935.25
2116.08,4909.9
2120.68,4974.05
2125.28,4956.05
2129.88,4859.7
2134.47,4955.75
2139.07,4948.8
2143.66,4901.2
2148.24,4966.55
2152.83,4895.6
2157.41,4995.4
2161.99,4971.45
2166.57,4923.9
2171.14,4877.3
2175.71,4962.85
2180.28,4997.55
2184.84,4951.85
2189.41,4968.45
2193.97,4967.85
2198.52,4934.95
2203.08,5011.65
2207.63,5060.45
2212.18,4926.85
2216.73,5028.05
2221.27,5096.7
2225.81,4989.3
2230.35,4953.8
2234.89,5065.55
2239.42,5000.75
2243.95,5013.45
2248.48,5038.85
2253.0,4993.3
2257.52,5024.25
2262.04,5085.05
2266.56,4942.5
2271.07,5059.2
2275.58,5092.55
2280.09,5015.75
2284.6,5032.75
2289.1,5082.6
2293.6,5046.95
2298.1,5076.35
2302.6,5047.35
2307.09,5090.85
2311.58,5105.9
2316.07,5072.35
2320.55,5046.3
2325.03,5113.05
2329.51,5084.2
2333.99,5080.15
2338.46,5074.4
2342.93,5088.1
2347.4,5122.05
2351.87,5115.2
2356.33,5096.2
2360.79,5241.8
2365.25,5141.6
2369.71,5116.3
2374.16,5146.55
2378.61,5131.75
2383.06,5108.15
2387.5,5181.7
2391.94,5169.4
2396.38,5096.0
2400.82,5211.2
2405.26,5240.7
2409.69,5223.05
2414.12,5267.3
2418.54,5172.15
2422.97,5129.95
2427.39,5223.45
2431.81,5258.85
2436.22,5223.25
2440.64,5161.85
2445.05,5260.8
2449.46,5191.45
2453.86,5222.45
2458.27,5237.8
2462.67,5259.8
2467.06,5193.65
2471.46,5264.0
2475.85,5231.05
2480.24,5165.15
2484.63,5186.8
2489.02,5297.0
2493.4,5238.3
2497.78,5270.95
2502.16,5265.15
2506.53,5223.15
2510.9,5321.0
2515.27,5270.45
2519.64,5276.2
2524.0,5292.75
2528.37,5289.5
2532.73,5310.35
2537.08,5301.95
2541.44,5313.35
2545.79,5261.8
2550.14,5344.6
2554.48,5356.85
2558.83,5362.15
2563.17,5313.55
2567.51,5384.95
2571.85,5254.05
2576.18,5239.2
2580.51,5309.95
2584.84,5351.65
2589.17,5258.85
2593.49,5340.2
2597.81,5374.85
2602.13,5336.95
2606.45,5333.05
2610.76,5332.95
2615.07,5322.55
2619.38,5364.85
2623.69,5422.6
2627.99,5369.15
2632.29,5417.3
2636.59,5431.25
2640.89,5325.35
2645.18,5381.05
2649.47,5459.1
2653.76,5387.8
2658.05,5443.05
2662.33,5381.4
2666.61,5393.75
2670.89,5449.35
2675.17,5354.85
2679.44,5428.45
2683.71,5348.5
2687.98,5478.8
2692.25,5511.35
2696.51,5437.25
2700.77,5378.55
2705.03,5399.75
2709.29,5392.0
2713.54,5523.0
2717.79,5428.55
2722.04,5420.35
2726.29,5403.8
2730.53,5461.65
2734.77,5455.8
2739.01,5464.85
2743.25,5418.6
2747.48,5470.95
2751.71,5447.05
2755.94,5506.6
2760.17,5452.85
2764.39,5464.65
2768.61,5446.8
2772.83,5381.75
2777.05,5444.05
2781.27,5367.85
2785.48,5424.2
2789.69,5449.95
2793.89,5456.0
2798.1,5493.45
2802.3,5420.0
2806.5,5443.0
2810.7,5430.0
2814.89,5493.2
2819.09,5395.2
2823.28,5498.3
2827.46,5374.1
2831.65,5473.85
2835.83,5454.8
2840.01,5443.0
2844.19,5438.25
2848.37,5432.35
2852.54,5534.75
2856.71,5453.1
2860.88,5421.6
2865.05,5567.45
2869.21,5427.8
2873.37,5496.45
2877.53,5488.05
2881.69,5389.45
2885.84,5458.45
2889.99,5448.9
2894.14,5455.4
2898.29,5620.05
2902.43,5594.6
2906.58,5520.2
2910.72,5431.8
2914.85,5443.3
2918.99,5479.1
2923.12,5407.75
2927.25,5453.85
2931.38,5463.4
2935.5,5527.35
2939.63,5414.05
2943.75,5360.75
2947.87,5468.35
2951.98,5430.05
2956.1,5453.75
2960.21,5448.15
2964.32,5444.65
2968.42,5453.75
2972.53,5474.8
2976.63,5467.05
2980.73,5508.05
2984.83,5492.05
2988.92,5342.55
2993.01,5311.35
2997.1,5501.0
3001.19,5400.05
3005.28,5517.4
3009.36,5490.8
3013.44,5302.65
3017.52,5321.75
3021.6,5397.15
3025.67,5341.4
3029.74,5409.35
3033.81,5371.65
3037.88,5357.7
3041.94,5424.3
3046.01,5355.05
3050.07,5381.95
3054.12,5345.25
3058.18,5225.55
3062.23,5349.2
3066.28,5318.25
3070.33,5315.4
3074.38,5318.55
3078.42,5363.25
3082.46,5345.7
3086.5,5408.1
3090.54,5378.65
3094.57,5337.75
3098.6,5335.15
3102.63,5238.0
3106.66,5286.6
3110.69,5220.45
3114.71,5227.25
3118.73,5253.7
3122.75,5260.35
3126.77,5186.95
3130.78,5288.4
3134.79,5170.75
3138.8,5322.3
3142.81,5205.0
3146.81,5200.6
3150.82,5185.0
3154.82,5252.45
3158.81,5220.8
3162.81,5166.15
3166.8,5179.8
3170.79,5128.4
3174.78,5207.25
3178.77,5160.3
3182.75,5181.25
3186.74,5117.7
3190.72,5056.55
3194.69,5093.75
3198.67,5094.4
3202.64,5119.45
3206.61,5109.6
3210.58,5072.3
3214.55,5056.2
3218.51,5085.85
3222.47,5128.3
3226.43,5081.0
3230.39,5196.1
3234.35,5058.0
3238.3,5063.2
3242.25,5053.25
3246.2,4991.05
3250.15,5077.6
3254.09,5016.9
3258.03,5096.05
3261.97,4999.75
3265.91,4949.35
3269.84,4987.5
3273.78,5028.25
3277.71,4969.65
3281.64,4987.95
3285.56,5076.75
3289.49,4887.65
3293.41,4887.0
3297.33,5012.6
3301.25,4944.5
3305.16,4910.55
3309.07,4826.05
3312.99,4995.85
3316.89,4870.05
3320.8,4855.55
3324.7,4868.05
3328.61,4864.5
3332.51,4834.6
3336.4,4807.65
3340.3,4774.9
3344.19,4843.5
3348.08,4858.05
3351.97,4784.25
3355.86,4815.4
3359.74,4825.45
3363.63,4898.2
3367.51,4722.9
3371.39,4710.55
3375.26,4806.9
3379.13,4822.45
3383.01,4717.3
3386.88,4669.6
3390.74,4698.8
3394.61,4710.55
3398.47,4743.65
3402.33,4714.1
3406.19,4675.25
3410.05,4621.75
3413.9,4660.15
3417.75,4665.25
3421.6,4716.1
3425.45,4717.85
3429.3,4561.3
3433.14,4596.5
3436.98,4704.05
3440.82,4603.0
3444.66,4610.0
3448.49,4552.95
3452.32,4566.9
3456.15,4594.95
3459.98,4584.3
3463.81,4560.65
3467.63,4534.65
3471.46,4501.75
3475.28,4534.8
3479.09,4503.15
3482.91,4560.85
3486.72,4426.55
3490.53,4502.15
3494.34,4418.2
3498.15,4477.3
3501.96,4442.25
3505.76,4371.8
3509.56,4409.7
3513.36,4383.1
3517.15,4361.8
3520.95,4280.5
3524.74,4449.0
3528.53,4427.65
3532.32,4427.8
3536.11,4428.95
3539.89,4387.35
3543.67,4321.35
3547.45,4275.45
3551.23,4211.35
3555.0,4402.75
3558.78,4294.05
3562.55,4359.3
3566.32,4229.05
3570.09,4244.65
3573.85,4223.45
3577.61,4229.65
3581.37,4321.85
3585.13,4204.55
3588.89,4219.95
3592.64,4171.65
3596.4,4151.5
3600.15,4204.15
3603.9,4250.05
3607.64,4190.7
3611.39,4199.4
3615.13,4130.8
3618.87,4026.6
3622.61,4086.75
3626.34,4086.5
3630.08,4017.2
3633.81,4062.1
3637.54,4053.5
3641.27,4014.8
3644.99,3991.3
3648.72,4101.25
3652.44,4043.9
3656.16,4027.25
3659.87,4049.45
3663.59,4030.5
3665.45,3987.6