File: spectra/VLFR_08-PLA_bio_Raman_7b8cc3c5.csv
nm,Intensity
526.495,828.3
526.632,830.2
526.768,830.0
526.905,829.6
527.042,828.3
527.179,830.1
527.315,829.3
527.452,829.2
527.589,828.3
527.725,829.0
527.862,828.8
527.999,829.2
528.136,830.1
528.272,830.5
528.409,829.8
528.546,828.6
528.682,827.1
528.819,829.2
528.955,827.8
529.092,828.4
529.229,828.4
529.365,829.0
529.502,828.7
529.639,828.7
529.775,828.6
529.912,830.0
530.048,828.5
530.185,828.9
530.321,830.4
530.458,829.2
530.594,828.3
530.731,830.4
530.867,829.5
531.004,828.3
531.14,827.6
531.277,828.5
531.413,828.7
531.55,827.9
531.686,829.6
531.823,828.0
531.959,832.6
532.096,854.6
532.232,861.4
532.369,836.6
532.505,830.4
532.641,828.7
532.778,827.5
532.914,829.0
533.051,829.5
533.187,829.3
533.323,830.9
533.46,828.9
533.596,830.1
533.732,844.5
533.869,911.9
534.005,1015.7
534.141,1060.0
534.278,1045.5
534.414,1029.8
534.55,1019.5
534.687,1010.2
534.823,1000.5
534.959,992.2
535.095,979.6
535.232,970.5
535.368,966.6
535.504,962.3
535.64,953.1
535.777,950.1
535.913,943.9
536.049,939.2
536.185,939.2
536.321,938.7
536.457,943.3
536.594,950.8
536.73,943.7
536.866,947.8
537.002,936.8
537.138,935.3
537.274,936.0
537.41,932.8
537.547,934.3
537.683,935.6
537.819,933.6
537.955,933.1
538.091,933.0
538.227,927.0
538.363,928.0
538.499,923.1
538.635,919.3
538.771,923.6
538.907,918.1
539.043,916.2
539.179,917.2
539.315,919.2
539.451,915.4
539.587,913.8
539.723,915.9
539.859,906.4
539.995,907.6
540.131,911.1
540.267,914.4
540.403,923.3
540.539,928.3
540.675,929.4
540.811,928.8
540.947,929.9
541.083,928.5
541.219,929.8
541.354,931.9
541.49,927.5
541.626,923.5
541.762,922.4
541.898,917.5
542.034,916.7
542.17,916.9
542.305,914.7
542.441,916.1
542.577,913.6
542.713,919.2
542.849,919.0
542.984,921.9
543.12,925.8
543.256,931.1
543.392,942.7
543.528,949.7
543.663,949.6
543.799,950.5
543.935,951.8
544.071,950.9
544.206,942.9
544.342,938.7
544.478,930.2
544.613,922.4
544.749,921.0
544.885,920.7
545.02,916.9
545.156,920.8
545.292,918.2
545.427,914.8
545.563,916.0
545.699,917.1
545.834,914.1
545.97,912.8
546.106,913.1
546.241,911.8
546.377,915.4
546.512,915.7
546.648,913.6
546.784,916.3
546.919,915.8
547.055,920.5
547.19,919.9
547.326,919.5
547.461,918.7
547.597,915.6
547.732,917.7
547.868,918.9
548.003,914.6
548.139,915.9
548.274,912.9
548.41,917.3
548.545,920.4
548.681,916.9
548.816,919.7
548.952,919.5
549.087,917.7
549.223,923.0
549.358,921.6
549.494,918.6
549.629,923.8
549.764,921.7
549.9,918.7
550.035,919.9
550.171,921.3
550.306,921.1
550.441,920.8
550.577,922.2
550.712,922.9
550.847,923.5
550.983,923.1
551.118,930.0
551.253,929.8
551.389,929.6
551.524,927.4
551.659,931.1
551.795,930.6
551.93,929.4
552.065,932.7
552.201,932.4
552.336,932.1
552.471,930.4
552.606,932.3
552.742,931.9
552.877,934.2
553.012,933.8
553.147,931.5
553.283,930.6
553.418,926.3
553.553,928.4
553.688,924.3
553.823,937.7
553.959,944.3
554.094,940.2
554.229,943.3
554.364,937.0
554.499,934.8
554.634,929.4
554.769,933.3
554.905,929.5
555.04,927.3
555.175,924.6
555.31,924.3
555.445,927.3
555.58,925.4
555.715,926.2
555.85,921.1
555.985,926.7
556.121,921.8
556.256,919.8
556.391,922.7
556.526,924.9
556.661,927.9
556.796,926.1
556.931,927.9
557.066,930.8
557.201,932.9
557.336,942.1
557.471,945.7
557.606,952.1
557.741,978.8
557.876,1017.6
558.011,1061.0
558.146,1085.0
558.281,1052.2
558.416,996.7
558.551,963.0
558.685,950.8
558.82,947.0
558.955,939.6
559.09,944.9
559.225,939.9
559.36,942.3
559.495,939.1
559.63,942.5
559.765,938.7
559.9,937.0
560.034,935.1
560.169,932.1
560.304,938.1
560.439,936.8
560.574,932.8
560.709,931.9
560.843,930.8
560.978,931.0
561.113,931.9
561.248,930.3
561.383,930.6
561.517,930.1
561.652,927.0
561.787,929.4
561.922,928.3
562.057,926.9
562.191,932.2
562.326,927.9
562.461,933.5
562.596,936.6
562.73,940.3
562.865,943.2
563.0,948.5
563.134,955.1
563.269,971.0
563.404,976.1
563.539,975.2
563.673,973.8
563.808,963.1
563.943,956.7
564.077,948.0
564.212,941.6
564.346,942.6
564.481,950.5
564.616,945.3
564.75,951.9
564.885,962.6
565.02,974.4
565.154,968.8
565.289,969.0
565.423,965.0
565.558,962.7
565.693,963.0
565.827,966.3
565.962,980.7
566.096,995.5
566.231,999.4
566.365,986.2
566.5,972.6
566.634,960.2
566.769,950.9
566.903,944.8
567.038,945.4
567.172,940.5
567.307,937.9
567.441,938.7
567.576,942.6
567.71,944.7
567.845,951.8
567.979,951.0
568.114,950.9
568.248,944.7
568.383,946.8
568.517,946.0
568.652,947.3
568.786,946.1
568.92,950.7
569.055,944.6
569.189,948.7
569.324,950.2
569.458,951.2
569.592,948.9
569.727,944.2
569.861,944.1
569.996,942.9
570.13,943.3
570.264,946.3
570.399,945.6
570.533,948.5
570.667,952.7
570.802,947.1
570.936,947.7
571.07,949.8
571.205,951.9
571.339,955.8
571.473,962.3
571.607,977.7
571.742,974.9
571.876,973.0
572.01,966.9
572.144,963.4
572.279,962.8
572.413,962.8
572.547,958.8
572.681,959.5
572.816,965.4
572.95,964.1
573.084,966.6
573.218,965.2
573.353,965.0
573.487,971.0
573.621,966.2
573.755,970.0
573.889,963.8
574.023,966.0
574.158,965.8
574.292,961.5
574.426,970.2
574.56,975.2
574.694,972.6
574.828,964.5
574.963,952.3
575.097,956.4
575.231,947.9
575.365,951.0
575.499,953.6
575.633,956.7
575.767,952.8
575.901,955.2
576.035,954.9
576.169,959.8
576.303,968.3
576.438,988.6
576.572,1006.0
576.706,1028.1
576.84,1034.2
576.974,1028.1
577.108,1018.2
577.242,993.6
577.376,976.3
577.51,964.1
577.644,959.7
577.778,955.4
577.912,958.2
578.046,957.1
578.18,953.1
578.314,950.2
578.448,951.6
578.582,955.3
578.716,953.5
578.85,953.0
578.984,954.4
579.117,956.1
579.251,949.6
579.385,950.7
579.519,954.2
579.653,952.0
579.787,950.6
579.921,951.8
580.055,952.8
580.189,951.1
580.323,951.2
580.456,952.2
580.59,954.8
580.724,950.9
580.858,954.9
580.992,947.2
581.126,950.9
581.26,954.7
581.393,955.2
581.527,954.3
581.661,949.9
581.795,955.1
581.929,953.3
582.063,954.8
582.196,955.8
582.33,957.6
582.464,958.6
582.598,957.1
582.731,953.9
582.865,957.2
582.999,951.6
583.133,954.4
583.267,956.7
583.4,957.7
583.534,956.2
583.668,959.3
583.801,956.3
583.935,956.0
584.069,959.2
584.203,956.6
584.336,963.0
584.47,957.5
584.604,957.7
584.737,954.8
584.871,959.1
585.005,956.7
585.138,962.5
585.272,957.1
585.406,957.2
585.539,960.8
585.673,960.4
585.807,961.1
585.94,962.3
586.074,963.7
586.208,964.2
586.341,966.3
586.475,970.7
586.608,982.3
586.742,997.7
586.876,1006.2
587.009,1017.0
587.143,1015.3
587.276,1016.7
587.41,1026.7
587.543,1035.7
587.677,1034.4
587.811,1017.5
587.944,999.0
588.078,984.2
588.211,970.3
588.345,967.3
588.478,963.2
588.612,960.4
588.745,961.6
588.879,959.1
589.012,957.0
589.146,956.3
589.279,958.8
589.413,961.1
589.546,955.1
589.68,955.2
589.813,957.8
589.947,958.6
590.08,955.7
590.214,958.4
590.347,958.3
590.48,954.1
590.614,960.4
590.747,953.6
590.881,960.9
591.014,953.8
591.148,955.0
591.281,958.1
591.414,960.7
591.548,959.6
591.681,959.4
591.815,955.4
591.948,963.6
592.081,957.9
592.215,956.0
592.348,956.9
592.481,956.0
592.615,956.1
592.748,956.5
592.881,958.1
593.015,954.7
593.148,953.4
593.281,955.6
593.415,957.7
593.548,957.2
593.681,954.4
593.815,957.3
593.948,954.7
594.081,956.7
594.215,958.8
594.348,955.2
594.481,955.9
594.614,955.6
594.748,955.3
594.881,961.1
595.014,959.3
595.147,956.8
595.281,962.0
595.414,956.6
595.547,956.4
595.68,955.6
595.814,950.9
595.947,959.8
596.08,957.3
596.213,957.4
596.347,955.1
596.48,955.7
596.613,960.2
596.746,954.4
596.879,956.3
597.012,948.6
597.146,959.8
597.279,958.4
597.412,960.5
597.545,959.8
597.678,953.3
597.811,959.2
597.945,959.0
598.078,958.2
598.211,964.4
598.344,961.4
598.477,956.5
598.61,957.1
598.743,962.8
598.876,958.9
599.009,958.3
599.143,951.4
599.276,954.7
599.409,958.5
599.542,960.4
599.675,958.8
599.808,958.3
599.941,957.4
600.074,957.8
600.207,956.8
600.34,957.3
600.473,954.2
600.606,957.9
600.739,954.0
600.872,957.7
601.005,955.7
601.138,956.1
601.271,956.3
601.404,953.6
601.537,954.3
601.67,961.4
601.803,954.2
601.936,955.9
602.069,954.7
602.202,953.8
602.335,955.0
602.468,955.7
602.601,957.6
602.734,955.7
602.867,954.6
603.0,954.9
603.133,957.2
603.266,956.3
603.399,960.2
603.532,957.2
603.665,961.4
603.798,958.0
603.931,956.8
604.064,955.1
604.196,955.3
604.329,957.8
604.462,954.7
604.595,957.4
604.728,952.6
604.861,952.6
604.994,950.7
605.127,953.4
605.259,953.6
605.392,953.0
605.525,950.5
605.658,952.0
605.791,950.3
605.924,949.1
606.057,952.0
606.189,954.3
606.322,948.2
606.455,950.7
606.588,953.1
606.721,951.9
606.853,951.0
606.986,946.1
607.119,949.5
607.252,948.5
607.385,949.7
607.517,953.3
607.65,952.3
607.783,949.1
607.916,955.8
608.049,953.2
608.181,950.6
608.314,950.1
608.447,954.2
608.58,954.0
608.712,952.0
608.845,949.1
608.978,954.4
609.111,954.4
609.243,949.9
609.376,955.7
609.509,953.5
609.641,949.9
609.774,955.0
609.907,949.1
610.039,954.9
610.172,956.2
610.305,950.7
610.438,954.0
610.57,954.8
610.703,952.6
610.836,953.0
610.968,951.1
611.101,948.8
611.234,949.3
611.366,948.5
611.499,948.5
611.631,951.5
611.764,953.0
611.897,951.0
612.029,954.3
612.162,955.3
612.295,951.8
612.427,950.8
612.56,953.7
612.692,950.4
612.825,951.0
612.958,955.1
613.09,956.1
613.223,955.1
613.355,954.9
613.488,955.1
613.621,958.9
613.753,954.1
613.886,959.6
614.018,956.5
614.151,953.9
614.283,953.1
614.416,959.0
614.548,955.8
614.681,951.5
614.814,957.1
614.946,952.2
615.079,952.1
615.211,953.4
615.344,954.2
615.476,952.4
615.609,956.9
615.741,956.1
615.874,955.7
616.006,954.8
616.139,954.9
616.271,951.4
616.404,954.7
616.536,953.4
616.669,955.3
616.801,952.2
616.933,954.3
617.066,954.7
617.198,955.9
617.331,953.5
617.463,951.9
617.596,953.4
617.728,954.9
617.861,955.5
617.993,955.5
618.125,952.1
618.258,952.6
618.39,951.5
618.523,952.4
618.655,952.0
618.788,951.8
618.92,957.7
619.052,956.4
619.185,950.7
619.317,950.2
619.45,953.9
619.582,950.5
619.714,948.6
619.847,955.5
619.979,956.2
620.111,955.9
620.244,951.8
620.376,950.5
620.509,952.2
620.641,954.3
620.773,949.0
620.906,951.9
621.038,950.4
621.17,949.2
621.303,955.0
621.435,948.5
621.567,952.3
621.7,951.7
621.832,949.9
621.964,953.2
622.096,951.8
622.229,953.4
622.361,954.9
622.493,957.3
622.626,962.2
622.758,966.2
622.89,968.7
623.022,969.1
623.155,966.7
623.287,970.7
623.419,964.2
623.552,965.0
623.684,963.8
623.816,960.4
623.948,961.7
624.081,958.2
624.213,957.3
624.345,954.1
624.477,951.8
624.61,956.5
624.742,954.5
624.874,956.0
625.006,953.7
625.138,952.9
625.271,951.6
625.403,949.7
625.535,953.0
625.667,947.1
625.799,956.0
625.932,948.8
626.064,950.1
626.196,952.5
626.328,948.5
626.46,951.6
626.593,953.3
626.725,952.0
626.857,950.5
626.989,953.7
627.121,949.3
627.253,956.6
627.386,952.3
627.518,956.6
627.65,956.5
627.782,959.6
627.914,960.3
628.046,974.4
628.178,988.0
628.311,1011.8
628.443,1031.7
628.575,1044.2
628.707,1041.7
628.839,1026.6
628.971,1025.2
629.103,1018.4
629.235,1019.6
629.367,1019.1
629.5,1022.4
629.632,1020.8
629.764,1026.8
629.896,1023.6
630.028,1028.2
630.16,1029.5
630.292,1037.6
630.424,1059.2
630.556,1086.7
630.688,1144.8
630.82,1256.1
630.952,1402.5
631.084,1505.9
631.216,1514.5
631.349,1440.8
631.481,1328.2
631.613,1243.2
631.745,1174.0
631.877,1142.3
632.009,1106.8
632.141,1099.2
632.273,1079.1
632.405,1070.3
632.537,1071.4
632.669,1070.6
632.801,1092.1
632.933,1115.6
633.065,1149.5
633.197,1169.7
633.329,1182.0
633.461,1169.3
633.593,1154.2
633.725,1126.9
633.857,1106.2
633.989,1076.2
634.121,1051.2
634.253,1027.7
634.385,1006.1
634.517,992.2
634.649,983.3
634.781,970.7
634.912,968.2
635.044,959.7
635.176,957.8
635.308,955.7
635.44,954.0
635.572,952.6
635.704,952.5
635.836,953.8
635.968,948.5
636.1,948.3
636.232,947.5
636.364,947.3
636.496,943.7
636.628,940.6
636.76,944.6
636.891,945.6
637.023,943.4
637.155,941.6
637.287,946.2
637.419,943.4
637.551,937.6
637.683,940.0
637.815,942.6
637.947,940.6
638.078,939.5
638.21,941.7
638.342,938.1
638.474,938.1
638.606,939.9
638.738,942.9
638.87,940.9
639.002,939.1
639.133,938.2
639.265,940.4
639.397,937.4
639.529,943.5
639.661,939.5
639.793,938.9
639.924,940.3
640.056,937.1
640.188,938.4
640.32,939.3
640.452,938.6
640.584,941.6
640.715,941.1
640.847,939.9
640.979,938.7
641.111,939.6
641.243,937.6
641.374,938.7
641.506,940.7
641.638,941.3
641.77,940.4
641.902,941.8
642.033,941.7
642.165,938.8
642.297,937.2
642.429,935.4
642.561,940.3
642.692,942.4
642.824,938.2
642.956,937.0
643.088,936.9
643.219,934.4
643.351,930.0
643.483,936.9
643.615,931.5
643.746,934.4
643.878,934.8
644.01,932.0
644.142,935.0
644.273,932.8
644.405,930.9
644.537,934.0
644.669,927.3
644.8,932.1
644.932,927.8
645.064,929.1
645.195,930.9
645.327,929.4
645.459,930.7
645.591,929.6
645.722,929.0
645.854,931.9
645.986,931.5
646.117,928.6
646.249,931.1
646.381,928.6
646.512,926.6
646.644,926.6
646.776,928.2
646.908,928.2
647.039,928.3
647.171,928.8
647.303,928.9
647.434,926.8
647.566,927.1
647.698,928.6
647.829,928.5
647.961,925.7
648.093,927.6
648.224,926.9
648.356,930.2
648.488,926.0
648.619,925.0
648.751,924.0
648.883,925.8
649.014,927.1
649.146,927.0
649.277,925.0
649.409,920.1
649.541,925.3
649.672,926.9
649.804,925.4
649.936,921.3
650.067,925.7
650.199,925.2
650.33,923.7
650.462,922.1
650.594,927.8
650.725,925.6
650.857,923.9
650.988,921.7
651.12,922.0
651.252,921.8
651.383,923.2
651.515,921.9
651.646,924.0
651.778,927.4
651.91,924.4
652.041,925.2
652.173,919.4
652.304,921.2
652.436,917.7
652.568,920.7
652.699,922.5
652.831,924.1
652.962,923.7
653.094,922.4
653.225,918.7
653.357,924.5
653.489,921.7
653.62,924.6
653.752,921.9
653.883,922.1
654.015,920.5
654.146,923.2
654.278,918.5
654.409,921.0
654.541,918.4
654.672,920.7
654.804,921.0
654.935,919.7
655.067,919.8
655.199,918.7
655.33,918.2
655.462,916.5
655.593,921.1
655.725,920.7
655.856,919.9
655.988,920.8
656.119,915.7
656.251,923.1
656.382,917.6
656.514,921.2
656.645,915.8
656.777,919.6
656.908,921.2
657.04,920.1
657.171,916.5
657.303,918.9
657.434,917.3
657.566,916.2
657.697,917.4
657.829,920.7
657.96,919.3
658.092,918.7
658.223,917.7
658.355,918.9
658.486,917.0
658.617,917.9
658.749,916.4
658.88,916.7
659.012,918.1
659.143,919.5
659.275,918.0
659.406,916.6
659.538,919.4
659.669,920.0
659.801,918.8
659.932,916.9
660.064,917.1
660.195,915.4
660.326,917.7
660.458,915.5
660.589,915.7
660.721,916.9
660.852,914.0
660.984,913.7
661.115,915.4
661.246,915.4
661.378,914.5
661.509,916.2
661.641,913.9
661.772,914.5
661.904,912.3
662.035,911.6
662.166,912.8
662.298,914.1
662.429,913.9
662.561,914.6
662.692,913.9
662.823,914.1
662.955,911.6
663.086,912.7