File: spectra/VLFR_01-LDPE_bio_Raman_78b9e601.csv
nm,Intensity
528.65,1838.2
528.819,1837.75
528.987,1837.3
529.155,1837.5
529.324,1838.4
529.492,1837.65
529.66,1838.45
529.829,1837.1
529.997,1838.3
530.165,1838.2
530.334,1837.25
530.502,1837.7
530.67,1838.75
530.839,1838.5
531.007,1837.9
531.175,1839.45
531.344,1839.5
531.512,1840.55
531.68,1847.9
531.848,2038.85
532.017,2995.8
532.185,2532.45
532.353,1870.45
532.521,1839.15
532.69,1839.05
532.858,1838.6
533.026,1838.35
533.194,1838.8
533.363,1838.8
533.531,1847.95
533.699,1896.8
533.867,1967.0
534.036,1989.35
534.204,1988.1
534.372,1981.75
534.54,1982.75
534.708,1978.6
534.877,1968.9
535.045,1963.85
535.213,1955.2
535.381,1949.75
535.549,1942.85
535.717,1936.45
535.886,1929.35
536.054,1922.95
536.222,1926.3
536.39,1917.3
536.558,1920.0
536.726,1917.0
536.894,1916.1
537.062,1912.2
537.231,1914.65
537.399,1916.45
537.567,1918.3
537.735,1918.3
537.903,1913.65
538.071,1912.05
538.239,1917.0
538.407,1912.15
538.575,1909.7
538.743,1906.0
538.911,1901.65
539.079,1903.35
539.247,1899.35
539.415,1899.9
539.583,1897.4
539.751,1895.9
539.919,1896.7
540.087,1900.6
540.255,1900.15
540.423,1895.25
540.591,1896.55
540.759,1897.0
540.927,1896.5
541.095,1892.85
541.263,1895.15
541.431,1892.6
541.599,1893.6
541.767,1895.2
541.935,1895.3
542.103,1893.95
542.271,1892.4
542.439,1895.1
542.607,1897.15
542.775,1897.75
542.943,1891.2
543.111,1892.6
543.279,1889.9
543.446,1890.15
543.614,1890.25
543.782,1893.75
543.95,1897.2
544.118,1895.4
544.286,1897.7
544.454,1890.65
544.622,1886.8
544.789,1893.4
544.957,1890.55
545.125,1895.0
545.293,1887.35
545.461,1887.6
545.629,1890.5
545.796,1892.7
545.964,1892.35
546.132,1890.05
546.3,1890.85
546.468,1890.45
546.635,1887.35
546.803,1887.65
546.971,1889.6
547.139,1890.65
547.306,1893.75
547.474,1893.35
547.642,1889.55
547.81,1888.6
547.977,1887.0
548.145,1887.9
548.313,1891.25
548.481,1889.1
548.648,1891.65
548.816,1887.95
548.984,1892.05
549.151,1885.65
549.319,1888.2
549.487,1886.15
549.655,1889.9
549.822,1887.2
549.99,1885.7
550.158,1883.85
550.325,1885.75
550.493,1888.65
550.66,1891.7
550.828,1886.8
550.996,1886.4
551.163,1888.7
551.331,1889.15
551.499,1888.6
551.666,1894.35
551.834,1889.3
552.001,1892.05
552.169,1888.1
552.337,1893.15
552.504,1891.2
552.672,1889.6
552.839,1892.55
553.007,1892.6
553.174,1896.3
553.342,1896.8
553.509,1899.85
553.677,1900.5
553.844,1898.25
554.012,1899.25
554.179,1901.8
554.347,1898.3
554.514,1899.8
554.682,1901.3
554.849,1905.75
555.017,1901.1
555.184,1909.05
555.352,1901.9
555.519,1903.6
555.687,1907.25
555.854,1912.05
556.022,1909.85
556.189,1909.25
556.357,1914.15
556.524,1910.65
556.691,1917.1
556.859,1916.55
557.026,1922.5
557.194,1921.25
557.361,1921.25
557.528,1923.0
557.696,1929.7
557.863,1933.4
558.031,1935.45
558.198,1932.2
558.365,1937.15
558.533,1931.9
558.7,1937.35
558.867,1930.65
559.035,1928.4
559.202,1929.95
559.369,1926.45
559.537,1919.2
559.704,1922.4
559.871,1921.15
560.038,1917.85
560.206,1922.15
560.373,1923.95
560.54,1925.1
560.708,1922.45
560.875,1929.35
561.042,1927.6
561.209,1929.95
561.377,1919.9
561.544,1923.65
561.711,1928.5
561.878,1925.5
562.045,1937.0
562.213,1941.05
562.38,1939.35
562.547,1938.85
562.714,1942.7
562.881,1948.8
563.049,1946.2
563.216,1952.6
563.383,1961.4
563.55,1977.9
563.717,2029.55
563.884,2148.2
564.052,2192.55
564.219,2077.65
564.386,2019.75
564.553,2018.9
564.72,2011.9
564.887,1996.25
565.054,1988.55
565.221,1973.3
565.388,1973.55
565.556,1985.2
565.723,2007.2
565.89,2081.65
566.057,2187.0
566.224,2157.15
566.391,2059.0
566.558,1995.2
566.725,1973.85
566.892,1975.8
567.059,1972.15
567.226,1974.0
567.393,1983.3
567.56,1982.75
567.727,1966.95
567.894,1959.15
568.061,1952.9
568.228,1961.15
568.395,1954.8
568.562,1962.25
568.729,1955.95
568.896,1962.45
569.063,1963.3
569.23,1965.9
569.396,1970.9
569.563,1963.9
569.73,1967.55
569.897,1969.1
570.064,1983.6
570.231,1983.85
570.398,1993.6
570.565,1996.0
570.732,2003.9
570.898,2016.35
571.065,2033.75
571.232,2128.55
571.399,2330.3
571.566,2397.7
571.733,2219.2
571.9,2112.3
572.066,2089.1
572.233,2064.55
572.4,2043.6
572.567,2037.55
572.734,2031.8
572.9,2023.8
573.067,2034.15
573.234,2027.35
573.401,2035.3
573.567,2041.0
573.734,2058.85
573.901,2066.25
574.068,2071.85
574.234,2052.7
574.401,2058.9
574.568,2056.25
574.734,2061.5
574.901,2073.65
575.068,2088.15
575.235,2118.05
575.401,2202.85
575.568,2262.95
575.735,2258.45
575.901,2315.25
576.068,2426.55
576.235,2500.55
576.401,2481.05
576.568,2435.8
576.734,2434.5
576.901,2442.35
577.068,2393.9
577.234,2347.95
577.401,2302.4
577.567,2282.05
577.734,2272.3
577.901,2281.25
578.067,2290.85
578.234,2294.85
578.4,2293.35
578.567,2306.7
578.733,2331.05
578.9,2374.15
579.066,2406.05
579.233,2381.35
579.399,2404.3
579.566,2402.2
579.732,2431.0
579.899,2484.5
580.065,2471.7
580.232,2485.55
580.398,2485.35
580.565,2529.9
580.731,2534.5
580.898,2570.55
581.064,2602.85
581.231,2577.85
581.397,2585.3
581.563,2605.75
581.73,2629.5
581.896,2656.25
582.063,2646.15
582.229,2661.2
582.395,2677.3
582.562,2656.85
582.728,2703.9
582.895,2711.8
583.061,2707.4
583.227,2718.9
583.394,2690.75
583.56,2745.65
583.726,2731.6
583.893,2758.7
584.059,2763.55
584.225,2745.35
584.391,2752.25
584.558,2764.8
584.724,2755.75
584.89,2714.0
585.057,2772.6
585.223,2737.05
585.389,2724.85
585.555,2768.4
585.722,2730.05
585.888,2745.5
586.054,2721.6
586.22,2746.8
586.386,2719.95
586.553,2732.1
586.719,2703.2
586.885,2700.65
587.051,2711.65
587.217,2729.55
587.384,2696.4
587.55,2710.75
587.716,2717.4
587.882,2694.75
588.048,2727.0
588.214,2704.5
588.38,2696.7
588.546,2689.35
588.713,2706.6
588.879,2704.25
589.045,2659.3
589.211,2658.55
589.377,2722.3
589.543,2687.0
589.709,2695.5
589.875,2666.6
590.041,2653.8
590.207,2648.0
590.373,2681.35
590.539,2680.45
590.705,2658.1
590.871,2676.55
591.037,2693.05
591.203,2689.1
591.369,2718.1
591.535,2668.8
591.701,2698.25
591.867,2703.9
592.033,2659.75
592.199,2697.55
592.365,2693.35
592.531,2702.5
592.697,2709.5
592.863,2687.0
593.029,2702.6
593.195,2695.3
593.361,2697.65
593.526,2677.05
593.692,2719.35
593.858,2716.7
594.024,2685.85
594.19,2725.05
594.356,2712.15
594.522,2746.45
594.687,2744.0
594.853,2737.4
595.019,2738.35
595.185,2772.85
595.351,2755.4
595.516,2748.95
595.682,2792.3
595.848,2775.4
596.014,2814.1
596.18,2806.0
596.345,2822.55
596.511,2863.0
596.677,2847.3
596.843,2825.2
597.008,2886.6
597.174,2835.35
597.34,2879.9
597.505,2859.3
597.671,2905.6
597.837,2922.55
598.002,2939.15
598.168,2913.75
598.334,2923.25
598.499,2955.5
598.665,2920.75
598.831,2945.8
598.996,2972.0
599.162,2954.4
599.328,3001.15
599.493,3014.35
599.659,2997.9
599.824,2983.75
599.99,3042.45
600.156,3012.65
600.321,3047.5
600.487,3025.9
600.652,3015.85
600.818,3029.4
600.983,3034.95
601.149,3013.25
601.314,3043.65
601.48,3045.55
601.645,3032.5
601.811,3001.7
601.976,3024.35
602.142,3048.05
602.307,3004.95
602.473,3034.1
602.638,2969.7
602.804,2985.1
602.969,2980.45
603.135,2962.9
603.3,2966.0
603.466,2971.25
603.631,2956.05
603.796,2958.25
603.962,2911.9
604.127,2901.6
604.293,2910.85
604.458,2868.0
604.623,2870.55
604.789,2869.75
604.954,2860.4
605.119,2817.4
605.285,2838.95
605.45,2824.75
605.615,2799.8
605.781,2776.4
605.946,2777.2
606.111,2776.05
606.277,2737.15
606.442,2696.95
606.607,2726.9
606.772,2709.7
606.938,2663.25
607.103,2675.65
607.268,2664.15
607.433,2697.5
607.599,2649.45
607.764,2633.75
607.929,2611.85
608.094,2628.65
608.259,2613.0
608.425,2591.9
608.59,2594.25
608.755,2561.8
608.92,2575.8
609.085,2552.8
609.25,2558.55
609.415,2552.85
609.581,2524.2
609.746,2512.65
609.911,2547.7
610.076,2533.85
610.241,2514.45
610.406,2499.65
610.571,2492.5
610.736,2489.9
610.901,2501.5
611.066,2478.55
611.231,2476.1
611.396,2465.35
611.561,2470.25
611.727,2465.95
611.892,2444.55
612.057,2441.85
612.222,2440.0
612.386,2420.8
612.551,2424.6
612.716,2420.9
612.881,2424.8
613.046,2422.1
613.211,2404.0
613.376,2394.8
613.541,2405.15
613.706,2403.95
613.871,2386.5
614.036,2377.8
614.201,2402.75
614.366,2376.25
614.531,2372.9
614.695,2378.95
614.86,2377.0
615.025,2368.45
615.19,2370.35
615.355,2361.85
615.52,2356.25
615.684,2354.85
615.849,2359.55
616.014,2359.45
616.179,2335.45
616.344,2346.75
616.508,2348.7
616.673,2341.3
616.838,2348.05
617.003,2364.55
617.168,2349.6
617.332,2350.9
617.497,2363.2
617.662,2352.05
617.826,2340.9
617.991,2353.6
618.156,2361.3
618.32,2366.6
618.485,2336.4
618.65,2339.9
618.814,2349.95
618.979,2335.55
619.144,2332.85
619.308,2336.65
619.473,2370.1
619.638,2361.85
619.802,2345.9
619.967,2350.25
620.131,2366.05
620.296,2356.0
620.461,2365.15
620.625,2359.75
620.79,2360.55
620.954,2370.65
621.119,2393.25
621.283,2404.0
621.448,2427.15
621.612,2427.5
621.777,2481.55
621.941,2489.0
622.106,2519.5
622.27,2523.4
622.435,2509.75
622.599,2479.35
622.764,2450.15
622.928,2424.4
623.093,2416.05
623.257,2399.1
623.422,2381.2
623.586,2367.35
623.75,2369.35
623.915,2368.45
624.079,2395.2
624.244,2371.25
624.408,2390.4
624.572,2387.6
624.737,2376.85
624.901,2396.9
625.065,2411.25
625.23,2426.6
625.394,2419.45
625.558,2444.35
625.723,2448.5
625.887,2435.55
626.051,2492.65
626.215,2551.6
626.38,2674.2
626.544,2852.7
626.708,3325.85
626.872,3987.15
627.037,4771.15
627.201,5074.15
627.365,4869.65
627.529,4407.15
627.693,4078.75
627.858,3988.6
628.022,4057.05
628.186,4278.75
628.35,4826.45
628.514,5043.7
628.678,4641.05
628.843,4332.25
629.007,4118.05
629.171,3988.1
629.335,3998.7
629.499,3758.45
629.663,3625.2
629.827,3567.7
629.991,3494.65
630.155,3442.45
630.319,3469.8
630.483,3379.45
630.647,3290.85
630.812,3162.95
630.976,2948.3
631.14,2836.5
631.304,2750.8
631.468,2700.3
631.632,2679.0
631.796,2656.8
631.959,2651.55
632.123,2560.6
632.287,2571.15
632.451,2583.75
632.615,2572.6
632.779,2587.95
632.943,2560.05
633.107,2534.9
633.271,2555.15
633.435,2567.05
633.599,2566.35
633.763,2574.0
633.926,2508.85
634.09,2559.4
634.254,2563.75
634.418,2528.7
634.582,2533.1
634.746,2580.2
634.909,2514.8
635.073,2519.5
635.237,2524.05
635.401,2525.3
635.564,2497.45
635.728,2525.5
635.892,2505.1
636.056,2508.4
636.219,2502.4
636.383,2535.75
636.547,2498.75
636.711,2493.55
636.874,2475.1
637.038,2516.2
637.202,2505.55
637.365,2490.9
637.529,2475.85
637.693,2467.35
637.856,2468.1
638.02,2471.4
638.184,2477.7
638.347,2459.2
638.511,2458.2
638.674,2432.95
638.838,2446.7
639.002,2459.25
639.165,2441.7
639.329,2457.7
639.492,2416.2
639.656,2398.55
639.819,2430.65
639.983,2416.15
640.146,2441.8
640.31,2422.9
640.473,2408.4
640.637,2394.7
640.8,2407.2
640.964,2387.65
641.127,2399.3
641.291,2413.9
641.454,2403.7
641.618,2377.95
641.781,2389.05
641.944,2374.25
642.108,2373.5
642.271,2385.3
642.435,2380.8
642.598,2383.0
642.761,2370.75
642.925,2371.55
643.088,2367.6
643.251,2385.65
643.415,2366.3
643.578,2355.4
643.741,2362.6
643.905,2378.9
644.068,2359.4
644.231,2363.8
644.394,2391.5
644.558,2362.25
644.721,2362.45
644.884,2339.75
645.047,2333.55
645.211,2351.9
645.374,2349.0
645.537,2356.8
645.7,2345.9
645.863,2351.8
646.027,2326.55
646.19,2337.35
646.353,2344.2
646.516,2319.65
646.679,2336.35
646.842,2332.3
647.005,2330.95
647.169,2332.15
647.332,2325.95
647.495,2344.1
647.658,2336.1
647.821,2327.3
647.984,2334.8
648.147,2319.85
648.31,2323.2
648.473,2314.1
648.636,2332.8
648.799,2323.95
648.962,2332.8
649.125,2306.5
649.288,2315.85
649.451,2345.5
649.614,2319.75
649.777,2338.55
649.94,2312.65
650.103,2312.55
650.266,2318.9
650.429,2299.3
650.592,2287.35
650.755,2336.55
650.918,2317.55
651.08,2302.0
651.243,2297.15
651.406,2302.4
651.569,2308.1
651.732,2297.9
651.895,2299.4
652.058,2339.0
652.22,2314.95
652.383,2310.3
652.546,2298.8
652.709,2320.6
652.872,2312.95
653.034,2281.8
653.197,2306.45
653.36,2301.7
653.523,2302.05
653.685,2293.3
653.848,2296.1
654.011,2289.8
654.173,2281.75
654.336,2277.95
654.499,2265.85
654.662,2264.15
654.824,2293.15
654.987,2306.05
655.149,2267.45
655.312,2279.6
655.475,2299.3
655.637,2270.95
655.8,2278.65
655.963,2276.8
656.125,2264.05
656.288,2249.9
656.45,2251.65
656.613,2257.4
656.775,2267.1
656.938,2254.9
657.1,2242.25
657.263,2256.25
657.425,2239.65
657.588,2233.1
657.75,2227.25
657.913,2237.6
658.075,2215.8
658.238,2208.05
658.4,2215.45
658.563,2220.85
658.725,2194.5
658.888,2197.45
659.05,2184.3
659.212,2202.95
659.375,2176.65
659.537,2173.0
659.7,2180.15
659.862,2186.65
660.024,2154.9
660.187,2175.5
660.349,2161.75
660.511,2177.75
660.674,2161.2
660.836,2148.1
660.998,2153.1
661.079,2140.2