File: spectra/VLFR_06-PET_nobio_Raman_c2fa14d1.csv
nm,Intensity
526.486,831.2
526.622,830.6
526.759,829.9
526.896,829.9
527.033,830.4
527.169,830.2
527.306,831.0
527.443,831.1
527.579,831.2
527.716,829.9
527.853,829.0
527.989,829.3
528.126,829.2
528.263,829.9
528.399,830.6
528.536,830.3
528.672,830.9
528.809,831.1
528.946,828.9
529.082,830.5
529.219,830.7
529.355,828.8
529.492,830.8
529.628,830.1
529.765,828.8
529.901,829.8
530.038,830.0
530.174,830.8
530.311,830.5
530.447,829.3
530.584,830.9
530.72,831.0
530.857,829.6
530.993,830.5
531.13,830.2
531.266,830.6
531.403,831.5
531.539,830.6
531.676,831.1
531.812,829.5
531.948,833.2
532.085,880.1
532.221,919.4
532.358,857.1
532.494,832.3
532.63,830.3
532.767,830.3
532.903,831.6
533.039,830.6
533.176,831.5
533.312,830.8
533.448,831.5
533.585,839.3
533.721,909.7
533.857,1292.3
533.993,1995.4
534.13,2365.6
534.266,2323.7
534.402,2190.0
534.539,2055.2
534.675,1974.0
534.811,1863.2
534.947,1739.5
535.083,1633.4
535.22,1550.2
535.356,1464.3
535.492,1404.6
535.628,1350.4
535.764,1292.8
535.901,1249.2
536.037,1198.0
536.173,1162.4
536.309,1130.7
536.445,1115.3
536.581,1097.8
536.717,1084.1
536.854,1071.1
536.99,1061.3
537.126,1062.2
537.262,1053.3
537.398,1044.4
537.534,1042.5
537.67,1040.6
537.806,1033.7
537.942,1036.1
538.078,1038.0
538.214,1040.8
538.35,1042.2
538.486,1046.4
538.622,1043.1
538.758,1043.3
538.894,1036.1
539.03,1044.0
539.166,1037.8
539.302,1047.4
539.438,1049.8
539.574,1055.9
539.71,1073.3
539.846,1072.2
539.982,1079.0
540.118,1070.1
540.254,1059.1
540.39,1048.0
540.526,1034.4
540.662,1019.0
540.798,1015.4
540.933,1011.9
541.069,1014.9
541.205,1010.1
541.341,1008.7
541.477,1006.2
541.613,1003.0
541.749,1011.8
541.884,1008.6
542.02,1002.0
542.156,1001.3
542.292,1003.1
542.428,1003.1
542.563,1003.8
542.699,1007.5
542.835,1003.4
542.971,1009.2
543.106,1008.5
543.242,1009.2
543.378,1009.2
543.514,1005.9
543.649,1015.8
543.785,1015.5
543.921,1016.6
544.057,1022.2
544.192,1022.8
544.328,1016.1
544.464,1017.4
544.599,1013.2
544.735,1018.6
544.871,1020.9
545.006,1017.3
545.142,1024.6
545.278,1023.3
545.413,1020.9
545.549,1026.9
545.684,1018.5
545.82,1027.1
545.956,1024.2
546.091,1025.0
546.227,1021.8
546.362,1024.2
546.498,1023.5
546.634,1027.6
546.769,1027.1
546.905,1029.0
547.04,1035.7
547.176,1030.0
547.311,1032.2
547.447,1031.5
547.582,1033.4
547.718,1032.7
547.853,1035.8
547.989,1040.7
548.124,1037.5
548.26,1041.6
548.395,1042.9
548.531,1039.9
548.666,1040.4
548.802,1042.0
548.937,1038.7
549.072,1047.3
549.208,1046.7
549.343,1042.7
549.479,1043.2
549.614,1045.3
549.75,1045.7
549.885,1044.2
550.02,1047.6
550.156,1044.6
550.291,1054.4
550.426,1066.9
550.562,1128.5
550.697,1275.4
550.832,1217.9
550.968,1085.7
551.103,1060.5
551.238,1061.2
551.374,1062.5
551.509,1055.8
551.644,1058.8
551.78,1061.5
551.915,1064.3
552.05,1062.4
552.185,1073.8
552.321,1069.6
552.456,1066.5
552.591,1072.9
552.726,1104.3
552.862,1146.2
552.997,1133.9
553.132,1101.2
553.267,1080.5
553.403,1073.7
553.538,1082.4
553.673,1079.5
553.808,1085.3
553.943,1082.1
554.078,1085.8
554.214,1084.1
554.349,1081.6
554.484,1083.9
554.619,1086.9
554.754,1087.3
554.889,1079.8
555.024,1089.7
555.16,1097.1
555.295,1101.5
555.43,1123.5
555.565,1154.8
555.7,1176.7
555.835,1164.8
555.97,1155.1
556.105,1169.4
556.24,1166.8
556.375,1166.7
556.51,1182.0
556.645,1186.4
556.78,1192.2
556.915,1181.0
557.05,1202.4
557.185,1226.6
557.32,1279.3
557.455,1343.3
557.59,1411.0
557.725,1393.6
557.86,1288.7
557.995,1231.2
558.13,1197.3
558.265,1208.2
558.4,1221.4
558.535,1220.0
558.67,1200.7
558.805,1192.5
558.94,1180.7
559.075,1167.3
559.21,1147.6
559.345,1134.1
559.479,1138.2
559.614,1132.0
559.749,1133.6
559.884,1136.5
560.019,1133.7
560.154,1133.2
560.289,1131.3
560.424,1129.8
560.558,1133.5
560.693,1135.4
560.828,1139.6
560.963,1141.1
561.098,1145.0
561.232,1151.6
561.367,1152.1
561.502,1152.1
561.637,1154.4
561.772,1154.0
561.906,1165.2
562.041,1164.5
562.176,1179.8
562.311,1175.1
562.445,1170.6
562.58,1180.2
562.715,1186.2
562.85,1194.7
562.984,1199.9
563.119,1208.9
563.254,1202.0
563.388,1193.7
563.523,1209.7
563.658,1194.8
563.792,1191.0
563.927,1181.3
564.062,1188.2
564.196,1188.5
564.331,1191.1
564.466,1191.8
564.6,1215.2
564.735,1223.2
564.87,1237.9
565.004,1260.0
565.139,1286.8
565.273,1315.5
565.408,1325.2
565.543,1341.0
565.677,1357.9
565.812,1378.3
565.946,1388.7
566.081,1350.6
566.215,1318.7
566.35,1278.2
566.485,1254.2
566.619,1240.7
566.754,1227.1
566.888,1211.5
567.023,1225.3
567.157,1220.0
567.292,1235.2
567.426,1242.8
567.561,1288.8
567.695,1324.7
567.83,1316.4
567.964,1290.1
568.099,1255.3
568.233,1241.2
568.368,1234.4
568.502,1235.3
568.636,1236.5
568.771,1222.6
568.905,1230.3
569.04,1243.0
569.174,1241.3
569.309,1241.3
569.443,1251.7
569.577,1260.0
569.712,1276.4
569.846,1275.4
569.98,1280.1
570.115,1297.9
570.249,1307.4
570.384,1340.4
570.518,1364.8
570.652,1418.3
570.787,1449.9
570.921,1486.6
571.055,1548.8
571.19,1603.2
571.324,1651.3
571.458,1644.9
571.592,1596.1
571.727,1517.2
571.861,1469.1
571.995,1451.6
572.13,1424.4
572.264,1381.1
572.398,1351.2
572.532,1327.4
572.667,1316.7
572.801,1304.6
572.935,1301.0
573.069,1304.9
573.204,1295.8
573.338,1296.5
573.472,1296.5
573.606,1303.3
573.74,1312.8
573.875,1322.6
574.009,1340.5
574.143,1343.7
574.277,1342.1
574.411,1333.2
574.545,1327.5
574.68,1320.7
574.814,1325.5
574.948,1331.0
575.082,1338.4
575.216,1351.5
575.35,1385.7
575.484,1390.1
575.619,1366.5
575.753,1345.6
575.887,1327.8
576.021,1330.9
576.155,1356.6
576.289,1369.7
576.423,1388.5
576.557,1388.0
576.691,1385.0
576.825,1397.3
576.959,1403.8
577.093,1385.5
577.227,1376.8
577.361,1360.2
577.495,1351.6
577.629,1349.6
577.763,1349.4
577.897,1350.4
578.031,1347.7
578.165,1344.8
578.299,1354.4
578.433,1366.6
578.567,1365.3
578.701,1363.5
578.835,1354.0
578.969,1364.3
579.103,1357.1
579.237,1360.6
579.371,1355.6
579.505,1366.8
579.639,1374.1
579.773,1373.1
579.907,1364.5
580.041,1368.5
580.175,1384.9
580.309,1369.2
580.442,1377.6
580.576,1398.2
580.71,1392.3
580.844,1395.8
580.978,1413.7
581.112,1412.8
581.246,1407.2
581.38,1422.6
581.513,1453.8
581.647,1499.2
581.781,1612.1
581.915,1851.5
582.049,2304.3
582.183,2911.8
582.316,2780.1
582.45,2006.9
582.584,1599.0
582.718,1498.6
582.852,1458.8
582.985,1441.0
583.119,1431.4
583.253,1425.8
583.387,1426.2
583.52,1421.6
583.654,1423.9
583.788,1427.2
583.922,1435.5
584.055,1429.1
584.189,1435.4
584.323,1442.5
584.456,1448.3
584.59,1450.7
584.724,1458.8
584.858,1455.0
584.991,1473.4
585.125,1489.5
585.259,1508.6
585.392,1572.5
585.526,1695.4
585.66,1894.2
585.793,2088.1
585.927,2222.4
586.061,2246.0
586.194,2187.1
586.328,2083.5
586.462,1951.2
586.595,1796.5
586.729,1660.9
586.862,1578.7
586.996,1535.1
587.13,1514.7
587.263,1490.1
587.397,1492.3
587.53,1483.5
587.664,1477.9
587.797,1471.8
587.931,1468.4
588.065,1467.0
588.198,1467.9
588.332,1455.1
588.465,1465.8
588.599,1471.1
588.732,1463.2
588.866,1465.4
588.999,1469.1
589.133,1468.5
589.266,1462.3
589.4,1471.4
589.533,1470.4
589.667,1469.0
589.8,1471.0
589.934,1465.8
590.067,1471.9
590.201,1471.2
590.334,1465.1
590.468,1484.5
590.601,1480.2
590.735,1486.4
590.868,1475.3
591.001,1480.2
591.135,1479.6
591.268,1481.5
591.402,1482.5
591.535,1483.5
591.669,1475.9
591.802,1477.0
591.935,1483.0
592.069,1485.5
592.202,1485.3
592.335,1489.8
592.469,1490.0
592.602,1486.2
592.736,1482.9
592.869,1487.1
593.002,1491.7
593.136,1479.4
593.269,1483.0
593.402,1495.0
593.536,1492.4
593.669,1483.5
593.802,1496.1
593.936,1493.9
594.069,1493.3
594.202,1499.6
594.336,1498.0
594.469,1497.8
594.602,1502.3
594.735,1497.3
594.869,1509.3
595.002,1502.3
595.135,1505.7
595.268,1504.6
595.402,1508.4
595.535,1507.6
595.668,1512.0
595.801,1519.5
595.935,1517.6
596.068,1514.0
596.201,1518.6
596.334,1523.3
596.468,1512.0
596.601,1520.8
596.734,1514.2
596.867,1521.1
597.0,1519.3
597.133,1518.0
597.267,1518.7
597.4,1525.1
597.533,1520.5
597.666,1518.4
597.799,1530.1
597.932,1534.6
598.066,1532.1
598.199,1532.5
598.332,1542.3
598.465,1543.0
598.598,1544.4
598.731,1537.6
598.864,1540.4
598.998,1537.6
599.131,1547.0
599.264,1532.6
599.397,1546.2
599.53,1548.7
599.663,1549.0
599.796,1548.4
599.929,1539.5
600.062,1540.9
600.195,1550.5
600.328,1530.1
600.461,1542.5
600.594,1543.3
600.727,1543.0
600.86,1545.5
600.994,1548.3
601.127,1549.8
601.26,1538.0
601.393,1548.0
601.526,1535.1
601.659,1541.2
601.792,1529.2
601.925,1542.8
602.058,1534.4
602.191,1535.5
602.324,1538.9
602.457,1545.7
602.589,1551.2
602.722,1549.8
602.855,1547.9
602.988,1557.4
603.121,1555.9
603.254,1556.4
603.387,1552.7
603.52,1556.8
603.653,1560.1
603.786,1559.4
603.919,1566.0
604.052,1557.7
604.185,1556.7
604.318,1552.5
604.451,1549.6
604.583,1560.6
604.716,1558.6
604.849,1553.7
604.982,1555.2
605.115,1551.7
605.248,1557.8
605.381,1543.8
605.514,1545.0
605.646,1539.0
605.779,1537.1
605.912,1539.8
606.045,1538.4
606.178,1548.5
606.311,1537.9
606.443,1529.2
606.576,1548.3
606.709,1534.6
606.842,1548.8
606.975,1546.9
607.107,1539.8
607.24,1536.6
607.373,1542.6
607.506,1550.0
607.639,1545.9
607.771,1551.6
607.904,1551.2
608.037,1555.2
608.17,1558.4
608.302,1556.5
608.435,1556.2
608.568,1557.6
608.701,1567.6
608.833,1561.5
608.966,1555.9
609.099,1559.6
609.232,1561.1
609.364,1566.0
609.497,1561.7
609.63,1556.7
609.762,1561.1
609.895,1551.0
610.028,1562.9
610.161,1563.9
610.293,1562.3
610.426,1554.0
610.559,1565.3
610.691,1565.9
610.824,1562.1
610.957,1568.2
611.089,1563.4
611.222,1565.0
611.355,1555.4
611.487,1569.2
611.62,1569.5
611.752,1573.7
611.885,1570.2
612.018,1578.1
612.15,1585.4
612.283,1580.5
612.416,1575.0
612.548,1591.5
612.681,1595.1
612.813,1587.2
612.946,1593.0
613.078,1594.5
613.211,1603.6
613.344,1599.2
613.476,1604.0
613.609,1591.7
613.741,1609.3
613.874,1601.5
614.006,1609.6
614.139,1612.2
614.272,1607.9
614.404,1605.6
614.537,1606.0
614.669,1605.7
614.802,1610.2
614.934,1613.4
615.067,1613.3
615.199,1610.3
615.332,1609.6
615.464,1618.9
615.597,1611.6
615.729,1619.8
615.862,1605.1
615.994,1605.9
616.127,1608.7
616.259,1620.1
616.392,1610.9
616.524,1612.5
616.657,1613.2
616.789,1626.8
616.922,1631.4
617.054,1627.0
617.186,1624.6
617.319,1632.6
617.451,1632.3
617.584,1640.0
617.716,1630.4
617.849,1643.1
617.981,1649.0
618.113,1648.3
618.246,1649.5
618.378,1639.5
618.511,1651.5
618.643,1652.3
618.775,1650.6
618.908,1647.2
619.04,1648.6
619.173,1642.2
619.305,1638.4
619.437,1646.6
619.57,1640.6
619.702,1627.4
619.834,1642.7
619.967,1639.5
620.099,1646.7
620.231,1642.4
620.364,1627.7
620.496,1641.1
620.628,1641.0
620.761,1643.3
620.893,1633.3
621.025,1647.3
621.158,1645.1
621.29,1659.0
621.422,1644.9
621.555,1648.3
621.687,1657.0
621.819,1653.7
621.952,1661.8
622.084,1660.6
622.216,1664.4
622.348,1662.2
622.481,1675.4
622.613,1665.6
622.745,1686.0
622.878,1676.3
623.01,1683.5
623.142,1682.9
623.274,1681.3
623.407,1685.9
623.539,1678.8
623.671,1681.8
623.803,1692.9
623.935,1695.9
624.068,1697.6
624.2,1693.4
624.332,1703.0
624.464,1699.3
624.597,1708.8
624.729,1701.9
624.861,1706.2
624.993,1712.8
625.125,1724.6
625.258,1725.1
625.39,1712.4
625.522,1719.4
625.654,1709.0
625.786,1709.8
625.918,1711.1
626.051,1725.7
626.183,1719.4
626.315,1716.0
626.447,1715.0
626.579,1718.2
626.711,1722.5
626.844,1726.8
626.976,1725.8
627.108,1729.9
627.24,1740.9
627.372,1723.9
627.504,1748.1
627.636,1740.0
627.768,1736.5
627.901,1746.0
628.033,1750.0
628.165,1753.7
628.297,1756.5
628.429,1773.6
628.561,1776.4
628.693,1790.0
628.825,1793.6
628.957,1807.9
629.089,1804.2
629.221,1809.4
629.354,1817.4
629.486,1813.4
629.618,1819.9
629.75,1820.9
629.882,1815.2
630.014,1818.5
630.146,1810.6
630.278,1818.8
630.41,1821.1
630.542,1823.5
630.674,1828.2
630.806,1849.3
630.938,1861.9
631.07,1896.2
631.202,1939.3
631.334,1988.8
631.466,2028.7
631.598,2058.8
631.73,2095.3
631.862,2106.3
631.994,2089.4
632.126,2066.8
632.258,2031.7
632.39,2003.1
632.522,1989.3
632.654,1972.8
632.786,1951.1
632.918,1944.4
633.05,1940.5
633.182,1942.3
633.314,1959.5
633.446,1945.8
633.578,1959.7
633.71,1934.6
633.842,1920.2
633.974,1912.7
634.106,1912.3
634.237,1903.9
634.369,1911.7
634.501,1893.0
634.633,1899.6
634.765,1894.1
634.897,1908.9
635.029,1893.9
635.161,1907.4
635.293,1905.0
635.425,1927.6
635.557,1942.3
635.689,1956.5
635.82,1983.0
635.952,2040.1
636.084,2064.9
636.216,2097.4
636.348,2141.7
636.48,2220.3
636.612,2241.3
636.744,2224.5
636.875,2185.0
637.007,2100.8
637.139,2051.7
637.271,2020.9
637.403,2010.2
637.535,1989.4
637.667,1977.8
637.798,1970.0
637.93,1964.0
638.062,1970.3
638.194,1953.4
638.326,1965.1
638.458,1975.8
638.589,1963.8
638.721,1968.7
638.853,1969.0
638.985,1969.9
639.117,1963.5
639.248,1960.0
639.38,1974.6
639.512,1989.6
639.644,1988.2
639.776,1988.2
639.907,1972.6
640.039,1990.6
640.171,1980.8
640.303,1981.8
640.435,1977.8
640.566,1994.2
640.698,2001.8
640.83,1995.3
640.962,2006.1
641.093,2004.1
641.225,2002.8
641.357,2007.9
641.489,2022.0
641.62,2008.5
641.752,2027.4
641.884,2029.3
642.016,2036.9
642.147,2040.4
642.279,2047.4
642.411,2024.8
642.543,2042.7
642.674,2048.1
642.806,2029.6
642.938,2019.2
643.069,2026.2
643.201,2021.1
643.333,2036.4
643.465,2027.8
643.596,2027.3
643.728,2020.0
643.86,2022.3
643.991,2011.7
644.123,2025.9
644.255,2035.0
644.386,2022.1
644.518,2019.6
644.65,2017.0
644.781,2021.7
644.913,2034.6
645.045,2020.0
645.176,2034.2
645.308,2037.5
645.44,2036.8
645.571,2039.9
645.703,2032.9
645.835,2047.9
645.966,2042.2
646.098,2044.3
646.23,2051.4
646.361,2059.4
646.493,2057.7
646.625,2049.7
646.756,2067.6
646.888,2052.5
647.019,2063.9
647.151,2078.7
647.283,2078.3
647.414,2058.6
647.546,2073.7
647.678,2073.2
647.809,2085.5
647.941,2085.4
648.072,2069.0
648.204,2074.0
648.336,2076.5
648.467,2077.0
648.599,2074.6
648.73,2071.5
648.862,2070.5
648.993,2083.6
649.125,2070.8
649.257,2080.3
649.388,2070.3
649.52,2079.9
649.651,2075.7
649.783,2076.1
649.914,2081.3
650.046,2082.8
650.178,2080.9
650.309,2075.3
650.441,2087.4
650.572,2078.1
650.704,2065.1
650.835,2083.5
650.967,2079.1
651.098,2074.9
651.23,2088.8
651.361,2083.5
651.493,2097.2
651.625,2094.2
651.756,2097.0
651.888,2100.9
652.019,2099.7
652.151,2085.8
652.282,2102.9
652.414,2103.7
652.545,2102.9
652.677,2110.0
652.808,2106.3
652.94,2105.3
653.071,2094.1
653.203,2120.0
653.334,2100.5
653.466,2108.7
653.597,2110.0
653.729,2108.7
653.86,2120.0
653.992,2100.5
654.123,2114.7
654.255,2122.3
654.386,2111.4
654.518,2110.3
654.649,2113.1
654.78,2104.2
654.912,2106.5
655.043,2120.3
655.175,2117.7
655.306,2113.2
655.438,2116.5
655.569,2104.7
655.701,2102.9
655.832,2119.4
655.964,2115.4
656.095,2115.1
656.226,2119.7
656.358,2126.5
656.489,2124.7
656.621,2104.8
656.752,2109.7
656.884,2129.8
657.015,2106.2
657.146,2120.8
657.278,2123.0
657.409,2118.4
657.541,2129.8
657.672,2122.7
657.804,2122.2
657.935,2126.2
658.066,2119.8
658.198,2126.8
658.329,2120.0
658.461,2127.6
658.592,2142.6
658.723,2124.1
658.855,2119.0
658.986,2129.9
659.118,2130.5
659.249,2135.5
659.38,2141.0
659.512,2125.9
659.643,2125.0
659.774,2123.9
659.906,2136.2
660.037,2139.2
660.169,2142.1
660.3,2124.3
660.431,2114.8
660.563,2127.8
660.694,2133.2
660.825,2122.1
660.957,2106.9
661.088,2120.1
661.22,2113.1
661.351,2109.9
661.482,2111.6
661.614,2115.7
661.745,2107.3
661.876,2108.0
662.008,2098.8
662.139,2096.6
662.27,2106.8
662.402,2101.5
662.533,2106.6
662.664,2098.3
662.796,2098.2
662.927,2093.4
663.058,2094.0