File: spectra/VLFR_07-PET_bio_Raman_d3f00772.csv
nm,Intensity
791.496,10157.8
791.771,9936.1
792.045,9841.8
792.32,9639.1
792.594,9537.6
792.869,9539.2
793.143,9347.4
793.418,9323.7
793.692,9291.9
793.967,9225.0
794.241,9158.8
794.516,9095.5
794.79,9151.0
795.065,9105.0
795.339,9081.8
795.614,9138.8
795.888,9056.2
796.163,8989.8
796.437,9096.2
796.711,9084.3
796.986,9111.1
797.26,9074.5
797.535,8987.0
797.809,9009.5
798.083,9051.9
798.358,9049.5
798.632,9039.5
798.906,9065.1
799.181,8964.4
799.455,8911.6
799.729,9003.3
800.004,9045.1
800.278,8943.7
800.552,8945.2
800.827,8926.7
801.101,8921.0
801.375,8985.4
801.65,8910.3
801.924,9002.8
802.198,8988.7
802.473,8970.6
802.747,8876.3
803.021,8865.8
803.295,8768.4
803.57,8743.2
803.844,8743.4
804.118,8776.1
804.392,8742.2
804.667,8712.7
804.941,8707.9
805.215,8586.7
805.489,8654.8
805.764,8723.0
806.038,8594.1
806.312,8590.2
806.586,8651.4
806.86,8569.8
807.134,8601.4
807.409,8533.4
807.683,8589.6
807.957,8537.2
808.231,8530.8
808.505,8517.3
808.779,8473.0
809.054,8525.0
809.328,8454.5
809.602,8453.9
809.876,8402.9
810.15,8367.7
810.424,8369.1
810.698,8385.9
810.972,8406.7
811.246,8307.0
811.52,8334.1
811.794,8378.8
812.069,8333.6
812.343,8330.5
812.617,8304.5
812.891,8315.4
813.165,8225.1
813.439,8281.4
813.713,8219.0
813.987,8131.1
814.261,8190.3
814.535,8187.6
814.809,8150.3
815.083,8139.6
815.357,8142.6
815.631,8171.6
815.905,8075.1
816.179,8012.3
816.453,8102.8
816.727,8079.5
817.001,8019.2
817.274,8012.3
817.548,8074.6
817.822,8013.7
818.096,7967.7
818.37,7922.9
818.644,7917.4
818.918,7886.9
819.192,7847.0
819.466,7835.2
819.74,7870.5
820.013,7849.8
820.287,7816.7
820.561,7864.9
820.835,7816.6
821.109,7775.0
821.383,7808.6
821.657,7768.7
821.93,7804.1
822.204,7688.0
822.478,7670.0
822.752,7644.9
823.026,7646.0
823.299,7622.6
823.573,7713.2
823.847,7663.8
824.121,7545.9
824.394,7550.6
824.668,7619.2
824.942,7651.8
825.216,7739.4
825.489,7733.8
825.763,7660.0
826.037,7659.8
826.311,7494.5
826.584,7515.9
826.858,7445.5
827.132,7461.9
827.405,7423.0
827.679,7422.4
827.953,7349.3
828.226,7411.7
828.5,7369.7
828.774,7395.4
829.047,7406.7
829.321,7321.3
829.595,7320.2
829.868,7343.9
830.142,7389.3
830.416,7385.7
830.689,7266.0
830.963,7262.6
831.236,7286.8
831.51,7208.4
831.783,7205.2
832.057,7173.4
832.331,7166.1
832.604,7130.5
832.878,7166.7
833.151,7096.5
833.425,7091.5
833.698,7088.3
833.972,7114.8
834.245,7095.7
834.519,7032.8
834.792,7042.0
835.066,7004.5
835.339,7024.1
835.613,7048.7
835.886,7045.6
836.16,7093.8
836.433,7074.0
836.707,7081.9
836.98,7031.2
837.254,7026.7
837.527,6996.1
837.8,7063.1
838.074,7054.2
838.347,6974.4
838.621,7005.8
838.894,6989.0
839.167,6948.3
839.441,6970.7
839.714,6962.5
839.988,7008.1
840.261,6945.2
840.534,7090.5
840.808,7196.4
841.081,7203.5
841.354,7152.1
841.628,7097.5
841.901,7000.8
842.174,6923.7
842.448,6893.9
842.721,6863.0
842.994,6863.0
843.267,6854.7
843.541,6823.7
843.814,6711.3
844.087,6736.6
844.36,6718.6
844.634,6686.1
844.907,6687.1
845.18,6693.0
845.453,6640.3
845.727,6683.8
846.0,6601.0
846.273,6560.5
846.546,6568.8
846.819,6587.6
847.093,6562.0
847.366,6534.4
847.639,6540.0
847.912,6516.9
848.185,6448.8
848.458,6501.7
848.731,6514.0
849.005,6450.3
849.278,6495.3
849.551,6484.1
849.824,6505.9
850.097,6478.7
850.37,6446.2
850.643,6442.5
850.916,6443.1
851.189,6419.2
851.462,6379.1
851.735,6436.1
852.009,6440.1
852.282,6444.3
852.555,6396.3
852.828,6433.8
853.101,6429.3
853.374,6420.1
853.647,6378.6
853.92,6312.7
854.193,6291.2
854.466,6348.3
854.739,6300.5
855.012,6332.1
855.284,6285.9
855.557,6303.8
855.83,6290.3
856.103,6288.5
856.376,6273.9
856.649,6271.2
856.922,6275.6
857.195,6256.2
857.468,6289.4
857.741,6288.6
858.014,6337.8
858.287,6319.9
858.559,6301.6
858.832,6339.2
859.105,6397.7
859.378,6397.1
859.651,6338.1
859.924,6378.5
860.196,6344.3
860.469,6335.3
860.742,6241.4
861.015,6222.6
861.288,6183.5
861.56,6123.8
861.833,6153.1
862.106,6126.9
862.379,6112.1
862.651,6127.7
862.924,6084.9
863.197,6099.1
863.47,6101.6
863.742,6111.9
864.015,6139.0
864.288,6143.6
864.561,6120.6
864.833,6123.5
865.106,6070.7
865.379,6075.1
865.651,6061.5
865.924,6046.6
866.197,5961.6
866.469,5996.1
866.742,5995.3
867.014,5980.9
867.287,5973.1
867.56,5936.3
867.832,5913.5
868.105,5949.5
868.378,5961.3
868.65,5956.2
868.923,5955.2
869.195,5955.6
869.468,5963.3
869.74,5975.9
870.013,6027.7
870.285,6012.8
870.558,6044.5
870.83,6050.7
871.103,6067.2
871.376,6081.2
871.648,6106.5
871.921,6164.5
872.193,6170.9
872.465,6182.6
872.738,6178.3
873.01,6121.0
873.283,6121.8
873.555,6098.4
873.828,6052.3
874.1,6004.0
874.373,5985.1
874.645,5960.1
874.917,5913.2
875.19,5855.0
875.462,5831.7
875.735,5835.8
876.007,5815.7
876.279,5825.5
876.552,5756.7
876.824,5757.9
877.096,5728.3
877.369,5724.2
877.641,5774.0
877.913,5748.7
878.186,5743.7
878.458,5718.1
878.73,5693.5
879.002,5678.1
879.275,5734.0
879.547,5723.2
879.819,5678.3
880.092,5697.9
880.364,5703.0
880.636,5669.2
880.908,5670.9
881.18,5674.0
881.453,5620.6
881.725,5665.9
881.997,5682.1
882.269,5669.4
882.541,5686.0
882.814,5636.2
883.086,5624.0
883.358,5602.6
883.63,5618.8
883.902,5612.6
884.174,5597.4
884.446,5563.7
884.719,5609.1
884.991,5601.8
885.263,5591.4
885.535,5593.5
885.807,5597.0
886.079,5592.5
886.351,5578.9
886.623,5547.3
886.895,5549.1
887.167,5513.8
887.439,5480.2
887.711,5466.9
887.983,5462.9
888.255,5511.3
888.527,5462.9
888.799,5436.7
889.071,5431.3
889.343,5448.0
889.615,5446.4
889.887,5452.7
890.159,5427.4
890.431,5397.5
890.703,5399.4
890.975,5431.7
891.247,5422.8
891.519,5403.8
891.791,5398.3
892.062,5395.5
892.334,5395.1
892.606,5383.0
892.878,5356.7
893.15,5375.7
893.422,5342.5
893.694,5322.3
893.966,5310.2
894.237,5301.6
894.509,5297.3
894.781,5300.3
895.053,5297.0
895.325,5315.0
895.596,5315.4
895.868,5313.6
896.14,5351.1
896.412,5342.4
896.683,5371.7
896.955,5435.9
897.227,5525.7
897.499,5671.9
897.77,5724.8
898.042,5766.7
898.314,5729.9
898.585,5673.7
898.857,5626.5
899.129,5535.6
899.4,5436.5
899.672,5357.5
899.944,5250.3
900.215,5185.1
900.487,5169.4
900.759,5173.3
901.03,5167.5
901.302,5144.4
901.573,5110.8
901.845,5109.3
902.117,5126.4
902.388,5112.8
902.66,5087.3
902.931,5083.6
903.203,5095.1
903.474,5085.4
903.746,5093.8
904.017,5070.5
904.289,5082.4
904.56,5066.8
904.832,5081.0
905.103,5082.7
905.375,5112.4
905.646,5139.0
905.918,5195.4
906.189,5243.7
906.461,5262.2
906.732,5355.4
907.004,5414.4
907.275,5388.0
907.546,5386.3
907.818,5382.6
908.089,5362.8
908.361,5264.5
908.632,5234.0
908.903,5169.4
909.175,5100.7
909.446,5041.3
909.717,5017.5
909.989,4994.4
910.26,4940.0
910.531,4918.3
910.803,4910.4
911.074,4883.6
911.345,4897.0
911.616,4871.8
911.888,4873.6
912.159,4884.4
912.43,4884.6
912.701,4865.3
912.973,4826.2
913.244,4816.4
913.515,4824.7
913.786,4828.0
914.058,4825.6
914.329,4832.0
914.6,4831.5
914.871,4783.5
915.142,4784.3
915.413,4775.9
915.685,4755.1
915.956,4750.5
916.227,4729.9
916.498,4750.2
916.769,4738.6
917.04,4748.2
917.311,4740.9
917.582,4730.7
917.853,4707.5
918.124,4722.3
918.395,4711.5
918.667,4682.1
918.938,4695.0
919.209,4680.2
919.48,4698.2
919.751,4668.4
920.022,4669.9
920.293,4656.6
920.564,4637.5
920.835,4643.1
921.106,4643.7
921.376,4622.9
921.647,4615.9
921.918,4616.3
922.189,4623.6
922.46,4602.4
922.731,4606.3
923.002,4605.1
923.273,4590.6
923.544,4589.9
923.815,4594.3
924.086,4557.3
924.356,4555.7
924.627,4564.6
924.898,4579.4
925.169,4548.3
925.44,4527.5
925.711,4507.9
925.981,4533.3
926.252,4515.5
926.523,4505.1
926.794,4494.1
927.065,4503.5
927.335,4514.3
927.606,4495.8
927.877,4491.4
928.148,4480.1
928.418,4494.1
928.689,4475.3
928.96,4457.3
929.23,4444.5
929.501,4458.4
929.772,4461.2
930.042,4450.5
930.313,4432.9
930.584,4431.3
930.854,4419.8
931.125,4401.6
931.396,4405.4
931.666,4398.0
931.937,4404.2
932.207,4409.0
932.478,4409.3
932.749,4392.5
933.019,4360.8
933.29,4370.8
933.56,4387.6
933.831,4374.8
934.101,4370.7
934.372,4362.3
934.642,4359.5
934.913,4347.0
935.183,4338.4
935.454,4331.7
935.724,4334.5
935.995,4338.2
936.265,4323.2
936.536,4325.8
936.806,4302.6
937.076,4286.2
937.347,4286.2
937.617,4297.8
937.888,4313.2
938.158,4291.7
938.428,4287.7
938.699,4290.9
938.969,4283.7
939.24,4287.5
939.51,4276.6
939.78,4259.4
940.051,4255.9
940.321,4263.1
940.591,4239.4
940.861,4262.2
941.132,4251.2
941.402,4237.8
941.672,4234.6
941.943,4214.6
942.213,4213.4
942.483,4215.6
942.753,4220.5
943.023,4216.7
943.294,4197.6
943.564,4203.9
943.834,4205.1
944.104,4189.3
944.374,4189.4
944.645,4179.8
944.915,4173.1
945.185,4160.9
945.455,4182.6
945.725,4181.0
945.995,4170.2
946.265,4169.3
946.535,4162.1
946.806,4152.6
947.076,4153.1
947.346,4156.2
947.616,4150.4
947.886,4144.8
948.156,4145.1
948.426,4137.7
948.696,4134.4
948.966,4134.0
949.236,4126.1
949.506,4126.7
949.776,4114.2
950.046,4121.1
950.316,4119.1
950.586,4109.8
950.856,4102.4
951.126,4103.1
951.396,4093.9
951.665,4088.4
951.935,4102.6
952.205,4088.4
952.475,4085.5
952.745,4088.1
953.015,4086.7
953.285,4080.7
953.555,4064.0
953.824,4070.8
954.094,4064.9
954.364,4061.5
954.634,4069.7
954.904,4060.6
955.173,4058.4
955.443,4057.4
955.713,4044.8
955.983,4038.6
956.253,4041.3
956.522,4040.0
956.792,4036.4
957.062,4033.5
957.331,4028.3
957.601,4025.6
957.871,4033.5
958.141,4027.0
958.41,4025.0
958.68,4022.7
958.949,4027.1
959.219,4025.1
959.489,4014.2
959.758,4003.9
960.028,4002.7
960.298,4006.2
960.567,4003.8
960.837,4004.7
961.106,3992.9
961.376,3987.1
961.645,3988.6
961.915,3987.0
962.185,3988.3
962.454,3981.2
962.724,3986.5
962.993,3983.0
963.263,3977.2
963.532,3973.9
963.802,3979.4
964.071,3977.0
964.34,3962.3
964.61,3953.5
964.879,3961.6
965.149,3959.2
965.418,3957.1
965.688,3951.8
965.957,3959.0
966.226,3958.2
966.496,3951.8
966.765,3951.2
967.034,3946.1
967.304,3945.0
967.573,3934.0
967.842,3941.4
968.112,3940.3
968.381,3936.8
968.65,3942.6
968.92,3937.1
969.189,3932.1
969.458,3921.2
969.727,3923.8
969.997,3929.8
970.266,3921.9
970.535,3916.4
970.804,3914.6
971.074,3919.3
971.343,3920.3
971.612,3911.2
971.881,3914.1
972.15,3911.4
972.419,3911.9
972.689,3903.9
972.958,3907.8
973.227,3906.4
973.496,3899.6
973.765,3894.2
974.034,3895.8
974.303,3894.9
974.572,3895.6
974.841,3893.7
975.11,3888.8
975.379,3884.7
975.648,3890.2
975.917,3885.2
976.186,3881.6
976.455,3880.7
976.724,3881.4
976.993,3882.2
977.262,3882.2
977.531,3880.2
977.8,3876.7
978.069,3878.0
978.338,3865.7
978.607,3872.0
978.876,3873.8
979.145,3870.2
979.414,3866.4
979.683,3861.0
979.952,3859.8
980.22,3860.7
980.489,3860.7
980.758,3861.9
981.027,3856.6
981.296,3857.8
981.565,3853.9
981.833,3857.4
982.102,3851.6
982.371,3856.7
982.64,3854.8
982.908,3849.9
983.177,3848.5
983.446,3850.9
983.715,3841.4
983.983,3842.9
984.252,3840.5
984.521,3841.3
984.789,3838.2
985.058,3839.4
985.327,3840.4
985.595,3836.9
985.864,3834.8
986.133,3834.9
986.401,3834.8
986.67,3833.2
986.938,3836.0
987.207,3833.3
987.476,3827.1
987.744,3824.2
988.013,3828.9
988.281,3829.7
988.55,3821.8
988.818,3822.5
989.087,3823.5
989.355,3824.3
989.624,3817.0
989.892,3815.6
990.161,3818.7
990.429,3814.8
990.698,3814.9
990.966,3813.6
991.235,3810.4
991.503,3816.1
991.771,3810.7
992.04,3814.9
992.308,3811.7
992.577,3813.1
992.845,3810.9
993.113,3806.4
993.382,3806.9
993.65,3807.6
993.918,3805.0
994.187,3804.0
994.455,3803.0
994.723,3800.2
994.991,3802.2
995.26,3796.1
995.528,3795.3
995.796,3798.0
996.065,3796.8
996.333,3795.9
996.601,3791.8
996.869,3795.0
997.137,3790.3
997.406,3792.1
997.674,3793.9
997.942,3792.1
998.21,3790.5
998.478,3786.9
998.746,3786.5
999.014,3789.0
999.283,3783.1
999.551,3786.6
999.819,3782.8
1000.09,3783.1
1000.35,3781.2
1000.62,3782.9
1000.89,3785.2
1001.16,3784.0
1001.43,3780.7
1001.7,3781.4
1001.96,3775.7
1002.23,3778.4
1002.5,3776.4
1002.77,3775.9
1003.03,3773.4
1003.3,3777.8
1003.57,3778.5
1003.84,3775.7
1004.11,3772.1
1004.37,3774.7
1004.64,3772.5
1004.91,3775.1
1005.18,3769.9
1005.45,3771.0
1005.71,3771.4
1005.98,3769.6
1006.25,3767.1
1006.52,3771.0
1006.79,3765.4
1007.05,3762.8
1007.32,3766.0
1007.59,3764.3
1007.86,3764.0
1008.12,3763.7
1008.39,3762.2
1008.66,3762.8
1008.93,3761.1
1009.2,3763.0
1009.46,3761.5
1009.73,3758.9
1010.0,3758.3
1010.27,3758.1
1010.53,3755.4
1010.8,3759.3
1011.07,3759.7
1011.34,3755.9
1011.6,3757.1
1011.87,3759.1
1012.14,3754.4
1012.41,3754.8
1012.67,3753.1
1012.94,3754.8
1013.21,3755.0
1013.48,3751.6
1013.74,3754.4
1014.01,3753.3
1014.28,3752.7
1014.55,3752.0
1014.81,3755.8
1015.08,3749.1
1015.35,3749.8
1015.62,3753.9
1015.88,3753.6
1016.15,3752.2
1016.42,3750.5
1016.69,3746.3
1016.95,3750.6
1017.22,3749.5
1017.49,3744.3
1017.76,3746.8
1018.02,3746.0
1018.29,3745.7
1018.56,3744.2
1018.83,3743.8
1019.09,3746.2
1019.36,3747.1
1019.63,3745.1
1019.89,3749.6
1020.16,3746.4
1020.43,3748.4
1020.7,3745.4
1020.96,3749.0
1021.23,3751.1
1021.5,3748.7
1021.77,3748.6
1022.03,3749.8
1022.3,3750.7
1022.57,3749.9
1022.83,3749.0
1023.1,3748.0
1023.37,3747.6
1023.64,3743.1
1023.9,3745.4
1024.17,3746.0
1024.44,3742.2
1024.7,3743.1
1024.97,3739.6
1025.24,3739.3
1025.5,3743.0
1025.77,3740.5
1026.04,3734.2
1026.31,3736.8
1026.57,3733.3
1026.84,3737.1
1027.11,3737.7
1027.37,3733.4
1027.64,3731.9
1027.91,3734.7
1028.17,3729.7
1028.44,3730.5
1028.71,3732.0
1028.97,3732.6
1029.24,3732.8
1029.51,3729.7
1029.78,3730.9
1030.04,3728.1
1030.31,3727.1
1030.58,3726.9
1030.84,3728.5
1031.11,3727.5
1031.38,3724.8
1031.64,3725.8
1031.91,3726.8
1032.18,3729.2
1032.44,3731.0
1032.71,3727.9
1032.98,3728.4
1033.24,3729.9
1033.51,3731.2
1033.78,3730.6
1034.04,3731.6
1034.31,3732.6
1034.58,3728.8
1034.84,3731.3
1035.11,3730.6
1035.38,3730.1
1035.64,3729.4
1035.91,3727.6
1036.18,3729.6
1036.44,3727.3
1036.71,3727.4
1036.98,3727.8
1037.24,3727.4
1037.51,3726.0
1037.78,3723.2
1038.04,3722.1
1038.31,3721.6
1038.58,3721.2
1038.84,3721.3
1039.11,3722.2
1039.37,3723.0
1039.64,3719.2
1039.91,3721.3
1040.17,3720.6
1040.44,3719.6
1040.71,3720.8
1040.97,3718.9
1041.24,3719.0
1041.51,3719.3
1041.77,3719.6
1042.04,3721.2
1042.3,3718.3
1042.57,3717.6
1042.84,3718.8
1043.1,3717.5
1043.37,3719.9
1043.64,3718.5
1043.9,3716.6
1044.17,3715.4
1044.43,3719.6
1044.7,3717.9
1044.97,3716.8
1045.23,3718.8
1045.5,3717.6
1045.77,3716.5
1046.03,3715.9
1046.3,3714.6
1046.56,3716.8
1046.83,3716.4
1047.1,3715.6
1047.36,3715.9
1047.63,3715.7
1047.89,3715.0
1048.16,3713.9
1048.43,3715.9
1048.69,3716.2
1048.96,3714.7
1049.22,3714.1
1049.49,3715.1
1049.76,3713.8
1050.02,3716.3
1050.29,3714.4
1050.55,3715.4
1050.82,3714.8
1051.09,3715.5
1051.35,3715.9
1051.62,3715.7
1051.88,3717.4
1052.15,3714.2
1052.42,3713.6
1052.68,3715.7
1052.95,3715.2
1053.21,3715.5
1053.48,3715.1
1053.74,3712.7
1054.01,3713.5
1054.28,3714.4
1054.54,3714.0
1054.81,3715.2
1055.07,3714.5
1055.34,3715.0
1055.61,3712.5
1055.87,3711.9
1056.14,3715.0
1056.4,3714.6
1056.67,3711.7
1056.93,3713.6
1057.2,3714.1
1057.46,3713.9
1057.73,3713.9
1058.0,3713.1
1058.26,3715.2
1058.53,3713.5
1058.79,3714.3
1059.06,3712.9
1059.32,3711.8
1059.59,3712.7
1059.86,3713.8
1060.12,3714.0
1060.39,3712.8
1060.65,3712.1
1060.92,3713.0
1061.18,3711.9
1061.45,3714.5
1061.71,3711.9
1061.98,3712.3
1062.24,3710.9
1062.51,3711.7
1062.78,3711.9
1063.04,3712.5
1063.31,3713.6
1063.57,3710.7
1063.84,3712.1
1064.1,3712.0
1064.37,3710.8
1064.63,3712.7
1064.9,3710.7
1065.16,3711.2
1065.43,3710.6
1065.69,3711.1
1065.96,3711.5
1066.22,3711.1
1066.49,3712.6
1066.75,3710.9
1067.02,3711.1
1067.29,3711.2
1067.55,3711.4
1067.82,3712.5
1068.08,3710.6