File: spectra/VLFR_02-HDPE_bio_Raman_c933d7a3.csv
nm,Intensity
528.626,1868.6
528.795,1870.2
528.963,1870.7
529.132,1870.3
529.3,1868.8
529.469,1869.2
529.637,1869.5
529.806,1870.2
529.974,1870.0
530.143,1869.7
530.311,1869.3
530.48,1870.4
530.648,1869.7
530.816,1872.5
530.985,1872.3
531.153,1873.3
531.322,1875.0
531.49,1878.5
531.658,1907.3
531.827,2477.3
531.995,4393.8
532.164,3677.8
532.332,2191.6
532.5,1875.8
532.669,1871.8
532.837,1872.2
533.006,1870.6
533.174,1871.0
533.342,1870.2
533.511,1878.7
533.679,1934.1
533.847,2037.9
534.016,2123.1
534.184,2137.4
534.352,2126.3
534.521,2133.3
534.689,2144.8
534.857,2140.8
535.025,2154.8
535.194,2155.7
535.362,2127.1
535.53,2120.6
535.699,2129.6
535.867,2129.8
536.035,2129.6
536.203,2123.5
536.372,2091.1
536.54,2057.9
536.708,2044.7
536.876,2051.0
537.044,2057.5
537.213,2090.9
537.381,2096.2
537.549,2063.1
537.717,2041.5
537.885,2057.4
538.054,2087.5
538.222,2083.1
538.39,2050.1
538.558,2036.2
538.726,2025.5
538.894,2019.5
539.063,2004.6
539.231,2011.1
539.399,2016.4
539.567,2005.5
539.735,2003.5
539.903,2006.2
540.071,2008.2
540.239,1995.7
540.408,1999.1
540.576,2002.7
540.744,2012.9
540.912,2016.4
541.08,2016.7
541.248,2013.9
541.416,1997.7
541.584,2005.6
541.752,2011.6
541.92,2010.1
542.088,2005.2
542.256,2014.8
542.424,2006.4
542.592,2020.6
542.76,2007.8
542.928,2005.7
543.096,2017.4
543.264,2012.5
543.432,2014.7
543.6,2035.5
543.768,2072.2
543.936,2175.9
544.104,2260.6
544.272,2193.5
544.44,2076.9
544.608,2032.2
544.776,2025.9
544.944,2028.0
545.112,2027.3
545.28,2028.5
545.448,2024.8
545.616,2024.9
545.784,2033.6
545.951,2053.6
546.119,2110.2
546.287,2233.0
546.455,2335.0
546.623,2259.2
546.791,2135.4
546.959,2074.6
547.127,2046.0
547.294,2042.7
547.462,2028.6
547.63,2031.3
547.798,2025.1
547.966,2027.5
548.134,2028.7
548.301,2038.5
548.469,2038.7
548.637,2035.6
548.805,2038.0
548.972,2047.2
549.14,2054.3
549.308,2075.1
549.476,2065.5
549.644,2077.4
549.811,2090.4
549.979,2126.6
550.147,2141.2
550.315,2168.3
550.482,2127.3
550.65,2076.2
550.818,2042.9
550.985,2031.4
551.153,2036.2
551.321,2030.7
551.488,2032.7
551.656,2046.1
551.824,2062.7
551.991,2046.0
552.159,2030.6
552.327,2029.1
552.494,2025.9
552.662,2021.4
552.83,2019.9
552.997,2028.8
553.165,2040.4
553.333,2041.6
553.5,2034.1
553.668,2033.2
553.835,2042.4
554.003,2036.9
554.171,2033.1
554.338,2044.3
554.506,2033.9
554.673,2035.5
554.841,2051.5
555.008,2043.2
555.176,2050.1
555.343,2040.8
555.511,2039.1
555.679,2054.4
555.846,2045.7
556.014,2056.3
556.181,2053.8
556.349,2054.0
556.516,2048.8
556.684,2047.4
556.851,2055.6
557.018,2065.9
557.186,2056.3
557.353,2072.4
557.521,2064.0
557.688,2070.0
557.856,2058.2
558.023,2074.6
558.191,2073.7
558.358,2087.2
558.525,2070.6
558.693,2072.9
558.86,2070.1
559.028,2070.1
559.195,2066.2
559.362,2076.5
559.53,2072.8
559.697,2065.4
559.864,2063.5
560.032,2074.4
560.199,2062.5
560.366,2063.8
560.534,2074.3
560.701,2073.2
560.868,2084.3
561.036,2088.6
561.203,2102.7
561.37,2110.6
561.538,2132.9
561.705,2162.8
561.872,2257.4
562.039,2679.5
562.207,3936.1
562.374,4197.3
562.541,2928.6
562.708,2255.5
562.876,2168.2
563.043,2131.6
563.21,2121.2
563.377,2123.3
563.545,2142.8
563.712,2220.0
563.879,2441.1
564.046,2587.8
564.213,2392.6
564.38,2212.1
564.548,2188.8
564.715,2182.3
564.882,2175.0
565.049,2165.2
565.216,2143.9
565.383,2146.6
565.551,2164.8
565.718,2184.0
565.885,2321.2
566.052,2557.5
566.219,2669.5
566.386,2487.6
566.553,2298.7
566.72,2227.7
566.887,2159.2
567.054,2141.2
567.221,2146.1
567.388,2185.0
567.555,2163.6
567.722,2117.9
567.889,2110.5
568.057,2097.1
568.224,2093.6
568.391,2098.4
568.558,2092.4
568.725,2094.0
568.892,2099.1
569.058,2110.3
569.225,2104.3
569.392,2104.3
569.559,2094.1
569.726,2104.2
569.893,2107.6
570.06,2114.8
570.227,2114.2
570.394,2122.5
570.561,2134.4
570.728,2143.4
570.895,2141.6
571.062,2177.9
571.229,2283.6
571.395,2640.1
571.562,2950.8
571.729,2600.8
571.896,2285.8
572.063,2211.5
572.23,2166.4
572.397,2147.5
572.563,2129.4
572.73,2127.2
572.897,2126.0
573.064,2119.5
573.231,2127.1
573.397,2112.9
573.564,2118.7
573.731,2131.2
573.898,2145.8
574.064,2150.0
574.231,2122.1
574.398,2106.8
574.565,2110.3
574.731,2108.7
574.898,2129.4
575.065,2136.6
575.232,2173.9
575.398,2310.2
575.565,2395.6
575.732,2345.2
575.898,2335.1
576.065,2479.2
576.232,2635.0
576.398,2647.9
576.565,2533.1
576.732,2474.0
576.898,2462.8
577.065,2475.9
577.232,2387.0
577.398,2305.6
577.565,2213.4
577.731,2168.0
577.898,2159.4
578.065,2141.8
578.231,2146.9
578.398,2137.3
578.564,2139.2
578.731,2137.7
578.897,2128.5
579.064,2129.9
579.23,2129.0
579.397,2132.4
579.563,2147.2
579.73,2126.1
579.896,2150.9
580.063,2138.6
580.229,2132.2
580.396,2140.4
580.562,2132.9
580.729,2147.6
580.895,2135.1
581.062,2150.1
581.228,2145.5
581.395,2149.3
581.561,2143.2
581.728,2145.6
581.894,2151.9
582.06,2146.3
582.227,2142.4
582.393,2147.7
582.56,2159.3
582.726,2159.8
582.892,2161.3
583.059,2160.3
583.225,2156.8
583.391,2156.8
583.558,2158.1
583.724,2154.3
583.89,2171.9
584.057,2165.0
584.223,2183.8
584.389,2170.5
584.556,2183.0
584.722,2178.5
584.888,2169.6
585.054,2180.3
585.221,2175.7
585.387,2201.2
585.553,2176.1
585.719,2195.5
585.886,2183.9
586.052,2179.3
586.218,2195.3
586.384,2206.9
586.55,2190.2
586.717,2224.8
586.883,2216.1
587.049,2212.9
587.215,2215.2
587.381,2237.5
587.548,2234.9
587.714,2245.8
587.88,2240.1
588.046,2232.2
588.212,2251.8
588.378,2248.5
588.544,2252.9
588.71,2263.7
588.876,2251.6
589.043,2269.9
589.209,2261.8
589.375,2257.9
589.541,2278.7
589.707,2269.6
589.873,2267.6
590.039,2280.4
590.205,2292.2
590.371,2288.7
590.537,2300.5
590.703,2303.3
590.869,2300.7
591.035,2334.3
591.201,2327.2
591.367,2324.8
591.533,2307.5
591.699,2334.7
591.865,2350.8
592.031,2354.7
592.197,2338.8
592.363,2338.6
592.529,2350.9
592.694,2368.1
592.86,2350.4
593.026,2351.1
593.192,2380.8
593.358,2378.9
593.524,2364.9
593.69,2388.5
593.856,2360.1
594.021,2384.1
594.187,2392.8
594.353,2373.8
594.519,2375.5
594.685,2396.8
594.851,2406.1
595.016,2407.4
595.182,2398.2
595.348,2404.9
595.514,2393.6
595.68,2425.1
595.845,2432.9
596.011,2419.5
596.177,2438.5
596.342,2459.0
596.508,2460.9
596.674,2463.3
596.84,2450.7
597.005,2469.6
597.171,2470.5
597.337,2463.4
597.502,2481.8
597.668,2488.8
597.834,2466.6
597.999,2500.1
598.165,2507.0
598.331,2493.2
598.496,2488.3
598.662,2510.9
598.828,2507.1
598.993,2515.2
599.159,2544.6
599.324,2517.3
599.49,2559.8
599.656,2528.2
599.821,2539.5
599.987,2547.8
600.152,2525.5
600.318,2551.3
600.483,2532.3
600.649,2547.0
600.814,2552.7
600.98,2581.3
601.145,2577.3
601.311,2558.6
601.476,2584.7
601.642,2573.4
601.807,2579.1
601.973,2599.9
602.138,2613.2
602.304,2596.3
602.469,2593.3
602.635,2589.1
602.8,2603.1
602.965,2579.6
603.131,2588.4
603.296,2619.4
603.462,2624.0
603.627,2599.5
603.792,2630.4
603.958,2619.4
604.123,2626.6
604.288,2623.1
604.454,2602.1
604.619,2610.2
604.784,2634.7
604.95,2626.4
605.115,2626.3
605.28,2641.6
605.446,2635.3
605.611,2625.5
605.776,2634.3
605.941,2618.2
606.107,2618.0
606.272,2643.7
606.437,2621.5
606.602,2638.6
606.767,2678.8
606.933,2643.0
607.098,2641.1
607.263,2628.1
607.428,2658.9
607.593,2680.0
607.759,2655.3
607.924,2676.0
608.089,2654.4
608.254,2675.4
608.419,2658.7
608.584,2663.5
608.749,2653.5
608.915,2652.6
609.08,2690.4
609.245,2661.6
609.41,2663.2
609.575,2649.8
609.74,2670.7
609.905,2652.0
610.07,2674.8
610.235,2689.5
610.4,2665.7
610.565,2682.1
610.73,2691.5
610.895,2706.8
611.06,2713.1
611.225,2702.5
611.39,2686.9
611.555,2711.7
611.72,2684.8
611.885,2676.7
612.05,2665.8
612.215,2715.3
612.38,2687.0
612.545,2655.1
612.71,2656.4
612.875,2645.7
613.04,2686.0
613.204,2699.5
613.369,2649.7
613.534,2699.2
613.699,2674.3
613.864,2690.0
614.029,2650.6
614.194,2661.6
614.358,2695.2
614.523,2668.2
614.688,2673.5
614.853,2701.6
615.018,2653.1
615.182,2668.9
615.347,2659.6
615.512,2690.0
615.677,2670.9
615.841,2665.2
616.006,2708.3
616.171,2652.0
616.336,2655.8
616.5,2663.3
616.665,2691.2
616.83,2679.6
616.994,2668.0
617.159,2690.3
617.324,2675.7
617.489,2689.4
617.653,2670.4
617.818,2697.1
617.982,2677.8
618.147,2687.2
618.312,2678.4
618.476,2663.3
618.641,2651.9
618.805,2628.7
618.97,2604.0
619.135,2678.1
619.299,2694.0
619.464,2663.7
619.628,2675.7
619.793,2651.3
619.957,2648.3
620.122,2612.2
620.286,2668.6
620.451,2652.5
620.615,2651.3
620.78,2652.3
620.944,2638.6
621.109,2696.4
621.273,2677.5
621.438,2691.1
621.602,2725.6
621.767,2740.1
621.931,2798.2
622.095,2811.6
622.26,2819.3
622.424,2809.7
622.589,2734.1
622.753,2734.5
622.917,2639.5
623.082,2618.9
623.246,2612.5
623.41,2592.9
623.575,2553.9
623.739,2591.2
623.903,2563.5
624.068,2548.2
624.232,2535.7
624.396,2583.0
624.561,2563.9
624.725,2526.1
624.889,2559.2
625.053,2536.0
625.218,2552.4
625.382,2540.0
625.546,2550.4
625.71,2568.1
625.875,2598.5
626.039,2619.4
626.203,2694.8
626.367,2811.0
626.531,3090.1
626.695,3593.1
626.86,4374.1
627.024,5337.8
627.188,5762.1
627.352,5589.4
627.516,5071.3
627.68,4677.6
627.844,4504.9
628.008,4313.5
628.172,4606.3
628.337,5414.8
628.501,6278.7
628.665,5728.6
628.829,4696.8
628.993,4332.7
629.157,4296.9
629.321,4031.8
629.485,3801.0
629.649,3670.8
629.813,3556.1
629.977,3431.2
630.141,3388.5
630.305,3401.7
630.469,3324.8
630.633,3165.0
630.797,3029.8
630.96,2890.8
631.124,2713.8
631.288,2566.3
631.452,2536.1
631.616,2493.5
631.78,2464.9
631.944,2453.8
632.108,2443.3
632.272,2403.0
632.435,2408.5
632.599,2410.8
632.763,2385.5
632.927,2375.9
633.091,2380.8
633.254,2375.8
633.418,2367.9
633.582,2352.3
633.746,2338.9
633.91,2357.0
634.073,2346.9
634.237,2349.8
634.401,2329.2
634.564,2321.8
634.728,2322.4
634.892,2327.1
635.056,2322.7
635.219,2305.2
635.383,2309.4
635.547,2314.5
635.71,2300.1
635.874,2311.0
636.038,2286.3
636.201,2299.9
636.365,2293.3
636.528,2282.3
636.692,2288.4
636.856,2286.3
637.019,2290.5
637.183,2265.1
637.346,2272.9
637.51,2275.7
637.673,2286.9
637.837,2269.4
638.0,2248.4
638.164,2259.3
638.327,2263.1
638.491,2248.4
638.654,2270.0
638.818,2251.7
638.981,2246.0
639.145,2246.4
639.308,2238.3
639.472,2228.0
639.635,2236.5
639.799,2239.7
639.962,2234.7
640.125,2249.3
640.289,2256.4
640.452,2230.7
640.616,2242.9
640.779,2239.8
640.942,2238.6
641.106,2231.7
641.269,2225.6
641.432,2241.3
641.596,2241.5
641.759,2233.3
641.922,2246.7
642.085,2218.0
642.249,2232.0
642.412,2223.1
642.575,2224.7
642.738,2252.8
642.902,2230.4
643.065,2241.7
643.228,2223.8
643.391,2209.2
643.555,2232.4
643.718,2214.5
643.881,2238.4
644.044,2228.0
644.207,2249.3
644.37,2240.3
644.534,2214.8
644.697,2215.3
644.86,2224.2
645.023,2224.5
645.186,2234.7
645.349,2236.1
645.512,2231.3
645.675,2232.5
645.838,2216.3
646.001,2232.9
646.164,2230.4
646.327,2237.6
646.49,2223.0
646.653,2235.0
646.816,2227.3
646.979,2231.9
647.142,2239.9
647.305,2240.3
647.468,2233.4
647.631,2221.6
647.794,2240.2
647.957,2243.7
648.12,2247.2
648.283,2236.5
648.446,2253.4
648.609,2247.0
648.772,2252.0
648.935,2283.9
649.098,2291.8
649.26,2327.6
649.423,2352.1
649.586,2381.5
649.749,2414.5
649.912,2405.8
650.075,2414.5
650.237,2355.2
650.4,2367.3
650.563,2331.1
650.726,2280.1
650.888,2288.2
651.051,2258.0
651.214,2262.9
651.377,2259.0
651.539,2229.7
651.702,2232.4
651.865,2217.5
652.027,2221.3
652.19,2221.4
652.353,2216.5
652.515,2217.1
652.678,2210.5
652.841,2206.5
653.003,2204.1
653.166,2210.8
653.329,2190.4
653.491,2190.5
653.654,2195.1
653.816,2189.1
653.979,2202.7
654.142,2205.1
654.304,2177.0
654.467,2173.3
654.629,2173.1
654.792,2162.8
654.954,2172.9
655.117,2153.0
655.279,2165.5
655.442,2163.9
655.604,2169.6
655.767,2159.5
655.929,2145.4
656.091,2151.8
656.254,2155.0
656.416,2154.5
656.579,2145.6
656.741,2148.0
656.904,2138.8
657.066,2154.6
657.228,2129.5
657.391,2148.4
657.553,2137.0
657.715,2130.8
657.878,2130.9
658.04,2124.4
658.202,2133.3
658.365,2135.8
658.527,2126.3
658.689,2123.5
658.851,2131.9
659.014,2115.3
659.176,2128.1
659.338,2118.5
659.5,2128.9
659.663,2127.0
659.825,2125.5
659.987,2118.4
660.149,2135.0
660.311,2115.4
660.474,2114.4
660.636,2110.1
660.798,2109.2
660.96,2108.6
661.041,2122.3