File: spectra/VLFR_02-HDPE_bio_Raman_dfe079b5.csv
nm,Intensity
528.65,1856.1
528.819,1856.35
528.987,1855.65
529.155,1854.95
529.324,1857.1
529.492,1856.15
529.66,1856.4
529.829,1857.1
529.997,1855.9
530.165,1857.45
530.334,1855.45
530.502,1857.5
530.67,1856.65
530.839,1856.6
531.007,1856.95
531.175,1857.7
531.344,1858.0
531.512,1860.7
531.68,1872.85
531.848,2078.2
532.017,2716.7
532.185,2507.4
532.353,1931.3
532.521,1859.0
532.69,1858.65
532.858,1856.6
533.026,1858.0
533.194,1858.15
533.363,1859.05
533.531,1874.55
533.699,1979.05
533.867,2173.35
534.036,2293.4
534.204,2345.6
534.372,2326.1
534.54,2354.45
534.708,2343.3
534.877,2349.95
535.045,2359.8
535.213,2340.2
535.381,2332.1
535.549,2335.55
535.717,2335.15
535.886,2318.35
536.054,2310.3
536.222,2298.8
536.39,2306.85
536.558,2299.15
536.726,2307.9
536.894,2310.7
537.062,2297.4
537.231,2303.0
537.399,2315.0
537.567,2330.25
537.735,2326.1
537.903,2315.7
538.071,2312.55
538.239,2318.55
538.407,2321.05
538.575,2316.75
538.743,2313.15
538.911,2328.5
539.079,2331.0
539.247,2331.35
539.415,2316.8
539.583,2324.3
539.751,2304.85
539.919,2315.2
540.087,2335.15
540.255,2323.25
540.423,2325.95
540.591,2325.4
540.759,2320.0
540.927,2320.65
541.095,2340.55
541.263,2338.65
541.431,2319.6
541.599,2325.55
541.767,2346.75
541.935,2335.15
542.103,2348.45
542.271,2346.95
542.439,2341.4
542.607,2353.45
542.775,2357.8
542.943,2361.05
543.111,2347.45
543.279,2354.8
543.446,2358.05
543.614,2365.0
543.782,2368.9
543.95,2369.75
544.118,2372.6
544.286,2367.9
544.454,2362.55
544.622,2372.9
544.789,2365.4
544.957,2379.85
545.125,2380.55
545.293,2370.55
545.461,2362.8
545.629,2372.15
545.796,2393.95
545.964,2389.85
546.132,2388.15
546.3,2381.85
546.468,2406.3
546.635,2394.95
546.803,2392.8
546.971,2400.85
547.139,2422.1
547.306,2409.95
547.474,2412.75
547.642,2402.75
547.81,2419.05
547.977,2426.9
548.145,2420.7
548.313,2440.15
548.481,2433.2
548.648,2415.8
548.816,2421.8
548.984,2444.55
549.151,2424.45
549.319,2433.5
549.487,2423.7
549.655,2425.7
549.822,2431.65
549.99,2444.25
550.158,2441.4
550.325,2456.9
550.493,2450.75
550.66,2452.4
550.828,2469.7
550.996,2468.2
551.163,2480.5
551.331,2467.45
551.499,2477.5
551.666,2492.8
551.834,2493.9
552.001,2485.75
552.169,2496.25
552.337,2505.15
552.504,2517.0
552.672,2476.2
552.839,2487.05
553.007,2504.3
553.174,2512.95
553.342,2524.2
553.509,2521.9
553.677,2519.25
553.844,2507.45
554.012,2542.0
554.179,2537.15
554.347,2528.8
554.514,2518.85
554.682,2540.1
554.849,2543.0
555.017,2546.1
555.184,2556.0
555.352,2548.0
555.519,2547.1
555.687,2542.05
555.854,2544.4
556.022,2551.95
556.189,2574.25
556.357,2563.7
556.524,2565.65
556.691,2554.85
556.859,2581.45
557.026,2578.35
557.194,2583.95
557.361,2581.65
557.528,2579.25
557.696,2585.9
557.863,2575.5
558.031,2620.0
558.198,2620.75
558.365,2602.55
558.533,2611.65
558.7,2615.7
558.867,2627.5
559.035,2616.85
559.202,2622.4
559.369,2618.05
559.537,2632.7
559.704,2627.0
559.871,2626.35
560.038,2629.05
560.206,2657.9
560.373,2625.1
560.54,2661.6
560.708,2661.85
560.875,2666.35
561.042,2668.9
561.209,2684.6
561.377,2689.95
561.544,2689.7
561.711,2685.4
561.878,2687.4
562.045,2708.3
562.213,2682.6
562.38,2710.3
562.547,2719.25
562.714,2716.95
562.881,2702.95
563.049,2721.8
563.216,2742.05
563.383,2728.2
563.55,2748.45
563.717,2832.85
563.884,3000.5
564.052,3097.7
564.219,2978.7
564.386,2815.65
564.553,2828.9
564.72,2832.1
564.887,2811.95
565.054,2824.55
565.221,2810.25
565.388,2820.0
565.556,2823.3
565.723,2912.9
565.89,3028.55
566.057,3250.7
566.224,3320.4
566.391,3041.5
566.558,2913.6
566.725,2861.7
566.892,2833.05
567.059,2846.8
567.226,2881.6
567.393,2901.7
567.56,2871.85
567.727,2889.1
567.894,2872.0
568.061,2856.75
568.228,2854.65
568.395,2904.65
568.562,2898.4
568.729,2910.6
568.896,2899.6
569.063,2884.3
569.23,2937.15
569.396,2932.35
569.563,2920.9
569.73,2961.55
569.897,2962.85
570.064,2985.1
570.231,2961.9
570.398,3002.65
570.565,3028.15
570.732,3013.05
570.898,3045.1
571.065,3059.45
571.232,3173.4
571.399,3503.1
571.566,3664.15
571.733,3382.5
571.9,3222.55
572.066,3154.0
572.233,3132.25
572.4,3122.85
572.567,3122.0
572.734,3159.95
572.9,3127.15
573.067,3124.75
573.234,3108.5
573.401,3159.7
573.567,3199.45
573.734,3223.15
573.901,3208.8
574.068,3198.0
574.234,3209.05
574.401,3262.3
574.568,3235.05
574.734,3258.6
574.901,3251.6
575.068,3302.75
575.235,3402.6
575.401,3510.4
575.568,3661.15
575.735,3586.85
575.901,3536.9
576.068,3670.7
576.235,3860.15
576.401,3890.75
576.568,3777.1
576.734,3787.1
576.901,3784.9
577.068,3790.1
577.234,3723.1
577.401,3663.25
577.567,3654.0
577.734,3634.65
577.901,3621.1
578.067,3654.95
578.234,3632.95
578.4,3649.75
578.567,3693.15
578.733,3700.1
578.9,3746.35
579.066,3770.05
579.233,3744.85
579.399,3799.3
579.566,3814.5
579.732,3832.7
579.899,3850.35
580.065,3877.35
580.232,3924.5
580.398,3955.65
580.565,3912.4
580.731,3965.9
580.898,4034.5
581.064,4063.6
581.231,4063.65
581.397,4032.0
581.563,4072.8
581.73,4087.95
581.896,4133.15
582.063,4081.9
582.229,4128.65
582.395,4123.35
582.562,4161.9
582.728,4115.6
582.895,4191.75
583.061,4123.85
583.227,4160.55
583.394,4190.8
583.56,4221.25
583.726,4142.5
583.893,4171.8
584.059,4179.35
584.225,4222.4
584.391,4228.1
584.558,4291.35
584.724,4254.9
584.89,4271.6
585.057,4226.05
585.223,4205.65
585.389,4275.2
585.555,4257.0
585.722,4234.85
585.888,4204.85
586.054,4256.7
586.22,4311.7
586.386,4253.8
586.553,4227.9
586.719,4273.6
586.885,4288.85
587.051,4282.6
587.217,4317.45
587.384,4305.05
587.55,4361.2
587.716,4315.35
587.882,4354.0
588.048,4342.75
588.214,4400.25
588.38,4300.15
588.546,4327.65
588.713,4382.45
588.879,4346.0
589.045,4347.25
589.211,4356.1
589.377,4383.9
589.543,4345.35
589.709,4370.2
589.875,4335.0
590.041,4338.05
590.207,4344.15
590.373,4459.0
590.539,4397.1
590.705,4415.75
590.871,4411.85
591.037,4420.05
591.203,4390.0
591.369,4417.85
591.535,4436.5
591.701,4433.25
591.867,4542.3
592.033,4453.4
592.199,4456.55
592.365,4441.0
592.531,4538.3
592.697,4497.15
592.863,4466.2
593.029,4550.6
593.195,4431.35
593.361,4490.2
593.526,4484.45
593.692,4442.35
593.858,4503.85
594.024,4537.7
594.19,4507.3
594.356,4464.9
594.522,4543.2
594.687,4581.75
594.853,4559.6
595.019,4577.15
595.185,4540.5
595.351,4593.1
595.516,4564.95
595.682,4632.55
595.848,4674.75
596.014,4604.15
596.18,4662.05
596.345,4659.55
596.511,4636.05
596.677,4668.4
596.843,4715.8
597.008,4652.0
597.174,4664.0
597.34,4733.95
597.505,4743.95
597.671,4660.0
597.837,4734.2
598.002,4715.85
598.168,4698.75
598.334,4687.35
598.499,4805.2
598.665,4736.2
598.831,4751.65
598.996,4677.1
599.162,4766.3
599.328,4751.85
599.493,4781.95
599.659,4794.15
599.824,4729.65
599.99,4759.8
600.156,4773.35
600.321,4742.7
600.487,4810.05
600.652,4860.5
600.818,4763.45
600.983,4717.0
601.149,4779.85
601.314,4681.5
601.48,4827.85
601.645,4815.0
601.811,4749.55
601.976,4775.7
602.142,4764.15
602.307,4740.3
602.473,4760.9
602.638,4731.65
602.804,4739.5
602.969,4734.45
603.135,4696.4
603.3,4695.85
603.466,4755.45
603.631,4707.75
603.796,4593.85
603.962,4676.4
604.127,4595.0
604.293,4641.05
604.458,4612.0
604.623,4633.2
604.789,4578.75
604.954,4602.5
605.119,4552.25
605.285,4541.95
605.45,4567.6
605.615,4532.8
605.781,4532.5
605.946,4458.9
606.111,4468.1
606.277,4547.9
606.442,4481.2
606.607,4419.6
606.772,4463.8
606.938,4425.95
607.103,4443.3
607.268,4380.35
607.433,4431.55
607.599,4360.85
607.764,4401.0
607.929,4430.25
608.094,4402.05
608.259,4375.45
608.425,4294.9
608.59,4338.75
608.755,4381.7
608.92,4336.3
609.085,4265.6
609.25,4322.8
609.415,4305.5
609.581,4320.9
609.746,4248.8
609.911,4279.0
610.076,4268.75
610.241,4302.15
610.406,4261.7
610.571,4239.55
610.736,4224.0
610.901,4269.6
611.066,4266.0
611.231,4257.65
611.396,4188.9
611.561,4162.8
611.727,4231.35
611.892,4169.8
612.057,4219.15
612.222,4208.3
612.386,4109.6
612.551,4129.4
612.716,4170.1
612.881,4209.55
613.046,4134.9
613.211,4076.8
613.376,4134.2
613.541,4108.7
613.706,4102.8
613.871,4154.9
614.036,4122.35
614.201,4130.8
614.366,4059.0
614.531,4070.3
614.695,4055.25
614.86,4013.35
615.025,4070.45
615.19,4043.45
615.355,4085.7
615.52,4051.25
615.684,4040.3
615.849,4081.1
616.014,4022.4
616.179,4047.2
616.344,4031.15
616.508,3988.05
616.673,4016.75
616.838,4033.45
617.003,4026.45
617.168,4061.2
617.332,4022.95
617.497,3971.0
617.662,4009.3
617.826,4027.15
617.991,4017.95
618.156,3987.6
618.32,4030.9
618.485,4012.2
618.65,4019.9
618.814,3961.7
618.979,4008.1
619.144,4019.05
619.308,3962.3
619.473,3953.15
619.638,4019.9
619.802,4020.9
619.967,4057.0
620.131,3993.35
620.296,3987.1
620.461,4053.6
620.625,3962.1
620.79,4009.8
620.954,3965.85
621.119,3963.75
621.283,4031.15
621.448,4021.15
621.612,4039.65
621.777,4090.05
621.941,3994.4
622.106,4066.3
622.27,4120.95
622.435,4143.15
622.599,4133.0
622.764,3999.5
622.928,3986.35
623.093,4003.45
623.257,3976.35
623.422,3933.4
623.586,3954.9
623.75,4013.5
623.915,3939.5
624.079,3901.05
624.244,3936.25
624.408,3975.9
624.572,3998.5
624.737,3971.7
624.901,3923.35
625.065,3926.8
625.23,3908.05
625.394,3974.25
625.558,3940.95
625.723,3966.95
625.887,3929.1
626.051,4022.45
626.215,4066.6
626.38,4166.85
626.544,4371.25
626.708,4805.2
626.872,5389.05
627.037,6090.4
627.201,6527.8
627.365,6231.9
627.529,5934.6
627.693,5637.65
627.858,5431.8
628.022,5318.55
628.186,5637.3
628.35,6093.05
628.514,6717.15
628.678,6423.55
628.843,5674.25
629.007,5412.1
629.171,5371.9
629.335,5258.95
629.499,4951.45
629.663,4875.1
629.827,4854.15
629.991,4720.05
630.155,4692.55
630.319,4721.35
630.483,4582.55
630.647,4600.7
630.812,4357.75
630.976,4269.2
631.14,4135.4
631.304,4080.5
631.468,4068.85
631.632,3913.85
631.796,3947.8
631.959,3975.4
632.123,3954.15
632.287,3893.1
632.451,3964.8
632.615,3939.95
632.779,3908.5
632.943,3920.95
633.107,3960.75
633.271,3885.65
633.435,3908.9
633.599,3921.45
633.763,3902.95
633.926,3859.35
634.09,3902.05
634.254,3901.6
634.418,3859.1
634.582,3871.65
634.746,3840.55
634.909,3861.5
635.073,3806.95
635.237,3923.9
635.401,3851.7
635.564,3750.75
635.728,3812.6
635.892,3845.25
636.056,3816.25
636.219,3839.15
636.383,3830.8
636.547,3823.35
636.711,3835.8
636.874,3776.45
637.038,3760.4
637.202,3794.9
637.365,3812.7
637.529,3755.45
637.693,3809.45
637.856,3787.5
638.02,3770.4
638.184,3754.75
638.347,3823.2
638.511,3747.25
638.674,3741.85
638.838,3774.45
639.002,3729.95
639.165,3749.7
639.329,3754.15
639.492,3673.2
639.656,3680.25
639.819,3739.35
639.983,3722.95
640.146,3679.45
640.31,3782.05
640.473,3653.4
640.637,3661.75
640.8,3698.0
640.964,3694.05
641.127,3644.85
641.291,3747.8
641.454,3714.9
641.618,3623.0
641.781,3684.05
641.944,3590.9
642.108,3619.8
642.271,3700.95
642.435,3628.65
642.598,3662.0
642.761,3705.75
642.925,3637.65
643.088,3582.85
643.251,3625.0
643.415,3613.1
643.578,3624.6
643.741,3674.2
643.905,3630.1
644.068,3620.9
644.231,3650.0
644.394,3551.15
644.558,3574.75
644.721,3567.5
644.884,3584.6
645.047,3631.35
645.211,3604.2
645.374,3557.15
645.537,3552.35
645.7,3532.7
645.863,3634.95
646.027,3573.6
646.19,3512.5
646.353,3558.4
646.516,3514.65
646.679,3537.15
646.842,3510.85
647.005,3538.05
647.169,3522.7
647.332,3551.8
647.495,3555.35
647.658,3465.9
647.821,3477.55
647.984,3465.05
648.147,3489.7
648.31,3481.45
648.473,3476.05
648.636,3435.4
648.799,3469.8
648.962,3473.85
649.125,3446.9
649.288,3463.95
649.451,3438.0
649.614,3447.55
649.777,3453.15
649.94,3438.05
650.103,3395.0
650.266,3447.45
650.429,3420.15
650.592,3399.15
650.755,3385.45
650.918,3387.05
651.08,3373.75
651.243,3394.1
651.406,3417.4
651.569,3337.95
651.732,3350.9
651.895,3345.55
652.058,3373.65
652.22,3363.25
652.383,3358.15
652.546,3346.95
652.709,3339.85
652.872,3310.1
653.034,3334.5
653.197,3288.5
653.36,3293.2
653.523,3323.0
653.685,3266.15
653.848,3263.75
654.011,3259.25
654.173,3260.3
654.336,3230.5
654.499,3277.9
654.662,3229.7
654.824,3244.95
654.987,3211.0
655.149,3223.6
655.312,3195.15
655.475,3218.45
655.637,3182.75
655.8,3222.0
655.963,3193.25
656.125,3183.5
656.288,3142.55
656.45,3197.85
656.613,3167.75
656.775,3156.75
656.938,3165.5
657.1,3105.3
657.263,3140.55
657.425,3136.25
657.588,3141.45
657.75,3089.65
657.913,3110.85
658.075,3129.65
658.238,3074.8
658.4,3036.95
658.563,3079.05
658.725,3104.8
658.888,3046.75
659.05,3002.1
659.212,3010.3
659.375,2987.65
659.537,3013.75
659.7,3004.0
659.862,3002.6
660.024,2978.15
660.187,2982.0
660.349,2958.25
660.511,2995.75
660.674,3032.55
660.836,3010.6
660.998,2906.85
661.079,2927.15