File: spectra/VLFR_08-PLA_nobio_Raman_ab5f37ae.csv
cm-1,Intensity
-123.878,1854.65
-117.855,1857.3
-111.836,1856.1
-105.821,1856.4
-99.8104,1856.55
-93.8036,1856.05
-87.8007,1857.0
-81.8019,1856.8
-75.807,1855.4
-69.8161,1855.4
-63.8293,1855.55
-57.8464,1857.7
-51.8675,1855.7
-45.8926,1856.45
-39.9216,1857.3
-33.9547,1857.5
-27.9917,1859.7
-22.0326,1860.5
-16.0776,1873.55
-10.1265,2111.85
-4.17932,2827.15
1.76388,2823.65
7.70313,1944.5
13.6384,1858.45
19.5698,1858.25
25.4972,1857.6
31.4207,1857.05
37.3403,1856.8
43.256,1859.25
49.1677,1884.95
55.0755,2018.1
60.9794,2257.0
66.8794,2395.7
72.7754,2441.05
78.6676,2405.65
84.5559,2387.15
90.4402,2366.7
96.3207,2359.75
102.197,2343.25
108.07,2349.6
113.939,2325.95
119.804,2324.5
125.665,2315.3
131.522,2296.9
137.375,2292.2
143.225,2295.35
149.07,2307.25
154.912,2310.8
160.75,2299.8
166.584,2299.3
172.414,2299.6
178.241,2296.5
184.063,2303.2
189.882,2312.1
195.697,2326.45
201.508,2330.5
207.315,2317.05
213.119,2289.9
218.918,2283.7
224.714,2296.6
230.506,2296.05
236.294,2306.15
242.078,2318.7
247.859,2335.0
253.636,2310.25
259.409,2315.65
265.178,2304.25
270.943,2314.15
276.705,2320.8
282.463,2336.1
288.217,2346.85
293.967,2351.4
299.713,2360.45
305.456,2347.2
311.195,2354.4
316.93,2345.3
322.662,2354.1
328.389,2350.65
334.113,2329.2
339.834,2346.2
345.55,2345.05
351.263,2343.9
356.972,2343.2
362.677,2366.7
368.379,2370.15
374.077,2371.55
379.771,2387.75
385.461,2384.7
391.148,2422.6
396.831,2417.85
402.51,2443.95
408.186,2438.15
413.858,2418.5
419.526,2418.25
425.19,2378.6
430.851,2378.5
436.508,2383.8
442.162,2390.95
447.811,2378.85
453.458,2363.65
459.1,2367.15
464.739,2371.25
470.374,2379.6
476.005,2382.2
481.633,2382.7
487.257,2386.35
492.878,2373.45
498.494,2390.5
504.107,2404.5
509.717,2397.6
515.323,2394.15
520.925,2408.75
526.524,2399.5
532.119,2415.7
537.71,2407.95
543.298,2408.95
548.882,2426.6
554.462,2425.65
560.039,2424.15
565.613,2420.8
571.182,2423.35
576.748,2442.25
582.311,2442.35
587.87,2409.1
593.425,2418.5
598.977,2457.55
604.525,2436.9
610.069,2431.2
615.61,2429.35
621.148,2458.6
626.682,2464.95
632.212,2464.55
637.739,2450.65
643.262,2463.55
648.781,2485.8
654.297,2469.75
659.81,2504.85
665.319,2501.3
670.824,2493.4
676.326,2478.3
681.824,2492.5
687.319,2491.45
692.81,2520.85
698.298,2500.2
703.782,2509.55
709.262,2486.75
714.739,2506.3
720.213,2492.95
725.683,2505.15
731.15,2515.65
736.613,2503.55
742.072,2524.4
747.528,2548.8
752.981,2546.4
758.43,2534.35
763.875,2547.15
769.317,2529.4
774.756,2520.85
780.191,2523.75
785.623,2530.95
791.051,2517.75
796.475,2525.45
801.897,2544.3
807.314,2533.85
812.729,2528.85
818.139,2548.05
823.547,2538.95
828.951,2562.9
834.351,2556.15
839.748,2555.4
845.142,2569.6
850.532,2605.65
855.918,2654.7
861.302,2701.35
866.681,2796.55
872.058,2866.35
877.431,2846.45
882.8,2738.4
888.166,2670.8
893.529,2614.35
898.888,2627.8
904.244,2638.9
909.596,2618.4
914.945,2618.95
920.291,2602.5
925.633,2614.35
930.972,2603.0
936.308,2624.75
941.64,2620.75
946.968,2602.6
952.294,2621.1
957.615,2631.35
962.934,2618.6
968.249,2623.7
973.561,2622.2
978.869,2629.6
984.174,2633.15
989.476,2651.1
994.774,2623.45
1000.07,2630.4
1005.36,2640.55
1010.65,2650.1
1015.93,2672.05
1021.22,2688.7
1026.49,2676.3
1031.77,2715.85
1037.04,2712.7
1042.31,2728.95
1047.57,2735.3
1052.83,2715.6
1058.09,2700.65
1063.35,2711.6
1068.6,2703.8
1073.85,2705.65
1079.09,2701.55
1084.33,2724.95
1089.57,2741.05
1094.81,2760.35
1100.04,2759.05
1105.27,2744.85
1110.49,2752.05
1115.71,2797.05
1120.93,2810.6
1126.15,2817.6
1131.36,2801.75
1136.57,2780.0
1141.77,2753.6
1146.98,2736.35
1152.18,2733.4
1157.37,2728.7
1162.56,2712.6
1167.75,2725.0
1172.94,2744.3
1178.12,2768.4
1183.3,2738.7
1188.48,2767.45
1193.65,2744.6
1198.82,2760.5
1203.99,2784.25
1209.15,2754.3
1214.31,2762.95
1219.46,2735.3
1224.62,2781.9
1229.77,2750.45
1234.92,2764.55
1240.06,2774.15
1245.2,2788.7
1250.34,2773.0
1255.47,2766.2
1260.6,2787.15
1265.73,2782.8
1270.85,2782.3
1275.97,2787.0
1281.09,2767.9
1286.21,2801.6
1291.32,2817.5
1296.43,2859.9
1301.53,2851.25
1306.63,2871.6
1311.73,2857.45
1316.83,2825.5
1321.92,2846.55
1327.01,2832.75
1332.1,2811.7
1337.18,2826.25
1342.26,2846.2
1347.34,2860.25
1352.41,2857.55
1357.48,2825.05
1362.55,2863.65
1367.61,2853.25
1372.67,2836.6
1377.73,2844.2
1382.78,2878.65
1387.84,2874.25
1392.88,2840.4
1397.93,2846.85
1402.97,2840.4
1408.01,2838.05
1413.05,2846.9
1418.08,2810.85
1423.11,2850.6
1428.14,2875.15
1433.16,2886.4
1438.18,2892.55
1443.2,2971.85
1448.21,2992.25
1453.22,3012.5
1458.23,2997.3
1463.23,2973.6
1468.23,2942.5
1473.23,2920.35
1478.23,2896.85
1483.22,2853.75
1488.21,2877.3
1493.2,2900.05
1498.18,2887.05
1503.16,2865.55
1508.14,2884.9
1513.11,2906.1
1518.08,2838.65
1523.05,2901.55
1528.01,2890.0
1532.97,2881.45
1537.93,2888.6
1542.89,2913.55
1547.84,2902.0
1552.79,2896.55
1557.73,2909.5
1562.68,2905.15
1567.62,2923.3
1572.56,2905.55
1577.49,2922.35
1582.42,2929.65
1587.35,2943.55
1592.27,2969.35
1597.19,2891.4
1602.11,2922.35
1607.03,2906.05
1611.94,2931.5
1616.85,2946.2
1621.76,2936.95
1626.66,2934.25
1631.56,2951.2
1636.46,2928.6
1641.36,2897.1
1646.25,2946.9
1651.14,3011.05
1656.02,2925.9
1660.9,2963.45
1665.78,2933.0
1670.66,2969.7
1675.54,2956.9
1680.41,2949.15
1685.27,2938.65
1690.14,2954.1
1695.0,2979.65
1699.86,2940.8
1704.71,2968.15
1709.57,2968.7
1714.42,2970.35
1719.26,2958.3
1724.11,2950.45
1728.95,3010.5
1733.79,2976.25
1738.62,3028.6
1743.46,2990.4
1748.28,3051.2
1753.11,3085.85
1757.93,3088.85
1762.75,3122.0
1767.57,3172.15
1772.39,3159.4
1777.2,3132.15
1782.01,3089.0
1786.81,3061.55
1791.62,3052.45
1796.41,3029.05
1801.21,2989.85
1806.01,3024.4
1810.8,3004.05
1815.59,2990.05
1820.37,3010.6
1825.15,3056.1
1829.93,2991.3
1834.71,3020.05
1839.48,3010.7
1844.25,3027.1
1849.02,3031.8
1853.79,3000.55
1858.55,3015.75
1863.31,3053.65
1868.06,3038.6
1872.82,3050.8
1877.57,3049.85
1882.31,3048.75
1887.06,3052.65
1891.8,3014.25
1896.54,3068.2
1901.28,3069.8
1906.01,3024.0
1910.74,3089.45
1915.47,3064.35
1920.19,3044.25
1924.91,3053.25
1929.63,3087.3
1934.35,3050.75
1939.06,3070.4
1943.77,3062.05
1948.48,3057.2
1953.19,3078.2
1957.89,3031.2
1962.59,3096.9
1967.28,3085.75
1971.98,3052.55
1976.67,3073.5
1981.35,3074.8
1986.04,3102.8
1990.72,3086.15
1995.4,3113.9
2000.08,3133.3
2004.75,3070.8
2009.42,3092.35
2014.09,3083.75
2018.75,3091.2
2023.42,3102.85
2028.08,3112.8
2032.73,3124.15
2037.39,3131.4
2042.04,3117.45
2046.69,3076.65
2051.33,3172.05
2055.97,3158.3
2060.61,3141.55
2065.25,3115.6
2069.88,3156.45
2074.52,3134.9
2079.15,3107.55
2083.77,3139.05
2088.39,3159.75
2093.01,3149.1
2097.63,3136.2
2102.25,3149.95
2106.86,3129.6
2111.47,3173.9
2116.08,3164.7
2120.68,3150.15
2125.28,3174.4
2129.88,3157.95
2134.47,3162.65
2139.07,3199.0
2143.66,3177.6
2148.24,3183.2
2152.83,3162.85
2157.41,3180.8
2161.99,3187.35
2166.57,3149.35
2171.14,3167.4
2175.71,3194.45
2180.28,3173.55
2184.84,3192.8
2189.41,3238.9
2193.97,3214.45
2198.52,3148.5
2203.08,3196.75
2207.63,3159.35
2212.18,3190.25
2216.73,3194.15
2221.27,3217.1
2225.81,3180.45
2230.35,3178.85
2234.89,3193.45
2239.42,3203.2
2243.95,3229.9
2248.48,3204.85
2253.0,3190.3
2257.52,3204.65
2262.04,3200.95
2266.56,3215.25
2271.07,3221.25
2275.58,3216.05
2280.09,3197.7
2284.6,3193.25
2289.1,3233.85
2293.6,3218.3
2298.1,3186.75
2302.6,3228.05
2307.09,3215.7
2311.58,3191.4
2316.07,3224.2
2320.55,3259.5
2325.03,3250.95
2329.51,3225.7
2333.99,3207.05
2338.46,3265.25
2342.93,3237.1
2347.4,3196.55
2351.87,3255.8
2356.33,3254.5
2360.79,3212.25
2365.25,3258.6
2369.71,3314.8
2374.16,3230.9
2378.61,3217.75
2383.06,3278.95
2387.5,3215.8
2391.94,3236.9
2396.38,3274.85
2400.82,3288.55
2405.26,3304.35
2409.69,3245.5
2414.12,3249.95
2418.54,3260.15
2422.97,3279.5
2427.39,3253.5
2431.81,3313.15
2436.22,3250.6
2440.64,3287.3
2445.05,3265.65
2449.46,3297.45
2453.86,3250.45
2458.27,3266.25
2462.67,3303.55
2467.06,3246.45
2471.46,3248.2
2475.85,3290.15
2480.24,3309.65
2484.63,3309.15
2489.02,3217.1
2493.4,3272.95
2497.78,3303.4
2502.16,3261.8
2506.53,3266.4
2510.9,3272.9
2515.27,3319.8
2519.64,3315.05
2524.0,3316.2
2528.37,3305.5
2532.73,3312.25
2537.08,3290.15
2541.44,3299.25
2545.79,3341.55
2550.14,3264.65
2554.48,3337.7
2558.83,3309.7
2563.17,3273.5
2567.51,3334.8
2571.85,3322.5
2576.18,3331.6
2580.51,3313.35
2584.84,3277.9
2589.17,3264.25
2593.49,3311.95
2597.81,3321.95
2602.13,3359.0
2606.45,3301.1
2610.76,3354.25
2615.07,3313.2
2619.38,3262.55
2623.69,3331.05
2627.99,3352.65
2632.29,3337.3
2636.59,3307.2
2640.89,3351.2
2645.18,3310.1
2649.47,3317.75
2653.76,3410.9
2658.05,3380.4
2662.33,3373.9
2666.61,3329.15
2670.89,3345.05
2675.17,3337.9
2679.44,3330.3
2683.71,3376.25
2687.98,3291.9
2692.25,3405.1
2696.51,3376.75
2700.77,3312.6
2705.03,3338.2
2709.29,3319.6
2713.54,3369.95
2717.79,3351.9
2722.04,3347.0
2726.29,3342.05
2730.53,3408.15
2734.77,3383.95
2739.01,3450.4
2743.25,3408.95
2747.48,3418.8
2751.71,3354.0
2755.94,3377.75
2760.17,3401.4
2764.39,3392.45
2768.61,3362.6
2772.83,3330.45
2777.05,3380.3
2781.27,3411.6
2785.48,3431.3
2789.69,3410.4
2793.89,3379.15
2798.1,3398.05
2802.3,3326.8
2806.5,3338.6
2810.7,3392.15
2814.89,3356.7
2819.09,3383.1
2823.28,3415.7
2827.46,3416.5
2831.65,3352.05
2835.83,3367.9
2840.01,3418.05
2844.19,3348.8
2848.37,3357.95
2852.54,3425.0
2856.71,3456.75
2860.88,3390.25
2865.05,3401.6
2869.21,3414.95
2873.37,3558.35
2877.53,3507.8
2881.69,3483.65
2885.84,3590.0
2889.99,3554.1
2894.14,3629.9
2898.29,3511.05
2902.43,3514.0
2906.58,3539.8
2910.72,3567.35
2914.85,3521.6
2918.99,3562.45
2923.12,3565.7
2927.25,3600.2
2931.38,3693.5
2935.5,3871.25
2939.63,4161.3
2943.75,4327.2
2947.87,4394.9
2951.98,4201.85
2956.1,4021.3
2960.21,3902.5
2964.32,3747.75
2968.42,3639.2
2972.53,3744.3
2976.63,3624.0
2980.73,3687.25
2984.83,3644.75
2988.92,3688.1
2993.01,3800.4
2997.1,3823.2
3001.19,3858.35
3005.28,3838.85
3009.36,3793.35
3013.44,3776.0
3017.52,3681.5
3021.6,3565.75
3025.67,3573.3
3029.74,3579.95
3033.81,3456.1
3037.88,3478.85
3041.94,3414.05
3046.01,3481.35
3050.07,3424.05
3054.12,3423.6
3058.18,3472.6
3062.23,3403.8
3066.28,3351.5
3070.33,3426.7
3074.38,3405.5
3078.42,3468.6
3082.46,3460.65
3086.5,3375.75
3090.54,3468.95
3094.57,3398.9
3098.6,3389.4
3102.63,3454.65
3106.66,3398.6
3110.69,3431.4
3114.71,3395.85
3118.73,3415.6
3122.75,3488.75
3126.77,3421.25
3130.78,3444.15
3134.79,3427.95
3138.8,3361.1
3142.81,3372.1
3146.81,3440.7
3150.82,3475.05
3154.82,3359.75
3158.81,3414.55
3162.81,3410.0
3166.8,3388.65
3170.79,3388.3
3174.78,3447.4
3178.77,3439.2
3182.75,3365.7
3186.74,3418.9
3190.72,3390.0
3194.69,3357.75
3198.67,3404.85
3202.64,3375.55
3206.61,3352.3
3210.58,3393.3
3214.55,3423.1
3218.51,3422.25
3222.47,3371.65
3226.43,3424.1
3230.39,3400.55
3234.35,3424.5
3238.3,3432.2
3242.25,3330.15
3246.2,3314.3
3250.15,3436.55
3254.09,3386.95
3258.03,3434.1
3261.97,3384.25
3265.91,3374.4
3269.84,3362.6
3273.78,3350.05
3277.71,3312.2
3281.64,3452.0
3285.56,3381.95
3289.49,3426.6
3293.41,3403.8
3297.33,3326.6
3301.25,3417.95
3305.16,3349.65
3309.07,3291.25
3312.99,3402.6
3316.89,3335.75
3320.8,3382.25
3324.7,3410.4
3328.61,3401.0
3332.51,3327.2
3336.4,3357.8
3340.3,3351.85
3344.19,3374.7
3348.08,3243.7
3351.97,3349.25
3355.86,3368.15
3359.74,3364.8
3363.63,3378.5
3367.51,3301.75
3371.39,3277.05
3375.26,3338.9
3379.13,3398.55
3383.01,3338.9
3386.88,3375.6
3390.74,3322.15
3394.61,3248.55
3398.47,3272.25
3402.33,3409.8
3406.19,3333.8
3410.05,3277.65
3413.9,3300.4
3417.75,3327.0
3421.6,3300.7
3425.45,3305.9
3429.3,3236.15
3433.14,3298.95
3436.98,3297.6
3440.82,3259.05
3444.66,3266.15
3448.49,3376.85
3452.32,3340.8
3456.15,3334.45
3459.98,3261.3
3463.81,3266.05
3467.63,3244.5
3471.46,3243.95
3475.28,3284.75
3479.09,3259.45
3482.91,3320.4
3486.72,3160.25
3490.53,3263.4
3494.34,3167.6
3498.15,3217.65
3501.96,3198.5
3505.76,3177.05
3509.56,3241.85
3513.36,3240.2
3517.15,3190.95
3520.95,3202.4
3524.74,3282.05
3528.53,3167.75
3532.32,3215.5
3536.11,3159.2
3539.89,3218.65
3543.67,3175.1
3547.45,3136.3
3551.23,3268.9
3555.0,3182.65
3558.78,3191.85
3562.55,3176.65
3566.32,3173.8
3570.09,3276.45
3573.85,3169.4
3577.61,3120.15
3581.37,3174.55
3585.13,3150.8
3588.89,3150.9
3592.64,3219.75
3596.4,3260.2
3600.15,3167.25
3603.9,3141.65
3607.64,3199.35
3611.39,3079.15
3615.13,3149.6
3618.87,3167.3
3622.61,3115.1
3626.34,3080.35
3630.08,3157.05
3633.81,3182.9
3637.54,3136.65
3641.27,3119.75
3644.99,3057.3
3648.72,3098.45
3652.44,3088.15
3656.16,3056.55
3659.87,3094.95
3663.59,2979.2
3665.45,2980.75