File: spectra/VLFR_02-HDPE_bio_Raman_57e4c406.csv
nm,Intensity
526.508,830.4
526.645,830.9
526.782,829.4
526.919,830.8
527.055,829.4
527.192,830.3
527.329,828.6
527.465,829.2
527.602,830.0
527.739,830.5
527.875,830.7
528.012,830.0
528.149,829.6
528.285,829.4
528.422,830.1
528.558,830.4
528.695,830.0
528.832,827.7
528.968,829.9
529.105,829.6
529.241,830.3
529.378,829.8
529.514,830.1
529.651,829.9
529.787,830.6
529.924,828.6
530.061,829.8
530.197,829.1
530.334,829.8
530.47,828.6
530.606,830.1
530.743,828.7
530.879,830.5
531.016,830.3
531.152,830.0
531.289,829.0
531.425,830.2
531.562,829.8
531.698,829.7
531.834,831.1
531.971,837.1
532.107,912.5
532.244,943.2
532.38,857.9
532.516,831.6
532.653,829.1
532.789,830.7
532.925,829.8
533.062,830.5
533.198,829.0
533.334,830.3
533.471,831.7
533.607,831.2
533.743,833.0
533.879,849.7
534.016,877.5
534.152,885.3
534.288,883.7
534.424,881.2
534.561,876.6
534.697,876.4
534.833,873.0
534.969,872.1
535.106,870.8
535.242,865.6
535.378,864.2
535.514,860.8
535.65,859.2
535.786,858.4
535.923,856.2
536.059,855.8
536.195,852.4
536.331,854.2
536.467,853.9
536.603,850.2
536.739,852.1
536.876,850.3
537.012,849.4
537.148,850.2
537.284,852.8
537.42,851.0
537.556,850.4
537.692,848.1
537.828,848.3
537.964,849.2
538.1,847.6
538.236,849.2
538.372,849.2
538.508,848.8
538.644,848.5
538.78,848.3
538.916,845.0
539.052,846.1
539.188,846.0
539.324,843.7
539.46,844.6
539.596,845.5
539.732,842.9
539.868,846.0
540.004,840.9
540.14,842.1
540.275,842.2
540.411,841.6
540.547,843.3
540.683,842.5
540.819,843.8
540.955,841.9
541.091,844.5
541.227,841.9
541.362,841.2
541.498,842.3
541.634,843.1
541.77,842.1
541.906,841.5
542.041,842.4
542.177,843.1
542.313,843.0
542.449,841.4
542.585,841.9
542.72,843.3
542.856,842.2
542.992,843.9
543.128,841.7
543.263,844.1
543.399,841.4
543.535,842.9
543.67,840.7
543.806,841.9
543.942,843.4
544.078,842.8
544.213,841.7
544.349,839.5
544.485,842.7
544.62,843.2
544.756,838.4
544.892,840.2
545.027,840.8
545.163,843.6
545.298,842.5
545.434,841.3
545.57,841.9
545.705,841.8
545.841,841.5
545.976,842.0
546.112,842.7
546.248,839.5
546.383,841.9
546.519,841.2
546.654,841.3
546.79,841.9
546.925,841.4
547.061,840.7
547.196,840.5
547.332,841.3
547.467,842.3
547.603,841.3
547.738,840.6
547.874,841.3
548.009,841.7
548.145,842.9
548.28,839.8
548.416,840.9
548.551,840.2
548.686,839.8
548.822,841.3
548.957,842.0
549.093,839.6
549.228,840.9
549.363,841.2
549.499,841.0
549.634,841.4
549.77,841.4
549.905,841.5
550.04,840.3
550.176,842.6
550.311,842.4
550.446,839.2
550.582,841.7
550.717,840.3
550.852,838.6
550.988,841.9
551.123,841.5
551.258,840.6
551.394,842.9
551.529,840.4
551.664,838.9
551.799,839.8
551.935,841.4
552.07,841.7
552.205,840.9
552.34,841.4
552.476,842.2
552.611,841.4
552.746,841.7
552.881,839.5
553.016,843.4
553.152,843.1
553.287,843.6
553.422,842.0
553.557,844.2
553.692,842.4
553.827,843.5
553.963,844.2
554.098,844.1
554.233,843.6
554.368,842.9
554.503,844.4
554.638,843.6
554.773,843.1
554.908,844.8
555.043,844.7
555.179,844.9
555.314,842.4
555.449,843.9
555.584,847.2
555.719,845.3
555.854,844.7
555.989,843.4
556.124,845.8
556.259,845.7
556.394,845.2
556.529,844.7
556.664,847.8
556.799,847.3
556.934,847.1
557.069,847.1
557.204,849.5
557.339,848.5
557.474,850.3
557.609,850.4
557.744,850.1
557.879,851.4
558.014,851.5
558.149,849.4
558.284,851.1
558.419,852.3
558.553,853.0
558.688,853.4
558.823,852.8
558.958,852.0
559.093,850.1
559.228,848.6
559.363,850.8
559.498,849.9
559.632,848.8
559.767,848.7
559.902,851.5
560.037,848.2
560.172,849.8
560.307,846.9
560.441,847.6
560.576,848.5
560.711,850.1
560.846,848.3
560.981,846.5
561.115,848.1
561.25,847.9
561.385,848.6
561.52,849.9
561.654,850.4
561.789,849.1
561.924,851.0
562.059,848.7
562.193,849.9
562.328,852.1
562.463,850.9
562.598,851.0
562.732,852.7
562.867,853.4
563.002,856.6
563.136,853.7
563.271,856.0
563.406,856.2
563.54,859.8
563.675,864.9
563.81,876.7
563.944,930.6
564.079,994.2
564.213,951.6
564.348,886.8
564.483,874.8
564.617,873.1
564.752,872.4
564.887,871.3
565.021,866.7
565.156,865.4
565.29,863.3
565.425,863.7
565.559,864.2
565.694,869.6
565.828,881.8
565.963,912.5
566.098,1029.4
566.232,1151.6
566.367,1033.3
566.501,907.3
566.636,872.1
566.77,862.2
566.905,857.6
567.039,857.6
567.174,857.7
567.308,859.3
567.443,858.6
567.577,858.4
567.711,857.5
567.846,853.5
567.98,852.9
568.115,853.7
568.249,852.9
568.384,854.0
568.518,850.8
568.652,852.6
568.787,852.6
568.921,851.0
569.056,855.3
569.19,851.2
569.324,852.0
569.459,852.1
569.593,854.0
569.727,853.1
569.862,855.2
569.996,851.8
570.131,855.6
570.265,855.7
570.399,856.9
570.534,859.6
570.668,862.5
570.802,862.3
570.936,865.3
571.071,865.1
571.205,867.3
571.339,889.2
571.474,1002.4
571.608,1126.0
571.742,979.0
571.876,897.7
572.011,880.0
572.145,870.8
572.279,869.4
572.413,860.8
572.548,857.7
572.682,858.1
572.816,854.9
572.95,853.8
573.084,852.5
573.219,853.5
573.353,852.9
573.487,854.9
573.621,856.0
573.755,856.3
573.889,861.8
574.024,868.8
574.158,862.4
574.292,856.2
574.426,854.3
574.56,852.3
574.694,853.7
574.828,854.4
574.963,854.4
575.097,857.8
575.231,864.8
575.365,890.7
575.499,972.4
575.633,1019.9
575.767,947.1
575.901,908.3
576.035,908.5
576.169,925.5
576.303,943.3
576.437,935.9
576.571,926.8
576.706,917.3
576.84,913.2
576.974,914.0
577.108,912.2
577.242,902.9
577.376,893.6
577.51,878.0
577.644,870.0
577.778,865.9
577.912,862.5
578.046,860.8
578.179,855.7
578.313,860.1
578.447,857.3
578.581,853.5
578.715,854.9
578.849,858.0
578.983,852.3
579.117,854.3
579.251,858.1
579.385,857.6
579.519,855.4
579.653,856.7
579.787,856.7
579.921,855.5
580.054,856.6
580.188,855.9
580.322,856.1
580.456,855.1
580.59,857.2
580.724,856.2
580.858,858.3
580.991,857.0
581.125,857.1
581.259,857.9
581.393,857.1
581.527,858.4
581.661,855.8
581.794,858.4
581.928,859.5
582.062,859.1
582.196,856.6
582.33,858.5
582.463,858.0
582.597,862.2
582.731,858.6
582.865,860.5
582.998,861.0
583.132,859.4
583.266,859.6
583.4,860.9
583.533,861.8
583.667,860.7
583.801,864.2
583.935,860.5
584.068,863.0
584.202,862.8
584.336,862.4
584.469,862.6
584.603,865.1
584.737,866.4
584.87,863.0
585.004,865.8
585.138,867.2
585.271,866.2
585.405,867.1
585.539,868.1
585.672,869.1
585.806,870.5
585.94,871.5
586.073,866.1
586.207,869.2
586.34,869.8
586.474,872.7
586.608,874.7
586.741,876.0
586.875,873.1
587.008,876.6
587.142,875.0
587.276,876.9
587.409,875.6
587.543,878.9
587.676,878.7
587.81,881.0
587.943,879.9
588.077,881.3
588.21,883.5
588.344,882.6
588.478,885.4
588.611,883.6
588.745,887.3
588.878,887.6
589.012,887.3
589.145,886.9
589.279,890.5
589.412,892.1
589.546,892.4
589.679,894.0
589.812,896.9
589.946,893.6
590.079,898.3
590.213,898.4
590.346,898.4
590.48,900.2
590.613,899.4
590.747,900.7
590.88,903.7
591.013,902.6
591.147,903.8
591.28,904.5
591.414,908.5
591.547,903.8
591.68,904.5
591.814,910.4
591.947,907.6
592.081,908.2
592.214,906.6
592.347,909.0
592.481,910.9
592.614,907.4
592.747,908.9
592.881,913.8
593.014,912.3
593.147,909.5
593.281,910.1
593.414,910.8
593.547,911.7
593.681,920.3
593.814,914.6
593.947,909.9
594.081,915.1
594.214,912.9
594.347,911.6
594.48,912.5
594.614,913.1
594.747,910.5
594.88,909.9
595.014,909.4
595.147,912.8
595.28,912.5
595.413,913.8
595.547,915.0
595.68,916.1
595.813,914.5
595.946,916.0
596.079,911.4
596.213,912.0
596.346,912.3
596.479,912.6
596.612,911.6
596.745,913.1
596.879,910.9
597.012,912.2
597.145,912.8
597.278,912.4
597.411,911.3
597.545,910.2
597.678,909.2
597.811,911.2
597.944,913.0
598.077,910.7
598.21,910.7
598.343,910.8
598.476,910.9
598.61,913.4
598.743,907.2
598.876,908.8
599.009,913.2
599.142,910.9
599.275,909.0
599.408,911.4
599.541,907.6
599.674,908.5
599.807,909.3
599.941,908.9
600.074,907.7
600.207,904.3
600.34,905.5
600.473,905.8
600.606,903.6
600.739,908.4
600.872,905.2
601.005,907.6
601.138,902.4
601.271,900.8
601.404,905.0
601.537,904.1
601.67,903.6
601.803,904.8
601.936,898.6
602.069,905.7
602.202,904.3
602.335,903.5
602.468,897.2
602.601,902.2
602.734,900.6
602.867,900.8
603.0,898.9
603.133,897.7
603.266,899.1
603.399,896.6
603.532,895.7
603.664,897.0
603.797,895.9
603.93,894.5
604.063,893.7
604.196,897.9
604.329,895.4
604.462,893.4
604.595,897.2
604.728,889.5
604.861,891.4
604.994,891.9
605.126,891.2
605.259,892.8
605.392,893.4
605.525,888.5
605.658,888.9
605.791,888.8
605.924,888.0
606.056,884.7
606.189,885.5
606.322,888.6
606.455,883.2
606.588,885.5
606.721,884.4
606.853,885.5
606.986,885.0
607.119,883.0
607.252,885.3
607.385,886.1
607.517,881.1
607.65,883.2
607.783,887.8
607.916,886.6
608.049,883.6
608.181,881.3
608.314,883.7
608.447,882.9
608.58,883.3
608.712,882.4
608.845,883.1
608.978,884.9
609.111,881.6
609.243,881.9
609.376,882.7
609.509,880.2
609.641,883.0
609.774,881.6
609.907,882.2
610.04,882.2
610.172,883.5
610.305,880.8
610.438,880.5
610.57,881.5
610.703,883.3
610.836,884.0
610.968,884.7
611.101,888.0
611.234,883.7
611.366,883.5
611.499,885.5
611.632,881.6
611.764,883.7
611.897,881.0
612.03,879.9
612.162,879.3
612.295,877.8
612.428,879.5
612.56,879.4
612.693,883.2
612.825,878.1
612.958,881.7
613.091,876.5
613.223,878.8
613.356,880.5
613.488,879.3
613.621,876.6
613.754,877.6
613.886,875.4
614.019,877.0
614.151,876.6
614.284,876.2
614.416,878.3
614.549,875.5
614.681,877.8
614.814,875.0
614.947,876.5
615.079,875.1
615.212,874.7
615.344,875.0
615.477,878.6
615.609,873.9
615.742,879.2
615.874,874.6
616.007,879.2
616.139,875.0
616.272,878.2
616.404,874.8
616.537,873.9
616.669,877.9
616.802,877.1
616.934,878.7
617.067,876.2
617.199,880.7
617.332,878.4
617.464,878.0
617.596,878.3
617.729,877.9
617.861,878.2
617.994,877.1
618.126,876.3
618.259,877.7
618.391,877.4
618.524,878.1
618.656,878.0
618.788,875.4
618.921,878.0
619.053,877.7
619.186,876.6
619.318,878.5
619.45,879.2
619.583,877.7
619.715,877.7
619.848,878.0
619.98,878.7
620.112,880.6
620.245,879.5
620.377,875.7
620.509,879.3
620.642,880.3
620.774,880.5
620.907,880.4
621.039,882.9
621.171,879.3
621.304,881.7
621.436,881.7
621.568,886.1
621.701,888.2
621.833,892.2
621.965,893.4
622.097,898.4
622.23,903.5
622.362,898.1
622.494,899.6
622.627,896.4
622.759,891.4
622.891,887.2
623.024,883.0
623.156,881.3
623.288,882.2
623.42,875.9
623.553,879.6
623.685,877.1
623.817,874.8
623.949,878.4
624.082,876.6
624.214,877.7
624.346,875.5
624.479,877.2
624.611,878.1
624.743,878.2
624.875,876.2
625.007,878.5
625.14,881.7
625.272,879.6
625.404,880.1
625.536,883.2
625.669,884.1
625.801,887.4
625.933,885.6
626.065,886.5
626.197,896.9
626.33,900.9
626.462,909.6
626.594,938.3
626.726,979.2
626.858,1045.3
626.99,1162.6
627.123,1314.0
627.255,1407.5
627.387,1387.3
627.519,1320.4
627.651,1258.9
627.783,1211.2
627.916,1170.2
628.048,1147.7
628.18,1152.7
628.312,1175.0
628.444,1256.0
628.576,1381.8
628.708,1369.3
628.84,1281.3
628.973,1221.2
629.105,1203.5
629.237,1191.9
629.369,1173.2
629.501,1152.2
629.633,1122.5
629.765,1105.7
629.897,1082.4
630.029,1074.2
630.161,1066.5
630.294,1068.1
630.426,1061.5
630.558,1055.5
630.69,1042.7
630.822,1018.7
630.954,991.2
631.086,960.6
631.218,931.3
631.35,915.6
631.482,908.1
631.614,901.2
631.746,899.4
631.878,896.9
632.01,891.4
632.142,888.8
632.274,885.9
632.406,881.9
632.538,885.7
632.67,882.5
632.802,879.0
632.934,880.3
633.066,880.2
633.198,875.7
633.33,877.5
633.462,878.7
633.594,875.6
633.726,876.4
633.858,874.8
633.99,876.9
634.122,875.9
634.254,876.5
634.386,873.4
634.518,870.9
634.65,872.7
634.782,875.0
634.914,869.8
635.046,874.0
635.178,872.0
635.31,873.8
635.442,872.9
635.574,873.8
635.706,873.9
635.838,875.2
635.97,875.6
636.102,872.1
636.234,874.5
636.365,874.6
636.497,871.2
636.629,874.6
636.761,873.5
636.893,873.5
637.025,873.9
637.157,871.4
637.289,872.6
637.421,871.8
637.553,872.3
637.685,876.6
637.816,873.4
637.948,873.2
638.08,874.2
638.212,874.4
638.344,872.4
638.476,872.4
638.608,874.5
638.74,872.6
638.871,876.1
639.003,873.7
639.135,876.3
639.267,871.8
639.399,875.4
639.531,874.1
639.662,874.0
639.794,874.5
639.926,877.1
640.058,874.9
640.19,874.7
640.322,876.5
640.453,877.0
640.585,878.2
640.717,877.5
640.849,877.7
640.981,876.3
641.113,877.9
641.244,879.1
641.376,880.4
641.508,877.7
641.64,880.0
641.772,878.1
641.903,879.3
642.035,879.3
642.167,877.0
642.299,880.8
642.43,876.6
642.562,878.1
642.694,880.2
642.826,880.7
642.958,881.8
643.089,882.6
643.221,881.9
643.353,877.0
643.485,881.4
643.616,878.7
643.748,881.4
643.88,882.9
644.012,878.8
644.143,880.2
644.275,882.6
644.407,882.5
644.538,882.2
644.67,883.6
644.802,881.0
644.934,881.8
645.065,882.2
645.197,883.4
645.329,881.6
645.461,882.8
645.592,885.6
645.724,883.3
645.856,881.8
645.987,880.5
646.119,883.4
646.251,882.3
646.382,884.0
646.514,883.8
646.646,882.0
646.777,881.1
646.909,883.8
647.041,880.1
647.172,882.6
647.304,880.0
647.436,883.1
647.567,880.7
647.699,881.6
647.831,883.4
647.962,885.0
648.094,881.6
648.226,882.8
648.357,879.0
648.489,882.5
648.621,882.3
648.752,880.4
648.884,880.7
649.016,881.6
649.147,883.4
649.279,878.2
649.411,880.1
649.542,882.7
649.674,881.1
649.805,879.0
649.937,881.6
650.069,879.1
650.2,879.7
650.332,881.8
650.463,880.9
650.595,877.8
650.727,880.6
650.858,876.6
650.99,877.1
651.121,877.0
651.253,878.8
651.385,876.6
651.516,874.9
651.648,876.4
651.779,878.3
651.911,877.0
652.043,881.3
652.174,877.5
652.306,882.1
652.437,876.3
652.569,878.9
652.7,879.2
652.832,875.8
652.963,876.9
653.095,875.8
653.227,876.7
653.358,875.8
653.49,876.1
653.621,875.8
653.753,877.7
653.884,878.1
654.016,875.3
654.147,877.1
654.279,876.6
654.41,875.5
654.542,875.2
654.674,874.2
654.805,874.2
654.937,875.6
655.068,874.3
655.2,875.5
655.331,874.3
655.463,872.8
655.594,873.2
655.726,875.2
655.857,873.0
655.989,871.0
656.12,875.0
656.252,870.1
656.383,869.9
656.515,872.4
656.646,875.1
656.778,870.5
656.909,872.3
657.041,871.9
657.172,871.1
657.304,873.7
657.435,870.8
657.567,873.8
657.698,873.1
657.829,870.1
657.961,871.5
658.092,873.8
658.224,873.6
658.355,871.7
658.487,873.3
658.618,869.3
658.75,871.0
658.881,869.7
659.013,869.7
659.144,871.0
659.275,870.3
659.407,872.2
659.538,868.1
659.67,869.4
659.801,869.4
659.933,870.4
660.064,868.7
660.196,868.9
660.327,868.1
660.458,868.7
660.59,867.7
660.721,868.3
660.853,867.5
660.984,868.1
661.116,869.2
661.247,865.7
661.378,864.8
661.51,864.9
661.641,864.4
661.773,863.4
661.904,863.1
662.035,865.9
662.167,865.1
662.298,864.9
662.43,861.6
662.561,862.0
662.692,863.7
662.824,861.3
662.955,863.4
663.087,863.8