File: spectra/VLFR_01-LDPE_nobio_Raman_34b4cc09.csv
cm-1,Intensity
-123.878,1852.45
-117.855,1853.75
-111.836,1853.35
-105.821,1853.75
-99.8104,1852.1
-93.8036,1853.05
-87.8007,1851.85
-81.8019,1852.7
-75.807,1853.2
-69.8161,1852.1
-63.8293,1853.7
-57.8464,1853.05
-51.8675,1852.05
-45.8926,1854.0
-39.9216,1852.75
-33.9547,1854.15
-27.9917,1855.4
-22.0326,1858.8
-16.0776,1876.05
-10.1265,2217.4
-4.17932,3369.45
1.76388,3040.7
7.70313,1945.75
13.6384,1855.1
19.5698,1855.45
25.4972,1854.15
31.4207,1853.85
37.3403,1854.4
43.256,1855.75
49.1677,1867.9
55.0755,1930.15
60.9794,2057.85
66.8794,2125.5
72.7754,2153.25
78.6676,2148.1
84.5559,2130.4
90.4402,2135.5
96.3207,2127.6
102.197,2133.85
108.07,2122.5
113.939,2119.15
119.804,2110.1
125.665,2116.55
131.522,2102.35
137.375,2100.8
143.225,2103.95
149.07,2101.45
154.912,2099.3
160.75,2091.45
166.584,2084.55
172.414,2081.05
178.241,2091.2
184.063,2093.85
189.882,2090.45
195.697,2103.25
201.508,2101.85
207.315,2102.5
213.119,2113.25
218.918,2116.0
224.714,2112.95
230.506,2125.4
236.294,2144.8
242.078,2151.7
247.859,2138.5
253.636,2120.15
259.409,2110.7
265.178,2093.25
270.943,2094.85
276.705,2098.35
282.463,2088.55
288.217,2081.6
293.967,2087.2
299.713,2068.65
305.456,2084.75
311.195,2092.15
316.93,2083.75
322.662,2079.25
328.389,2085.3
334.113,2094.55
339.834,2081.2
345.55,2094.5
351.263,2098.55
356.972,2094.55
362.677,2097.05
368.379,2110.0
374.077,2098.35
379.771,2098.85
385.461,2094.25
391.148,2078.2
396.831,2082.05
402.51,2084.3
408.186,2084.3
413.858,2081.6
419.526,2068.55
425.19,2073.15
430.851,2075.45
436.508,2077.0
442.162,2079.6
447.811,2076.45
453.458,2065.15
459.1,2074.35
464.739,2069.75
470.374,2081.15
476.005,2084.85
481.633,2074.4
487.257,2068.25
492.878,2078.45
498.494,2079.45
504.107,2076.5
509.717,2069.3
515.323,2079.1
520.925,2072.7
526.524,2067.8
532.119,2069.3
537.71,2075.25
543.298,2077.1
548.882,2079.65
554.462,2077.9
560.039,2074.3
565.613,2069.3
571.182,2069.45
576.748,2080.75
582.311,2079.6
587.87,2072.7
593.425,2074.95
598.977,2072.95
604.525,2077.9
610.069,2071.5
615.61,2075.05
621.148,2077.9
626.682,2084.05
632.212,2089.6
637.739,2090.45
643.262,2086.1
648.781,2101.05
654.297,2097.75
659.81,2094.0
665.319,2090.2
670.824,2096.95
676.326,2095.35
681.824,2086.45
687.319,2084.4
692.81,2082.4
698.298,2082.45
703.782,2069.25
709.262,2073.6
714.739,2083.3
720.213,2077.95
725.683,2080.55
731.15,2079.8
736.613,2082.2
742.072,2086.7
747.528,2086.85
752.981,2072.8
758.43,2083.1
763.875,2081.35
769.317,2086.85
774.756,2079.4
780.191,2080.55
785.623,2083.7
791.051,2080.55
796.475,2087.75
801.897,2089.65
807.314,2082.35
812.729,2091.8
818.139,2092.1
823.547,2087.35
828.951,2093.6
834.351,2096.6
839.748,2100.05
845.142,2098.95
850.532,2098.2
855.918,2099.95
861.302,2102.1
866.681,2098.5
872.058,2108.15
877.431,2105.95
882.8,2117.7
888.166,2103.6
893.529,2102.2
898.888,2100.1
904.244,2097.85
909.596,2095.45
914.945,2100.9
920.291,2108.25
925.633,2101.35
930.972,2098.95
936.308,2100.65
941.64,2104.75
946.968,2105.95
952.294,2108.3
957.615,2098.9
962.934,2108.3
968.249,2119.5
973.561,2110.2
978.869,2114.25
984.174,2102.05
989.476,2120.35
994.774,2111.85
1000.07,2131.3
1005.36,2119.55
1010.65,2113.9
1015.93,2130.65
1021.22,2139.9
1026.49,2143.4
1031.77,2138.8
1037.04,2144.1
1042.31,2138.85
1047.57,2177.85
1052.83,2196.35
1058.09,2256.35
1063.35,2309.8
1068.6,2256.1
1073.85,2209.25
1079.09,2200.15
1084.33,2203.45
1089.57,2198.45
1094.81,2191.55
1100.04,2180.35
1105.27,2174.85
1110.49,2175.2
1115.71,2201.6
1120.93,2227.75
1126.15,2323.2
1131.36,2299.9
1136.57,2232.25
1141.77,2194.0
1146.98,2177.5
1152.18,2175.1
1157.37,2175.8
1162.56,2187.65
1167.75,2185.8
1172.94,2187.1
1178.12,2178.9
1183.3,2169.2
1188.48,2178.95
1193.65,2177.85
1198.82,2187.7
1203.99,2175.6
1209.15,2188.2
1214.31,2185.7
1219.46,2201.85
1224.62,2196.0
1229.77,2202.05
1234.92,2202.2
1240.06,2200.65
1245.2,2208.2
1250.34,2211.8
1255.47,2232.7
1260.6,2235.6
1265.73,2248.2
1270.85,2246.45
1275.97,2249.05
1281.09,2269.2
1286.21,2332.05
1291.32,2456.25
1296.43,2553.4
1301.53,2439.2
1306.63,2365.25
1311.73,2341.65
1316.83,2309.9
1321.92,2296.15
1327.01,2285.2
1332.1,2280.0
1337.18,2284.25
1342.26,2278.8
1347.34,2281.35
1352.41,2279.8
1357.48,2281.9
1362.55,2272.8
1367.61,2288.1
1372.67,2298.55
1377.73,2286.9
1382.78,2273.8
1387.84,2279.8
1392.88,2271.35
1397.93,2281.45
1402.97,2278.6
1408.01,2285.4
1413.05,2349.9
1418.08,2402.45
1423.11,2412.5
1428.14,2429.7
1433.16,2500.6
1438.18,2581.6
1443.2,2578.05
1448.21,2520.6
1453.22,2499.4
1458.23,2486.95
1463.23,2461.35
1468.23,2446.6
1473.23,2388.55
1478.23,2361.0
1483.22,2339.4
1488.21,2355.4
1493.2,2333.95
1498.18,2343.9
1503.16,2343.9
1508.14,2335.9
1513.11,2362.2
1518.08,2352.9
1523.05,2356.75
1528.01,2346.65
1532.97,2381.7
1537.93,2373.05
1542.89,2367.75
1547.84,2389.2
1552.79,2398.55
1557.73,2388.95
1562.68,2378.7
1567.62,2395.9
1572.56,2422.4
1577.49,2380.65
1582.42,2379.1
1587.35,2418.1
1592.27,2411.4
1597.19,2419.85
1602.11,2430.55
1607.03,2435.85
1611.94,2396.45
1616.85,2395.7
1621.76,2452.8
1626.66,2433.25
1631.56,2423.85
1636.46,2445.7
1641.36,2436.45
1646.25,2444.9
1651.14,2429.3
1656.02,2450.25
1660.9,2446.1
1665.78,2426.85
1670.66,2440.6
1675.54,2416.85
1680.41,2426.6
1685.27,2434.7
1690.14,2433.55
1695.0,2424.6
1699.86,2439.1
1704.71,2440.9
1709.57,2439.2
1714.42,2435.0
1719.26,2424.85
1724.11,2420.75
1728.95,2425.35
1733.79,2434.8
1738.62,2445.0
1743.46,2435.2
1748.28,2404.2
1753.11,2418.6
1757.93,2439.1
1762.75,2428.0
1767.57,2439.75
1772.39,2428.3
1777.2,2439.05
1782.01,2408.45
1786.81,2419.45
1791.62,2421.5
1796.41,2409.15
1801.21,2421.4
1806.01,2424.5
1810.8,2416.25
1815.59,2399.3
1820.37,2400.1
1825.15,2398.25
1829.93,2394.1
1834.71,2408.15
1839.48,2411.2
1844.25,2405.4
1849.02,2405.2
1853.79,2430.15
1858.55,2415.8
1863.31,2407.6
1868.06,2418.1
1872.82,2420.55
1877.57,2425.2
1882.31,2411.15
1887.06,2417.65
1891.8,2401.95
1896.54,2424.1
1901.28,2417.0
1906.01,2390.25
1910.74,2413.25
1915.47,2410.05
1920.19,2440.9
1924.91,2415.05
1929.63,2416.1
1934.35,2418.95
1939.06,2414.1
1943.77,2412.95
1948.48,2416.6
1953.19,2409.65
1957.89,2405.45
1962.59,2418.55
1967.28,2427.25
1971.98,2403.3
1976.67,2429.95
1981.35,2423.1
1986.04,2423.5
1990.72,2425.65
1995.4,2428.55
2000.08,2437.25
2004.75,2447.25
2009.42,2439.85
2014.09,2434.65
2018.75,2454.7
2023.42,2448.6
2028.08,2451.05
2032.73,2447.65
2037.39,2449.55
2042.04,2446.55
2046.69,2468.05
2051.33,2463.3
2055.97,2441.25
2060.61,2453.95
2065.25,2478.25
2069.88,2476.35
2074.52,2460.1
2079.15,2474.15
2083.77,2460.6
2088.39,2472.4
2093.01,2468.25
2097.63,2473.45
2102.25,2495.15
2106.86,2502.9
2111.47,2490.2
2116.08,2483.15
2120.68,2477.2
2125.28,2517.55
2129.88,2489.1
2134.47,2498.6
2139.07,2515.45
2143.66,2489.75
2148.24,2496.9
2152.83,2500.7
2157.41,2479.2
2161.99,2482.85
2166.57,2485.45
2171.14,2484.75
2175.71,2496.95
2180.28,2489.25
2184.84,2494.4
2189.41,2503.0
2193.97,2465.5
2198.52,2491.55
2203.08,2471.25
2207.63,2478.0
2212.18,2469.4
2216.73,2456.8
2221.27,2469.05
2225.81,2450.6
2230.35,2455.45
2234.89,2458.35
2239.42,2425.55
2243.95,2445.4
2248.48,2438.8
2253.0,2433.15
2257.52,2441.15
2262.04,2426.8
2266.56,2421.05
2271.07,2414.9
2275.58,2418.6
2280.09,2408.8
2284.6,2400.2
2289.1,2400.9
2293.6,2397.0
2298.1,2397.95
2302.6,2402.35
2307.09,2376.25
2311.58,2386.6
2316.07,2378.25
2320.55,2391.65
2325.03,2364.6
2329.51,2363.15
2333.99,2378.85
2338.46,2343.65
2342.93,2349.6
2347.4,2363.9
2351.87,2340.5
2356.33,2350.4
2360.79,2344.05
2365.25,2341.2
2369.71,2355.3
2374.16,2333.75
2378.61,2325.15
2383.06,2336.45
2387.5,2340.0
2391.94,2325.6
2396.38,2318.0
2400.82,2331.1
2405.26,2326.25
2409.69,2317.85
2414.12,2324.75
2418.54,2318.2
2422.97,2330.15
2427.39,2313.15
2431.81,2339.0
2436.22,2313.65
2440.64,2322.0
2445.05,2310.65
2449.46,2301.55
2453.86,2319.65
2458.27,2294.4
2462.67,2310.3
2467.06,2299.5
2471.46,2297.1
2475.85,2296.25
2480.24,2306.7
2484.63,2289.1
2489.02,2283.5
2493.4,2300.15
2497.78,2289.2
2502.16,2288.45
2506.53,2284.35
2510.9,2290.15
2515.27,2287.05
2519.64,2291.2
2524.0,2283.45
2528.37,2294.8
2532.73,2275.05
2537.08,2271.1
2541.44,2280.35
2545.79,2274.75
2550.14,2273.7
2554.48,2276.05
2558.83,2275.7
2563.17,2282.0
2567.51,2286.45
2571.85,2284.7
2576.18,2279.1
2580.51,2282.6
2584.84,2293.35
2589.17,2293.9
2593.49,2279.1
2597.81,2286.75
2602.13,2309.55
2606.45,2294.2
2610.76,2292.65
2615.07,2295.7
2619.38,2285.25
2623.69,2298.5
2627.99,2287.1
2632.29,2299.35
2636.59,2296.3
2640.89,2299.15
2645.18,2284.2
2649.47,2304.95
2653.76,2316.55
2658.05,2317.75
2662.33,2320.35
2666.61,2300.75
2670.89,2304.0
2675.17,2306.1
2679.44,2303.05
2683.71,2312.9
2687.98,2333.6
2692.25,2324.5
2696.51,2339.25
2700.77,2357.2
2705.03,2374.95
2709.29,2390.85
2713.54,2391.95
2717.79,2429.95
2722.04,2423.0
2726.29,2418.0
2730.53,2389.5
2734.77,2367.55
2739.01,2360.7
2743.25,2324.45
2747.48,2335.35
2751.71,2321.25
2755.94,2311.5
2760.17,2307.3
2764.39,2311.45
2768.61,2299.5
2772.83,2307.1
2777.05,2305.4
2781.27,2313.65
2785.48,2317.6
2789.69,2320.4
2793.89,2330.55
2798.1,2332.7
2802.3,2338.05
2806.5,2343.5
2810.7,2357.55
2814.89,2351.8
2819.09,2398.55
2823.28,2428.7
2827.46,2519.65
2831.65,2659.55
2835.83,2919.95
2840.01,3481.75
2844.19,4107.3
2848.37,4342.6
2852.54,4316.35
2856.71,4069.25
2860.88,3804.65
2865.05,3691.65
2869.21,3617.45
2873.37,3748.9
2877.53,4082.65
2881.69,4502.45
2885.84,4260.3
2889.99,3867.15
2894.14,3733.05
2898.29,3708.45
2902.43,3545.3
2906.58,3494.25
2910.72,3422.1
2914.85,3273.65
2918.99,3267.15
2923.12,3220.15
2927.25,3265.8
2931.38,3129.15
2935.5,3103.35
2939.63,2911.0
2943.75,2783.95
2947.87,2617.35
2951.98,2558.9
2956.1,2492.75
2960.21,2463.0
2964.32,2468.35
2968.42,2414.6
2972.53,2377.6
2976.63,2388.8
2980.73,2359.9
2984.83,2368.45
2988.92,2335.5
2993.01,2327.8
2997.1,2330.65
3001.19,2342.05
3005.28,2331.45
3009.36,2337.65
3013.44,2324.7
3017.52,2301.9
3021.6,2306.75
3025.67,2304.0
3029.74,2309.2
3033.81,2297.3
3037.88,2277.5
3041.94,2305.85
3046.01,2308.7
3050.07,2279.7
3054.12,2282.9
3058.18,2282.55
3062.23,2276.65
3066.28,2277.15
3070.33,2286.1
3074.38,2282.55
3078.42,2269.45
3082.46,2262.8
3086.5,2263.3
3090.54,2274.75
3094.57,2262.0
3098.6,2266.5
3102.63,2261.05
3106.66,2267.45
3110.69,2248.35
3114.71,2251.25
3118.73,2248.95
3122.75,2265.3
3126.77,2238.9
3130.78,2244.35
3134.79,2246.65
3138.8,2235.2
3142.81,2234.0
3146.81,2230.3
3150.82,2221.5
3154.82,2246.9
3158.81,2242.35
3162.81,2232.9
3166.8,2219.65
3170.79,2234.0
3174.78,2230.25
3178.77,2235.3
3182.75,2216.0
3186.74,2202.0
3190.72,2212.2
3194.69,2212.2
3198.67,2219.55
3202.64,2216.5
3206.61,2226.0
3210.58,2208.25
3214.55,2215.6
3218.51,2197.4
3222.47,2197.05
3226.43,2216.85
3230.39,2204.25
3234.35,2212.7
3238.3,2193.1
3242.25,2199.25
3246.2,2206.3
3250.15,2198.75
3254.09,2202.05
3258.03,2211.6
3261.97,2201.05
3265.91,2212.15
3269.84,2208.85
3273.78,2181.35
3277.71,2205.3
3281.64,2201.1
3285.56,2193.95
3289.49,2184.55
3293.41,2187.1
3297.33,2192.0
3301.25,2191.4
3305.16,2184.3
3309.07,2178.45
3312.99,2192.6
3316.89,2181.4
3320.8,2193.95
3324.7,2173.35
3328.61,2186.7
3332.51,2184.25
3336.4,2185.05
3340.3,2174.95
3344.19,2176.15
3348.08,2178.05
3351.97,2176.65
3355.86,2164.4
3359.74,2172.65
3363.63,2188.2
3367.51,2164.65
3371.39,2169.2
3375.26,2175.3
3379.13,2166.55
3383.01,2164.25
3386.88,2165.8
3390.74,2161.6
3394.61,2175.95
3398.47,2164.7
3402.33,2143.9
3406.19,2163.05
3410.05,2158.5
3413.9,2166.7
3417.75,2178.3
3421.6,2160.65
3425.45,2152.7
3429.3,2165.2
3433.14,2157.1
3436.98,2164.25
3440.82,2161.45
3444.66,2154.5
3448.49,2154.35
3452.32,2146.45
3456.15,2158.4
3459.98,2151.5
3463.81,2139.85
3467.63,2148.75
3471.46,2152.1
3475.28,2155.5
3479.09,2150.85
3482.91,2142.05
3486.72,2137.9
3490.53,2136.85
3494.34,2133.9
3498.15,2146.65
3501.96,2140.2
3505.76,2127.75
3509.56,2137.4
3513.36,2128.55
3517.15,2130.4
3520.95,2119.8
3524.74,2144.4
3528.53,2131.4
3532.32,2126.75
3536.11,2131.2
3539.89,2131.0
3543.67,2120.8
3547.45,2123.05
3551.23,2117.75
3555.0,2119.45
3558.78,2109.3
3562.55,2117.35
3566.32,2128.15
3570.09,2120.95
3573.85,2117.15
3577.61,2117.35
3581.37,2117.3
3585.13,2104.45
3588.89,2108.05
3592.64,2115.05
3596.4,2114.95
3600.15,2107.2
3603.9,2100.85
3607.64,2090.0
3611.39,2100.5
3615.13,2092.0
3618.87,2083.65
3622.61,2094.0
3626.34,2075.6
3630.08,2076.95
3633.81,2082.05
3637.54,2078.4
3641.27,2083.05
3644.99,2081.9
3648.72,2082.25
3652.44,2073.6
3656.16,2083.8
3659.87,2067.9
3663.59,2064.05
3665.45,2074.7