File: spectra/VLFR_08-PLA_bio_Raman_d333dc1d.csv
nm,Intensity
528.626,1870.5
528.795,1869.8
528.963,1869.8
529.132,1870.6
529.3,1871.6
529.469,1869.2
529.637,1870.4
529.806,1869.8
529.974,1869.2
530.143,1870.8
530.311,1870.1
530.48,1869.3
530.648,1870.0
530.816,1871.3
530.985,1871.0
531.153,1872.2
531.322,1871.8
531.49,1875.8
531.658,1891.8
531.827,2135.0
531.995,3149.7
532.164,3436.2
532.332,2264.6
532.5,1877.0
532.669,1872.9
532.837,1871.4
533.006,1869.4
533.174,1874.2
533.342,1873.7
533.511,1895.1
533.679,2048.7
533.847,2405.4
534.016,2704.6
534.184,2728.5
534.352,2655.2
534.521,2610.2
534.689,2554.4
534.857,2534.8
535.025,2532.5
535.194,2512.7
535.362,2523.3
535.53,2481.3
535.699,2448.4
535.867,2366.8
536.035,2354.5
536.203,2364.3
536.372,2380.4
536.54,2401.0
536.708,2414.0
536.876,2367.0
537.044,2337.5
537.213,2298.2
537.381,2305.2
537.549,2322.8
537.717,2321.7
537.885,2330.1
538.054,2345.6
538.222,2305.6
538.39,2287.4
538.558,2257.9
538.726,2245.4
538.894,2247.8
539.063,2260.6
539.231,2253.7
539.399,2236.6
539.567,2205.4
539.735,2208.7
539.903,2189.7
540.071,2191.0
540.239,2227.9
540.408,2272.8
540.576,2324.6
540.744,2351.2
540.912,2342.6
541.08,2360.0
541.248,2331.2
541.416,2290.9
541.584,2269.5
541.752,2251.7
541.92,2235.6
542.088,2248.1
542.256,2243.7
542.424,2239.5
542.592,2230.1
542.76,2248.8
542.928,2269.0
543.096,2290.7
543.264,2354.6
543.432,2446.9
543.6,2533.7
543.768,2538.0
543.936,2524.5
544.104,2473.4
544.272,2388.7
544.44,2308.3
544.608,2258.3
544.776,2243.3
544.944,2245.6
545.112,2227.5
545.28,2219.1
545.448,2221.0
545.616,2205.5
545.784,2213.1
545.951,2224.3
546.119,2203.4
546.287,2224.6
546.455,2219.7
546.623,2218.3
546.791,2223.4
546.959,2250.4
547.127,2244.3
547.294,2257.4
547.462,2258.4
547.63,2246.0
547.798,2231.0
547.966,2240.5
548.134,2234.9
548.301,2257.5
548.469,2253.4
548.637,2237.6
548.805,2240.7
548.972,2250.6
549.14,2253.6
549.308,2263.7
549.476,2253.4
549.644,2253.5
549.811,2253.2
549.979,2245.1
550.147,2254.7
550.315,2257.5
550.482,2278.3
550.65,2265.4
550.818,2284.6
550.985,2288.2
551.153,2292.1
551.321,2290.4
551.488,2294.3
551.656,2300.0
551.824,2325.4
551.991,2320.2
552.159,2330.3
552.327,2335.8
552.494,2336.7
552.662,2348.1
552.83,2337.5
552.997,2363.8
553.165,2371.0
553.333,2305.9
553.5,2316.9
553.668,2328.1
553.835,2385.9
554.003,2410.3
554.171,2382.5
554.338,2337.1
554.506,2331.7
554.673,2320.1
554.841,2306.0
555.008,2294.7
555.176,2295.5
555.343,2293.3
555.511,2276.3
555.679,2281.7
555.846,2256.0
556.014,2274.3
556.181,2269.2
556.349,2266.2
556.516,2267.5
556.684,2300.7
556.851,2303.7
557.018,2316.2
557.186,2340.3
557.353,2387.4
557.521,2437.1
557.688,2591.4
557.856,2906.7
558.023,3326.6
558.191,3373.0
558.358,2934.2
558.525,2565.7
558.693,2470.2
558.86,2405.1
559.028,2372.5
559.195,2392.0
559.362,2392.5
559.53,2398.1
559.697,2398.4
559.864,2372.9
560.032,2367.8
560.199,2338.7
560.366,2312.8
560.534,2333.0
560.701,2339.1
560.868,2342.0
561.036,2315.1
561.203,2304.6
561.37,2308.2
561.538,2309.9
561.705,2323.2
561.872,2330.1
562.039,2313.7
562.207,2331.7
562.374,2327.2
562.541,2334.6
562.708,2351.7
562.876,2419.7
563.043,2448.2
563.21,2558.3
563.377,2622.1
563.545,2633.9
563.712,2553.6
563.879,2473.8
564.046,2423.7
564.213,2401.0
564.38,2383.7
564.548,2431.9
564.715,2481.7
564.882,2522.9
565.049,2547.1
565.216,2546.1
565.383,2548.7
565.551,2505.0
565.718,2542.5
565.885,2616.2
566.052,2743.3
566.219,2765.7
566.386,2673.4
566.553,2578.2
566.72,2466.4
566.887,2388.9
567.054,2367.9
567.221,2374.7
567.388,2380.4
567.555,2386.6
567.722,2419.7
567.889,2455.2
568.057,2436.9
568.224,2424.0
568.391,2401.5
568.558,2416.9
568.725,2405.3
568.892,2430.4
569.058,2443.9
569.225,2430.3
569.392,2425.3
569.559,2399.0
569.726,2385.1
569.893,2399.3
570.06,2387.7
570.227,2390.5
570.394,2385.1
570.561,2400.3
570.728,2396.4
570.895,2396.2
571.062,2413.6
571.229,2500.1
571.395,2563.7
571.562,2649.5
571.729,2645.7
571.896,2582.4
572.063,2534.9
572.23,2514.9
572.397,2491.5
572.563,2468.9
572.73,2473.9
572.897,2465.6
573.064,2482.2
573.231,2497.0
573.397,2521.2
573.564,2531.4
573.731,2539.7
573.898,2538.4
574.064,2499.9
574.231,2516.3
574.398,2542.4
574.565,2585.0
574.731,2561.5
574.898,2514.1
575.065,2440.8
575.232,2413.6
575.398,2412.6
575.565,2409.0
575.732,2447.8
575.898,2443.1
576.065,2473.4
576.232,2520.7
576.398,2666.9
576.565,2845.2
576.732,2957.9
576.898,2936.4
577.065,2830.6
577.232,2659.2
577.398,2543.8
577.565,2485.7
577.731,2450.0
577.898,2422.6
578.065,2426.6
578.231,2420.5
578.398,2423.1
578.564,2418.2
578.731,2398.6
578.897,2414.2
579.064,2412.5
579.23,2409.3
579.397,2409.8
579.563,2425.9
579.73,2394.4
579.896,2381.5
580.063,2401.4
580.229,2420.1
580.396,2407.0
580.562,2388.1
580.729,2390.0
580.895,2390.8
581.062,2427.2
581.228,2395.7
581.395,2409.4
581.561,2398.9
581.728,2419.5
581.894,2400.0
582.06,2404.6
582.227,2380.0
582.393,2422.1
582.56,2393.8
582.726,2412.8
582.892,2413.8
583.059,2399.0
583.225,2391.3
583.391,2391.6
583.558,2426.8
583.724,2415.9
583.89,2411.1
584.057,2431.9
584.223,2400.1
584.389,2404.5
584.556,2425.8
584.722,2401.0
584.888,2392.1
585.054,2412.3
585.221,2402.7
585.387,2407.0
585.553,2410.6
585.719,2418.5
585.886,2413.5
586.052,2398.2
586.218,2450.6
586.384,2458.5
586.55,2507.2
586.717,2578.9
586.883,2648.3
587.049,2702.7
587.215,2778.4
587.381,2866.2
587.548,2868.4
587.714,2803.8
587.88,2676.2
588.046,2576.7
588.212,2472.1
588.378,2430.6
588.544,2442.5
588.71,2414.0
588.876,2413.6
589.043,2404.3
589.209,2414.2
589.375,2409.7
589.541,2373.8
589.707,2377.7
589.873,2402.6
590.039,2400.6
590.205,2390.2
590.371,2401.0
590.537,2404.0
590.703,2409.5
590.869,2397.2
591.035,2401.6
591.201,2395.9
591.367,2384.9
591.533,2393.0
591.699,2383.9
591.865,2402.0
592.031,2397.5
592.197,2395.9
592.363,2385.2
592.529,2401.3
592.694,2407.1
592.86,2403.0
593.026,2392.4
593.192,2388.9
593.358,2397.9
593.524,2389.8
593.69,2394.6
593.856,2402.9
594.021,2388.7
594.187,2378.3
594.353,2382.8
594.519,2382.7
594.685,2387.5
594.851,2380.2
595.016,2371.0
595.182,2381.8
595.348,2405.7
595.514,2396.5
595.68,2391.8
595.845,2404.7
596.011,2401.0
596.177,2407.8
596.342,2423.1
596.508,2375.4
596.674,2401.3
596.84,2412.7
597.005,2378.0
597.171,2392.7
597.337,2399.3
597.502,2392.6
597.668,2388.4
597.834,2413.3
597.999,2388.0
598.165,2385.6
598.331,2382.1
598.496,2390.3
598.662,2402.3
598.828,2381.6
598.993,2400.9
599.159,2396.4
599.324,2401.0
599.49,2385.8
599.656,2386.9
599.821,2409.3
599.987,2388.0
600.152,2383.3
600.318,2406.0
600.483,2393.6
600.649,2403.1
600.814,2392.3
600.98,2403.6
601.145,2395.3
601.311,2384.6
601.476,2401.3
601.642,2413.9
601.807,2422.4
601.973,2371.4
602.138,2394.0
602.304,2390.4
602.469,2394.8
602.635,2406.0
602.8,2381.7
602.965,2389.3
603.131,2396.6
603.296,2398.5
603.462,2399.0
603.627,2398.5
603.792,2386.9
603.958,2391.3
604.123,2403.3
604.288,2385.5
604.454,2402.8
604.619,2394.4
604.784,2403.6
604.95,2374.1
605.115,2391.5
605.28,2375.3
605.446,2414.6
605.611,2376.6
605.776,2384.5
605.941,2387.2
606.107,2404.6
606.272,2382.7
606.437,2386.4
606.602,2389.6
606.767,2387.5
606.933,2410.7
607.098,2384.9
607.263,2395.0
607.428,2387.1
607.593,2400.7
607.759,2395.7
607.924,2386.0
608.089,2383.6
608.254,2376.7
608.419,2394.3
608.584,2386.9
608.749,2370.6
608.915,2376.5
609.08,2393.3
609.245,2373.6
609.41,2380.3
609.575,2379.6
609.74,2384.5
609.905,2394.6
610.07,2380.9
610.235,2386.2
610.4,2399.2
610.565,2389.8
610.73,2369.5
610.895,2389.1
611.06,2376.8
611.225,2374.6
611.39,2402.0
611.555,2377.2
611.72,2368.5
611.885,2379.6
612.05,2363.5
612.215,2370.7
612.38,2364.7
612.545,2371.0
612.71,2373.7
612.875,2381.6
613.04,2370.9
613.204,2357.9
613.369,2374.9
613.534,2364.2
613.699,2389.6
613.864,2356.2
614.029,2375.8
614.194,2356.4
614.358,2361.5
614.523,2385.4
614.688,2366.0
614.853,2378.0
615.018,2365.6
615.182,2357.3
615.347,2376.8
615.512,2387.2
615.677,2374.1
615.841,2359.0
616.006,2385.0
616.171,2367.9
616.336,2364.9
616.5,2374.2
616.665,2368.2
616.83,2363.4
616.994,2368.0
617.159,2371.0
617.324,2373.3
617.489,2382.1
617.653,2390.5
617.818,2369.6
617.982,2345.4
618.147,2364.7
618.312,2346.3
618.476,2348.2
618.641,2364.1
618.805,2358.9
618.97,2339.3
619.135,2345.1
619.299,2369.8
619.464,2368.6
619.628,2371.3
619.793,2359.1
619.957,2352.4
620.122,2351.7
620.286,2361.2
620.451,2335.2
620.615,2342.0
620.78,2363.6
620.944,2346.4
621.109,2363.7
621.273,2349.5
621.438,2366.5
621.602,2358.2
621.767,2372.3
621.931,2357.1
622.095,2339.8
622.26,2382.8
622.424,2394.9
622.589,2383.6
622.753,2423.6
622.917,2424.2
623.082,2451.0
623.246,2437.6
623.41,2432.6
623.575,2430.7
623.739,2410.6
623.903,2389.4
624.068,2376.6
624.232,2375.5
624.396,2361.5
624.561,2373.8
624.725,2367.9
624.889,2348.5
625.053,2355.2
625.218,2335.1
625.382,2342.7
625.546,2346.2
625.71,2328.3
625.875,2337.8
626.039,2342.7
626.203,2340.2
626.367,2335.1
626.531,2347.3
626.695,2344.1
626.86,2353.6
627.024,2358.0
627.188,2352.4
627.352,2360.8
627.516,2353.8
627.68,2409.5
627.844,2425.6
628.008,2466.4
628.172,2631.4
628.337,2755.4
628.501,2829.5
628.665,2863.7
628.829,2798.8
628.993,2756.6
629.157,2726.8
629.321,2730.6
629.485,2733.5
629.649,2750.0
629.813,2750.2
629.977,2799.2
630.141,2812.0
630.305,2885.5
630.469,3090.8
630.633,3474.5
630.797,4166.4
630.96,4945.3
631.124,5546.9
631.288,5297.2
631.452,4618.9
631.616,3977.6
631.78,3615.9
631.944,3375.5
632.108,3168.5
632.272,3058.5
632.435,3017.8
632.599,3004.3
632.763,3101.3
632.927,3265.1
633.091,3473.5
633.254,3650.3
633.418,3657.1
633.582,3535.9
633.746,3395.3
633.91,3143.0
634.073,2989.8
634.237,2769.6
634.401,2627.6
634.564,2532.5
634.728,2458.1
634.892,2407.4
635.056,2386.9
635.219,2350.4
635.383,2352.5
635.547,2339.7
635.71,2319.2
635.874,2319.5
636.038,2306.7
636.201,2301.7
636.365,2305.9
636.528,2292.8
636.692,2293.7
636.856,2302.3
637.019,2287.5
637.183,2278.9
637.346,2283.2
637.51,2285.5
637.673,2256.0
637.837,2274.0
638.0,2278.2
638.164,2265.0
638.327,2281.9
638.491,2263.3
638.654,2251.3
638.818,2266.3
638.981,2281.6
639.145,2259.3
639.308,2262.2
639.472,2247.6
639.635,2265.2
639.799,2249.3
639.962,2263.2
640.125,2252.2
640.289,2263.6
640.452,2257.4
640.616,2260.8
640.779,2253.0
640.942,2240.8
641.106,2245.4
641.269,2257.9
641.432,2262.5
641.596,2248.7
641.759,2267.4
641.922,2260.6
642.085,2254.2
642.249,2252.1
642.412,2249.4
642.575,2263.3
642.738,2248.6
642.902,2264.4
643.065,2242.0
643.228,2237.0
643.391,2228.5
643.555,2244.6
643.718,2233.5
643.881,2232.9
644.044,2242.3
644.207,2238.7
644.37,2219.9
644.534,2199.5
644.697,2227.8
644.86,2212.3
645.023,2203.8
645.186,2237.5
645.349,2209.9
645.512,2211.6
645.675,2208.1
645.838,2212.5
646.001,2218.6
646.164,2206.0
646.327,2212.6
646.49,2194.7
646.653,2204.9
646.816,2200.2
646.979,2213.6
647.142,2196.8
647.305,2195.3
647.468,2184.3
647.631,2186.5
647.794,2198.9
647.957,2200.4
648.12,2187.5
648.283,2188.8
648.446,2166.7
648.609,2173.7
648.772,2188.6
648.935,2183.3
649.098,2192.7
649.26,2177.0
649.423,2174.9
649.586,2187.3
649.749,2155.6
649.912,2178.2
650.075,2181.1
650.237,2181.8
650.4,2173.4
650.563,2166.6
650.726,2165.7
650.888,2161.6
651.051,2173.3
651.214,2175.4
651.377,2150.9
651.539,2159.7
651.702,2166.8
651.865,2151.6
652.027,2170.2
652.19,2173.9
652.353,2161.5
652.515,2148.4
652.678,2147.5
652.841,2155.3
653.003,2174.5
653.166,2152.6
653.329,2139.7
653.491,2154.3
653.654,2152.5
653.816,2156.2
653.979,2155.2
654.142,2157.9
654.304,2142.9
654.467,2140.5
654.629,2152.8
654.792,2141.6
654.954,2129.5
655.117,2129.0
655.279,2141.3
655.442,2151.6
655.604,2141.6
655.767,2140.4
655.929,2134.0
656.091,2122.5
656.254,2129.2
656.416,2134.5
656.579,2141.4
656.741,2133.3
656.904,2143.6
657.066,2129.1
657.228,2128.9
657.391,2127.6
657.553,2133.4
657.715,2126.3
657.878,2142.2
658.04,2109.2
658.202,2115.0
658.365,2129.6
658.527,2106.9
658.689,2110.9
658.851,2119.2
659.014,2105.4
659.176,2120.1
659.338,2107.8
659.5,2106.6
659.663,2085.6
659.825,2104.7
659.987,2097.8
660.149,2097.4
660.311,2094.2
660.474,2103.9
660.636,2114.1
660.798,2099.8
660.96,2098.5
661.041,2097.7