File: spectra/VLFR_02-HDPE_bio_Raman_5c41bfe2.csv
nm,Intensity
528.629,1853.25
528.797,1852.25
528.965,1851.4
529.134,1853.35
529.302,1852.45
529.471,1852.95
529.639,1852.8
529.808,1854.0
529.976,1853.65
530.145,1853.75
530.313,1853.9
530.481,1853.8
530.65,1853.25
530.818,1853.85
530.987,1852.65
531.155,1854.35
531.323,1856.35
531.492,1858.25
531.66,1879.8
531.829,2251.0
531.997,3243.75
532.165,2862.6
532.334,1913.5
532.502,1854.5
532.67,1853.85
532.839,1853.4
533.007,1853.15
533.175,1852.55
533.344,1852.75
533.512,1854.25
533.68,1860.25
533.848,1868.75
534.017,1873.75
534.185,1874.05
534.353,1872.65
534.522,1876.2
534.69,1874.25
534.858,1873.4
535.026,1877.1
535.195,1878.9
535.363,1877.35
535.531,1876.7
535.699,1875.85
535.868,1875.3
536.036,1876.0
536.204,1873.5
536.372,1876.1
536.54,1876.75
536.709,1876.65
536.877,1879.6
537.045,1876.5
537.213,1876.9
537.381,1877.3
537.55,1878.45
537.718,1879.05
537.886,1875.5
538.054,1878.55
538.222,1881.35
538.39,1877.0
538.558,1881.15
538.727,1880.7
538.895,1879.65
539.063,1881.7
539.231,1877.75
539.399,1883.15
539.567,1881.0
539.735,1880.2
539.903,1884.65
540.071,1884.8
540.239,1884.2
540.408,1883.55
540.576,1884.7
540.744,1881.4
540.912,1885.9
541.08,1886.0
541.248,1881.3
541.416,1883.1
541.584,1884.35
541.752,1883.35
541.92,1885.6
542.088,1884.5
542.256,1885.35
542.424,1886.6
542.592,1885.2
542.76,1884.3
542.928,1885.5
543.096,1886.15
543.264,1882.25
543.432,1883.4
543.6,1882.2
543.768,1887.35
543.936,1882.0
544.104,1886.15
544.271,1884.95
544.439,1884.3
544.607,1885.35
544.775,1885.55
544.943,1887.15
545.111,1885.7
545.279,1886.35
545.447,1886.65
545.615,1885.4
545.783,1885.65
545.95,1886.1
546.118,1888.15
546.286,1887.95
546.454,1887.35
546.622,1886.05
546.79,1890.5
546.957,1888.25
547.125,1889.55
547.293,1887.6
547.461,1888.2
547.629,1890.3
547.797,1889.4
547.964,1892.75
548.132,1893.45
548.3,1892.85
548.468,1888.9
548.635,1889.1
548.803,1890.0
548.971,1893.4
549.139,1888.75
549.306,1891.55
549.474,1892.7
549.642,1889.65
549.81,1891.35
549.977,1892.05
550.145,1892.55
550.313,1895.45
550.48,1895.65
550.648,1891.7
550.816,1892.6
550.983,1892.25
551.151,1892.65
551.319,1890.7
551.486,1894.95
551.654,1893.15
551.822,1896.15
551.989,1897.5
552.157,1895.55
552.325,1898.45
552.492,1895.15
552.66,1892.55
552.828,1895.6
552.995,1894.75
553.163,1893.85
553.33,1895.55
553.498,1896.15
553.665,1897.3
553.833,1898.3
554.001,1896.45
554.168,1897.85
554.336,1897.25
554.503,1898.15
554.671,1900.1
554.838,1899.6
555.006,1903.15
555.173,1898.95
555.341,1902.75
555.508,1898.0
555.676,1898.45
555.843,1902.95
556.011,1902.45
556.178,1898.4
556.346,1899.8
556.513,1900.35
556.681,1904.15
556.848,1903.6
557.016,1903.5
557.183,1902.85
557.35,1903.75
557.518,1902.55
557.685,1904.6
557.853,1904.1
558.02,1902.65
558.188,1905.45
558.355,1904.25
558.522,1902.35
558.69,1904.25
558.857,1902.65
559.024,1900.15
559.192,1906.0
559.359,1904.55
559.526,1905.05
559.694,1909.55
559.861,1910.3
560.028,1900.05
560.196,1906.65
560.363,1902.85
560.53,1907.0
560.698,1907.3
560.865,1908.95
561.032,1910.3
561.2,1904.75
561.367,1909.35
561.534,1907.3
561.701,1906.3
561.869,1910.7
562.036,1908.65
562.203,1909.0
562.37,1909.45
562.538,1907.45
562.705,1909.25
562.872,1914.0
563.039,1907.95
563.206,1907.6
563.374,1907.55
563.541,1908.4
563.708,1914.3
563.875,1914.5
564.042,1922.9
564.209,1918.15
564.376,1905.65
564.544,1911.35
564.711,1909.15
564.878,1912.45
565.045,1912.75
565.212,1917.7
565.379,1909.3
565.546,1911.15
565.713,1914.65
565.881,1915.3
566.048,1919.5
566.215,1925.15
566.382,1921.1
566.549,1913.3
566.716,1913.25
566.883,1914.1
567.05,1913.9
567.217,1911.1
567.384,1913.1
567.551,1915.1
567.718,1916.55
567.885,1914.3
568.052,1912.55
568.219,1913.3
568.386,1917.55
568.553,1916.1
568.72,1915.6
568.887,1918.85
569.054,1919.1
569.221,1914.15
569.388,1917.7
569.555,1921.8
569.722,1916.25
569.888,1918.0
570.055,1922.4
570.222,1917.65
570.389,1917.4
570.556,1916.6
570.723,1920.15
570.89,1916.65
571.057,1917.7
571.224,1920.05
571.39,1929.6
571.557,1931.15
571.724,1924.4
571.891,1928.15
572.058,1922.75
572.225,1922.05
572.391,1916.85
572.558,1921.3
572.725,1924.45
572.892,1922.3
573.059,1924.5
573.225,1919.3
573.392,1919.95
573.559,1928.65
573.726,1923.7
573.892,1919.5
574.059,1922.6
574.226,1917.05
574.393,1922.3
574.559,1927.9
574.726,1921.8
574.893,1923.3
575.059,1928.5
575.226,1925.6
575.393,1931.0
575.559,1927.4
575.726,1929.65
575.893,1932.1
576.059,1926.2
576.226,1933.0
576.393,1929.6
576.559,1927.35
576.726,1929.15
576.893,1927.65
577.059,1927.05
577.226,1925.5
577.392,1924.4
577.559,1931.95
577.726,1926.9
577.892,1930.35
578.059,1922.55
578.225,1933.2
578.392,1921.55
578.558,1926.05
578.725,1925.65
578.891,1921.7
579.058,1927.7
579.224,1930.55
579.391,1926.8
579.557,1931.35
579.724,1930.15
579.89,1926.05
580.057,1928.1
580.223,1936.2
580.39,1930.75
580.556,1925.05
580.723,1925.75
580.889,1933.0
581.056,1929.6
581.222,1926.5
581.388,1931.65
581.555,1925.85
581.721,1927.7
581.888,1927.25
582.054,1927.55
582.22,1930.6
582.387,1931.85
582.553,1928.85
582.719,1929.9
582.886,1932.4
583.052,1924.25
583.219,1931.1
583.385,1929.35
583.551,1930.2
583.717,1928.7
583.884,1929.75
584.05,1929.6
584.216,1935.0
584.383,1928.65
584.549,1931.4
584.715,1933.7
584.881,1931.4
585.048,1935.55
585.214,1933.25
585.38,1926.55
585.546,1927.45
585.713,1935.95
585.879,1928.1
586.045,1937.1
586.211,1931.8
586.377,1933.95
586.544,1931.55
586.71,1937.45
586.876,1931.3
587.042,1933.15
587.208,1930.05
587.374,1936.7
587.541,1934.05
587.707,1930.35
587.873,1931.05
588.039,1933.0
588.205,1941.55
588.371,1929.45
588.537,1935.35
588.703,1940.3
588.869,1934.3
589.035,1934.75
589.201,1932.75
589.368,1930.95
589.534,1932.85
589.7,1925.65
589.866,1938.35
590.032,1934.45
590.198,1933.5
590.364,1938.3
590.53,1934.3
590.696,1941.3
590.862,1930.5
591.028,1935.05
591.194,1934.2
591.36,1936.9
591.525,1931.95
591.691,1940.8
591.857,1932.5
592.023,1935.3
592.189,1931.65
592.355,1943.45
592.521,1935.1
592.687,1937.2
592.853,1933.05
593.019,1938.6
593.185,1933.8
593.35,1937.05
593.516,1934.5
593.682,1932.35
593.848,1935.65
594.014,1936.0
594.18,1938.7
594.345,1937.7
594.511,1933.55
594.677,1939.1
594.843,1935.35
595.009,1933.35
595.174,1939.1
595.34,1941.3
595.506,1932.4
595.672,1943.4
595.837,1941.0
596.003,1943.1
596.169,1934.55
596.335,1941.85
596.5,1937.2
596.666,1941.05
596.832,1937.0
596.997,1938.7
597.163,1938.65
597.329,1939.65
597.494,1939.75
597.66,1943.8
597.826,1944.45
597.991,1939.1
598.157,1935.9
598.323,1939.4
598.488,1940.1
598.654,1941.1
598.819,1942.15
598.985,1935.85
599.151,1938.5
599.316,1940.75
599.482,1944.2
599.647,1944.9
599.813,1941.9
599.978,1941.55
600.144,1939.05
600.309,1942.7
600.475,1940.8
600.641,1939.5
600.806,1950.0
600.972,1943.0
601.137,1944.4
601.302,1938.95
601.468,1941.5
601.633,1940.95
601.799,1945.3
601.964,1945.65
602.13,1940.25
602.295,1946.0
602.461,1944.0
602.626,1941.55
602.791,1942.75
602.957,1950.05
603.122,1940.4
603.288,1940.8
603.453,1938.95
603.618,1941.1
603.784,1939.85
603.949,1945.65
604.114,1947.45
604.28,1942.65
604.445,1940.85
604.61,1945.15
604.776,1944.55
604.941,1943.8
605.106,1945.65
605.272,1941.3
605.437,1944.05
605.602,1939.3
605.767,1941.95
605.933,1941.2
606.098,1944.9
606.263,1938.7
606.428,1943.95
606.593,1941.1
606.759,1943.8
606.924,1943.4
607.089,1938.1
607.254,1942.5
607.419,1942.3
607.585,1944.15
607.75,1943.0
607.915,1941.05
608.08,1942.85
608.245,1941.9
608.41,1947.9
608.575,1941.7
608.74,1944.45
608.906,1945.85
609.071,1940.9
609.236,1944.7
609.401,1941.15
609.566,1940.55
609.731,1934.2
609.896,1951.2
610.061,1944.9
610.226,1944.9
610.391,1945.5
610.556,1948.55
610.721,1944.05
610.886,1947.85
611.051,1946.1
611.216,1944.25
611.381,1945.6
611.546,1935.7
611.711,1950.0
611.876,1945.55
612.041,1940.2
612.206,1941.8
612.371,1943.05
612.536,1937.3
612.7,1939.05
612.865,1943.75
613.03,1938.65
613.195,1940.65
613.36,1942.8
613.525,1945.95
613.69,1943.2
613.855,1943.25
614.019,1940.3
614.184,1936.2
614.349,1947.15
614.514,1942.15
614.679,1944.8
614.843,1941.2
615.008,1941.25
615.173,1939.3
615.338,1940.9
615.503,1938.7
615.667,1942.0
615.832,1942.35
615.997,1939.65
616.161,1943.05
616.326,1946.0
616.491,1938.0
616.656,1941.2
616.82,1937.3
616.985,1943.6
617.15,1944.05
617.314,1943.65
617.479,1943.3
617.644,1943.45
617.808,1940.35
617.973,1935.8
618.137,1938.65
618.302,1938.6
618.467,1939.45
618.631,1944.05
618.796,1941.65
618.96,1937.85
619.125,1943.45
619.289,1939.75
619.454,1942.05
619.619,1948.6
619.783,1938.35
619.948,1938.6
620.112,1942.4
620.277,1943.15
620.441,1935.2
620.606,1941.8
620.77,1938.5
620.935,1944.55
621.099,1939.35
621.263,1946.65
621.428,1947.35
621.592,1945.45
621.757,1938.6
621.921,1941.8
622.086,1943.9
622.25,1943.0
622.414,1944.1
622.579,1939.5
622.743,1937.5
622.907,1938.95
623.072,1943.35
623.236,1943.6
623.401,1935.65
623.565,1940.85
623.729,1946.95
623.893,1940.25
624.058,1943.4
624.222,1938.8
624.386,1935.25
624.551,1938.4
624.715,1944.15
624.879,1940.3
625.043,1930.55
625.208,1941.0
625.372,1937.15
625.536,1933.55
625.7,1938.7
625.864,1945.2
626.029,1939.0
626.193,1937.6
626.357,1936.05
626.521,1945.85
626.685,1956.1
626.849,1960.05
627.014,1983.1
627.178,1981.25
627.342,1971.6
627.506,1967.65
627.67,1961.5
627.834,1955.7
627.998,1959.05
628.162,1965.6
628.326,1973.7
628.49,1978.2
628.654,1981.65
628.818,1961.7
628.983,1956.9
629.147,1953.95
629.311,1963.05
629.475,1962.7
629.639,1948.45
629.803,1950.8
629.966,1946.6
630.13,1951.6
630.294,1943.7
630.458,1950.5
630.622,1946.9
630.786,1942.7
630.95,1938.3
631.114,1940.0
631.278,1937.75
631.442,1938.95
631.606,1939.5
631.77,1927.8
631.933,1935.35
632.097,1938.0
632.261,1933.4
632.425,1938.9
632.589,1934.65
632.753,1938.9
632.916,1938.6
633.08,1932.9
633.244,1930.95
633.408,1935.15
633.572,1934.6
633.735,1931.35
633.899,1931.05
634.063,1939.0
634.227,1930.5
634.39,1930.05
634.554,1924.55
634.718,1933.7
634.881,1939.8
635.045,1935.55
635.209,1930.45
635.372,1938.05
635.536,1932.1
635.7,1925.55
635.863,1926.15
636.027,1934.75
636.191,1923.15
636.354,1930.25
636.518,1929.45
636.681,1936.1
636.845,1932.05
637.009,1926.2
637.172,1925.9
637.336,1930.65
637.499,1925.5
637.663,1925.8
637.826,1924.85
637.99,1929.65
638.153,1933.25
638.317,1924.45
638.48,1925.6
638.644,1928.4
638.807,1929.2
638.971,1924.15
639.134,1928.9
639.298,1929.75
639.461,1927.65
639.625,1923.95
639.788,1929.6
639.951,1924.65
640.115,1922.8
640.278,1927.45
640.441,1926.75
640.605,1924.8
640.768,1923.9
640.932,1925.5
641.095,1927.2
641.258,1924.3
641.422,1928.05
641.585,1922.8
641.748,1922.8
641.911,1921.45
642.075,1927.2
642.238,1924.85
642.401,1924.75
642.565,1919.3
642.728,1924.65
642.891,1921.85
643.054,1920.3
643.217,1922.7
643.381,1918.3
643.544,1930.9
643.707,1925.1
643.87,1927.5
644.033,1922.0
644.197,1923.55
644.36,1918.05
644.523,1920.0
644.686,1929.9
644.849,1922.45
645.012,1921.45
645.175,1918.7
645.338,1920.5
645.501,1920.15
645.664,1919.5
645.828,1922.35
645.991,1923.8
646.154,1916.1
646.317,1918.75
646.48,1925.05
646.643,1916.35
646.806,1921.7
646.969,1919.2
647.132,1920.05
647.295,1924.5
647.458,1920.55
647.621,1924.4
647.783,1918.8
647.946,1916.7
648.109,1917.9
648.272,1916.6
648.435,1922.7
648.598,1918.4
648.761,1910.9
648.924,1917.15
649.087,1916.4
649.25,1911.85
649.412,1922.0
649.575,1924.5
649.738,1919.5
649.901,1913.2
650.064,1912.7
650.226,1913.5
650.389,1916.95
650.552,1918.0
650.715,1920.3
650.878,1913.95
651.04,1919.7
651.203,1920.45
651.366,1916.85
651.528,1915.0
651.691,1918.25
651.854,1917.65
652.017,1916.8
652.179,1914.35
652.342,1920.05
652.505,1916.15
652.667,1917.5
652.83,1918.15
652.992,1915.1
653.155,1908.35
653.318,1912.85
653.48,1917.2
653.643,1910.15
653.805,1910.9
653.968,1910.85
654.131,1916.65
654.293,1908.4
654.456,1911.8
654.618,1910.15
654.781,1904.45
654.943,1910.95
655.106,1906.5
655.268,1909.8
655.431,1911.7
655.593,1907.65
655.756,1909.2
655.918,1914.1
656.081,1907.8
656.243,1911.1
656.405,1914.9
656.568,1907.65
656.73,1905.45
656.893,1905.3
657.055,1908.25
657.217,1903.85
657.38,1910.75
657.542,1911.5
657.704,1908.15
657.867,1908.85
658.029,1908.2
658.191,1907.45
658.354,1906.95
658.516,1909.95
658.678,1902.6
658.84,1905.3
659.003,1906.6
659.165,1906.55
659.327,1903.9
659.489,1902.75
659.652,1904.0
659.814,1902.35
659.976,1905.8
660.138,1902.15
660.3,1903.25
660.463,1902.75
660.625,1900.8
660.787,1900.4
660.949,1902.1
661.03,1903.85