File: spectra/VLFR_08-PLA_bio_Raman_973e5cf3.csv
nm,Intensity
526.508,829.1
526.645,829.2
526.782,828.7
526.919,830.1
527.055,829.5
527.192,830.1
527.329,828.7
527.465,829.2
527.602,830.0
527.739,829.0
527.875,830.1
528.012,829.6
528.149,828.9
528.285,828.9
528.422,830.0
528.558,830.2
528.695,830.4
528.832,829.4
528.968,829.5
529.105,828.6
529.241,830.6
529.378,828.5
529.514,830.1
529.651,829.2
529.787,829.6
529.924,829.6
530.061,829.6
530.197,828.9
530.334,830.5
530.47,830.4
530.606,830.1
530.743,828.5
530.879,830.0
531.016,829.6
531.152,830.0
531.289,829.7
531.425,829.5
531.562,828.5
531.698,829.8
531.834,829.4
531.971,837.3
532.107,894.0
532.244,915.1
532.38,847.9
532.516,831.4
532.653,829.3
532.789,830.0
532.925,829.6
533.062,827.5
533.198,831.5
533.334,828.8
533.471,829.1
533.607,830.2
533.743,833.9
533.879,855.9
534.016,891.3
534.152,905.2
534.288,907.9
534.424,907.9
534.561,904.4
534.697,905.9
534.833,905.5
534.969,899.6
535.106,899.2
535.242,900.6
535.378,897.0
535.514,900.1
535.65,899.7
535.786,898.4
535.923,899.4
536.059,896.2
536.195,894.9
536.331,895.2
536.467,897.4
536.603,899.7
536.739,900.2
536.876,896.6
537.012,895.8
537.148,900.5
537.284,899.0
537.42,896.5
537.556,895.8
537.692,896.8
537.828,902.1
537.964,897.2
538.1,899.8
538.236,901.0
538.372,894.2
538.508,901.6
538.644,897.3
538.78,898.5
538.916,898.8
539.052,900.3
539.188,898.0
539.324,897.5
539.46,897.9
539.596,902.2
539.732,898.9
539.868,902.4
540.004,900.6
540.14,900.1
540.275,901.8
540.411,900.0
540.547,902.6
540.683,903.4
540.819,905.8
540.955,904.0
541.091,905.0
541.227,904.5
541.362,905.1
541.498,904.9
541.634,902.2
541.77,900.1
541.906,904.1
542.041,903.3
542.177,906.2
542.313,904.0
542.449,904.9
542.585,904.3
542.72,907.8
542.856,901.4
542.992,909.0
543.128,910.0
543.263,906.7
543.399,907.7
543.535,912.1
543.67,912.8
543.806,913.6
543.942,910.7
544.078,911.4
544.213,910.7
544.349,910.3
544.485,907.9
544.62,910.1
544.756,908.8
544.892,912.0
545.027,913.1
545.163,910.2
545.298,906.6
545.434,911.3
545.57,910.2
545.705,914.4
545.841,910.0
545.976,911.1
546.112,912.1
546.248,912.8
546.383,909.9
546.519,906.3
546.654,913.4
546.79,914.1
546.925,910.9
547.061,912.3
547.196,913.3
547.332,911.9
547.467,911.6
547.603,914.0
547.738,912.2
547.874,914.3
548.009,913.2
548.145,919.4
548.28,912.9
548.416,911.5
548.551,915.2
548.686,916.8
548.822,917.5
548.957,914.3
549.093,916.0
549.228,917.6
549.363,915.3
549.499,917.3
549.634,915.4
549.77,916.2
549.905,918.3
550.04,920.7
550.176,917.3
550.311,921.6
550.446,917.0
550.582,919.7
550.717,921.2
550.852,915.1
550.988,918.7
551.123,920.1
551.258,920.0
551.394,920.7
551.529,920.6
551.664,921.1
551.799,922.7
551.935,922.5
552.07,924.3
552.205,919.1
552.34,925.7
552.476,920.8
552.611,922.1
552.746,923.9
552.881,922.4
553.016,921.3
553.152,923.5
553.287,925.9
553.422,922.1
553.557,927.0
553.692,924.9
553.827,926.2
553.963,927.0
554.098,929.8
554.233,928.2
554.368,928.7
554.503,924.3
554.638,926.8
554.773,924.2
554.908,926.6
555.043,925.5
555.179,925.2
555.314,927.7
555.449,930.0
555.584,927.3
555.719,923.9
555.854,930.3
555.989,928.5
556.124,925.0
556.259,929.4
556.394,925.8
556.529,927.2
556.664,927.7
556.799,923.4
556.934,928.0
557.069,928.0
557.204,931.0
557.339,928.1
557.474,931.2
557.609,936.7
557.744,939.0
557.879,942.1
558.014,952.2
558.149,955.6
558.284,950.4
558.419,942.6
558.553,939.8
558.688,936.0
558.823,931.4
558.958,936.7
559.093,930.0
559.228,929.0
559.363,933.9
559.498,935.6
559.632,935.1
559.767,933.7
559.902,933.1
560.037,934.9
560.172,935.3
560.307,935.8
560.441,933.1
560.576,929.3
560.711,933.6
560.846,937.3
560.981,935.0
561.115,934.4
561.25,933.0
561.385,933.9
561.52,935.1
561.654,936.2
561.789,930.6
561.924,933.7
562.059,938.9
562.193,936.2
562.328,938.5
562.463,932.4
562.598,937.4
562.732,939.9
562.867,936.5
563.002,941.3
563.136,940.9
563.271,945.2
563.406,944.1
563.54,943.8
563.675,947.7
563.81,940.0
563.944,941.8
564.079,946.6
564.213,941.0
564.348,942.0
564.483,942.3
564.617,939.2
564.752,941.5
564.887,945.0
565.021,942.5
565.156,948.1
565.29,943.6
565.425,947.0
565.559,945.7
565.694,948.0
565.828,949.3
565.963,947.2
566.098,951.0
566.232,952.2
566.367,945.6
566.501,948.4
566.636,947.4
566.77,946.5
566.905,938.8
567.039,941.6
567.174,945.6
567.308,941.4
567.443,943.7
567.577,942.1
567.711,938.9
567.846,948.2
567.98,946.6
568.115,948.2
568.249,946.0
568.384,944.2
568.518,943.2
568.652,952.1
568.787,950.0
568.921,948.1
569.056,950.6
569.19,948.0
569.324,950.3
569.459,949.3
569.593,946.4
569.727,950.3
569.862,948.9
569.996,948.7
570.131,949.6
570.265,944.0
570.399,948.9
570.534,946.7
570.668,952.0
570.802,944.1
570.936,949.8
571.071,950.9
571.205,950.2
571.339,952.9
571.474,952.9
571.608,949.5
571.742,953.6
571.876,953.2
572.011,953.2
572.145,954.8
572.279,951.5
572.413,952.2
572.548,956.0
572.682,955.3
572.816,951.1
572.95,953.5
573.084,956.8
573.219,955.4
573.353,958.8
573.487,952.9
573.621,955.6
573.755,958.9
573.889,957.0
574.024,959.2
574.158,955.9
574.292,958.8
574.426,956.2
574.56,958.8
574.694,961.3
574.828,955.5
574.963,954.9
575.097,953.3
575.231,954.2
575.365,956.8
575.499,955.8
575.633,958.2
575.767,959.2
575.901,955.9
576.035,958.2
576.169,953.6
576.303,960.6
576.437,961.6
576.571,963.0
576.706,969.2
576.84,972.4
576.974,974.8
577.108,965.6
577.242,967.6
577.376,966.6
577.51,961.7
577.644,962.7
577.778,956.1
577.912,961.0
578.046,959.1
578.179,956.3
578.313,955.6
578.447,962.4
578.581,958.8
578.715,955.3
578.849,961.9
578.983,964.6
579.117,963.0
579.251,960.7
579.385,957.4
579.519,964.6
579.653,963.5
579.787,963.9
579.921,960.4
580.054,962.1
580.188,958.7
580.322,959.4
580.456,959.8
580.59,960.0
580.724,959.2
580.858,962.2
580.991,962.9
581.125,961.3
581.259,965.4
581.393,961.3
581.527,960.4
581.661,957.3
581.794,959.5
581.928,960.3
582.062,961.1
582.196,962.4
582.33,959.8
582.463,961.2
582.597,966.9
582.731,966.2
582.865,966.7
582.998,961.4
583.132,961.6
583.266,963.7
583.4,965.1
583.533,964.3
583.667,961.5
583.801,964.8
583.935,963.0
584.068,966.3
584.202,963.7
584.336,964.3
584.469,965.9
584.603,966.6
584.737,967.1
584.87,966.0
585.004,965.9
585.138,967.4
585.271,970.7
585.405,962.5
585.539,970.9
585.672,966.0
585.806,966.4
585.94,969.7
586.073,966.4
586.207,969.4
586.34,975.3
586.474,966.0
586.608,972.8
586.741,973.4
586.875,976.7
587.008,975.3
587.142,976.6
587.276,977.9
587.409,975.9
587.543,979.6
587.676,975.8
587.81,972.7
587.943,975.2
588.077,972.6
588.21,966.8
588.344,966.1
588.478,965.2
588.611,966.6
588.745,967.1
588.878,960.1
589.012,965.5
589.145,967.8
589.279,965.0
589.412,967.7
589.546,961.8
589.679,965.9
589.812,968.4
589.946,968.2
590.079,966.6
590.213,966.2
590.346,964.1
590.48,963.2
590.613,965.0
590.747,964.6
590.88,968.9
591.013,963.9
591.147,967.1
591.28,966.8
591.414,962.6
591.547,964.6
591.68,975.2
591.814,969.1
591.947,967.5
592.081,966.0
592.214,968.2
592.347,963.9
592.481,971.6
592.614,961.5
592.747,967.9
592.881,968.4
593.014,964.2
593.147,963.0
593.281,966.9
593.414,964.1
593.547,966.3
593.681,963.6
593.814,966.6
593.947,964.3
594.081,963.8
594.214,972.6
594.347,965.8
594.48,963.6
594.614,970.9
594.747,969.2
594.88,968.3
595.014,966.0
595.147,963.3
595.28,966.7
595.413,968.4
595.547,967.3
595.68,966.2
595.813,964.1
595.946,965.5
596.079,965.8
596.213,969.9
596.346,965.9
596.479,968.2
596.612,970.9
596.745,966.6
596.879,965.6
597.012,972.2
597.145,961.8
597.278,971.3
597.411,968.0
597.545,965.5
597.678,964.3
597.811,969.6
597.944,967.7
598.077,974.6
598.21,967.6
598.343,970.5
598.476,967.1
598.61,971.1
598.743,970.7
598.876,968.3
599.009,969.0
599.142,969.4
599.275,968.1
599.408,972.0
599.541,968.2
599.674,962.6
599.807,962.5
599.941,967.2
600.074,970.2
600.207,965.5
600.34,964.7
600.473,967.6
600.606,968.1
600.739,968.4
600.872,968.1
601.005,966.6
601.138,967.7
601.271,968.7
601.404,967.0
601.537,966.9
601.67,964.2
601.803,966.6
601.936,966.0
602.069,970.4
602.202,967.6
602.335,966.2
602.468,966.2
602.601,965.6
602.734,962.8
602.867,967.4
603.0,966.2
603.133,967.7
603.266,968.2
603.399,973.0
603.532,966.6
603.664,968.1
603.797,962.4
603.93,965.5
604.063,967.1
604.196,968.9
604.329,966.2
604.462,964.5
604.595,962.9
604.728,968.2
604.861,968.5
604.994,967.1
605.126,964.8
605.259,965.2
605.392,964.9
605.525,962.8
605.658,963.2
605.791,964.4
605.924,961.5
606.056,961.1
606.189,960.6
606.322,963.1
606.455,958.8
606.588,962.4
606.721,961.2
606.853,964.4
606.986,961.2
607.119,961.3
607.252,967.4
607.385,962.6
607.517,965.7
607.65,964.6
607.783,962.7
607.916,966.6
608.049,962.1
608.181,962.9
608.314,957.9
608.447,960.2
608.58,958.8
608.712,967.3
608.845,962.6
608.978,963.9
609.111,963.3
609.243,962.6
609.376,960.5
609.509,960.8
609.641,961.3
609.774,959.6
609.907,964.2
610.04,966.3
610.172,959.2
610.305,963.2
610.438,959.2
610.57,959.6
610.703,962.9
610.836,959.4
610.968,960.3
611.101,965.5
611.234,965.2
611.366,958.6
611.499,962.8
611.632,966.9
611.764,960.7
611.897,957.8
612.03,962.8
612.162,963.7
612.295,963.9
612.428,963.2
612.56,962.6
612.693,961.9
612.825,964.1
612.958,964.5
613.091,964.2
613.223,963.3
613.356,962.2
613.488,966.1
613.621,964.3
613.754,967.2
613.886,963.3
614.019,966.4
614.151,965.4
614.284,961.0
614.416,966.3
614.549,965.4
614.681,959.8
614.814,962.4
614.947,964.9
615.079,960.4
615.212,960.9
615.344,961.4
615.477,962.3
615.609,957.8
615.742,960.4
615.874,962.6
616.007,962.5
616.139,961.5
616.272,962.1
616.404,961.9
616.537,960.3
616.669,960.4
616.802,964.8
616.934,969.6
617.067,963.7
617.199,961.3
617.332,964.8
617.464,962.6
617.596,961.3
617.729,962.4
617.861,962.9
617.994,964.1
618.126,961.3
618.259,961.9
618.391,960.3
618.524,965.8
618.656,965.1
618.788,958.8
618.921,960.4
619.053,961.3
619.186,960.5
619.318,960.8
619.45,959.9
619.583,958.2
619.715,960.1
619.848,957.8
619.98,958.1
620.112,958.6
620.245,959.2
620.377,963.4
620.509,958.6
620.642,962.0
620.774,958.0
620.907,961.5
621.039,960.5
621.171,959.7
621.304,959.0
621.436,964.2
621.568,955.8
621.701,960.8
621.833,961.5
621.965,960.2
622.097,963.8
622.23,956.8
622.362,963.5
622.494,964.5
622.627,961.6
622.759,961.3
622.891,956.2
623.024,964.2
623.156,959.6
623.288,963.0
623.42,960.1
623.553,960.3
623.685,962.7
623.817,959.4
623.949,957.3
624.082,961.1
624.214,959.1
624.346,960.9
624.479,952.6
624.611,960.1
624.743,958.7
624.875,961.4
625.007,956.1
625.14,958.2
625.272,957.0
625.404,956.9
625.536,954.7
625.669,958.5
625.801,957.0
625.933,953.3
626.065,958.4
626.197,957.9
626.33,953.6
626.462,956.5
626.594,956.4
626.726,953.3
626.858,958.4
626.99,958.1
627.123,954.2
627.255,952.6
627.387,955.2
627.519,954.7
627.651,956.1
627.783,953.3
627.916,956.2
628.048,957.2
628.18,958.3
628.312,965.8
628.444,967.5
628.576,964.4
628.708,966.6
628.84,962.8
628.973,963.1
629.105,961.2
629.237,965.1
629.369,960.1
629.501,960.9
629.633,964.1
629.765,964.6
629.897,961.3
630.029,962.4
630.161,967.0
630.294,966.9
630.426,970.5
630.558,971.4
630.69,983.8
630.822,1002.5
630.954,1024.2
631.086,1039.4
631.218,1040.1
631.35,1032.1
631.482,1007.3
631.614,995.6
631.746,990.7
631.878,979.6
632.01,975.0
632.142,975.2
632.274,970.9
632.406,963.4
632.538,972.2
632.67,971.4
632.802,969.4
632.934,973.8
633.066,982.9
633.198,984.4
633.33,986.2
633.462,984.9
633.594,980.7
633.726,977.4
633.858,977.0
633.99,968.1
634.122,969.8
634.254,962.4
634.386,955.4
634.518,952.4
634.65,951.5
634.782,950.1
634.914,951.1
635.046,949.8
635.178,949.4
635.31,944.6
635.442,946.1
635.574,947.5
635.706,944.5
635.838,947.9
635.97,946.4
636.102,943.6
636.234,947.3
636.365,948.3
636.497,946.5
636.629,945.8
636.761,947.9
636.893,946.2
637.025,944.7
637.157,941.3
637.289,942.9
637.421,943.0
637.553,940.1
637.685,942.0
637.816,946.8
637.948,948.6
638.08,943.3
638.212,945.1
638.344,946.5
638.476,942.2
638.608,942.9
638.74,941.8
638.871,942.6
639.003,943.8
639.135,940.8
639.267,944.1
639.399,944.6
639.531,943.3
639.662,937.1
639.794,942.9
639.926,940.0
640.058,940.3
640.19,940.6
640.322,943.0
640.453,942.5
640.585,942.1
640.717,943.7
640.849,942.2
640.981,943.1
641.113,938.6
641.244,941.1
641.376,938.9
641.508,941.6
641.64,940.5
641.772,939.1
641.903,940.7
642.035,940.0
642.167,936.1
642.299,938.9
642.43,939.7
642.562,937.6
642.694,940.3
642.826,934.9
642.958,935.4
643.089,939.9
643.221,935.4
643.353,937.3
643.485,937.8
643.616,933.8
643.748,932.2
643.88,933.4
644.012,936.7
644.143,936.9
644.275,933.3
644.407,933.5
644.538,936.6
644.67,937.2
644.802,933.3
644.934,936.0
645.065,930.8
645.197,931.1
645.329,931.2
645.461,932.7
645.592,933.2
645.724,932.7
645.856,931.1
645.987,931.4
646.119,933.3
646.251,934.3
646.382,932.6
646.514,929.8
646.646,931.4
646.777,930.4
646.909,929.3
647.041,934.8
647.172,931.1
647.304,935.1
647.436,933.7
647.567,930.9
647.699,932.0
647.831,931.2
647.962,929.7
648.094,929.9
648.226,930.7
648.357,928.4
648.489,929.2
648.621,932.3
648.752,927.0
648.884,930.0
649.016,928.2
649.147,929.5
649.279,931.2
649.411,929.4
649.542,928.1
649.674,928.7
649.805,932.8
649.937,929.9
650.069,926.8
650.2,930.1
650.332,927.8
650.463,926.9
650.595,927.0
650.727,928.7
650.858,924.5
650.99,930.0
651.121,924.7
651.253,926.6
651.385,923.3
651.516,922.3
651.648,926.2
651.779,924.2
651.911,926.4
652.043,926.1
652.174,924.8
652.306,926.4
652.437,923.8
652.569,924.1
652.7,927.7
652.832,925.4
652.963,921.9
653.095,926.9
653.227,923.7
653.358,924.4
653.49,922.3
653.621,919.4
653.753,923.5
653.884,926.8
654.016,925.3
654.147,922.6
654.279,923.5
654.41,919.1
654.542,919.7
654.674,920.3
654.805,924.6
654.937,920.3
655.068,920.4
655.2,920.2
655.331,917.4
655.463,922.8
655.594,917.2
655.726,923.3
655.857,918.1
655.989,918.5
656.12,919.1
656.252,920.1
656.383,920.4
656.515,922.6
656.646,916.9
656.778,917.6
656.909,919.7
657.041,916.5
657.172,915.4
657.304,917.7
657.435,920.6
657.567,918.0
657.698,915.7
657.829,916.9
657.961,921.0
658.092,917.9
658.224,917.1
658.355,919.3
658.487,917.5
658.618,917.8
658.75,915.8
658.881,917.0
659.013,915.0
659.144,914.6
659.275,918.0
659.407,912.7
659.538,914.1
659.67,916.3
659.801,918.5
659.933,913.9
660.064,915.1
660.196,915.4
660.327,917.4
660.458,912.0
660.59,914.4
660.721,914.1
660.853,913.8
660.984,915.3
661.116,916.1
661.247,914.0
661.378,913.0
661.51,912.0
661.641,909.8
661.773,910.6
661.904,912.0
662.035,913.6
662.167,909.6
662.298,910.1
662.43,909.4
662.561,909.5
662.692,911.9
662.824,914.6
662.955,910.8
663.087,909.6