File: spectra/VLFR_02-HDPE_bio_Raman_edf70904.csv
nm,Intensity
526.508,830.9
526.645,832.2
526.782,828.6
526.919,831.6
527.055,830.9
527.192,829.3
527.329,831.1
527.465,830.9
527.602,830.2
527.739,830.1
527.875,829.6
528.012,830.0
528.149,829.3
528.285,829.3
528.422,829.7
528.558,830.5
528.695,830.4
528.832,829.7
528.968,829.6
529.105,831.6
529.241,830.3
529.378,829.9
529.514,830.8
529.651,831.2
529.787,828.8
529.924,830.3
530.061,830.5
530.197,830.5
530.334,828.7
530.47,830.3
530.606,829.2
530.743,831.2
530.879,831.5
531.016,830.8
531.152,831.3
531.289,830.1
531.425,829.8
531.562,831.8
531.698,830.6
531.834,830.7
531.971,835.3
532.107,875.6
532.244,888.2
532.38,843.4
532.516,831.7
532.653,829.5
532.789,829.4
532.925,829.7
533.062,829.0
533.198,830.7
533.334,831.4
533.471,828.7
533.607,829.9
533.743,833.9
533.879,847.1
534.016,865.4
534.152,875.6
534.288,872.7
534.424,872.1
534.561,870.3
534.697,867.0
534.833,868.6
534.969,865.8
535.106,866.1
535.242,862.8
535.378,859.6
535.514,857.2
535.65,852.6
535.786,854.0
535.923,848.7
536.059,851.0
536.195,847.5
536.331,848.5
536.467,847.1
536.603,846.7
536.739,844.6
536.876,846.1
537.012,845.7
537.148,845.2
537.284,843.1
537.42,845.6
537.556,845.4
537.692,844.3
537.828,845.0
537.964,846.9
538.1,846.5
538.236,843.1
538.372,843.3
538.508,843.7
538.644,844.4
538.78,843.4
538.916,842.6
539.052,842.5
539.188,842.1
539.324,840.8
539.46,839.8
539.596,840.6
539.732,838.6
539.868,841.0
540.004,841.6
540.14,839.9
540.275,840.8
540.411,839.8
540.547,839.4
540.683,841.2
540.819,841.1
540.955,840.0
541.091,840.1
541.227,839.7
541.362,841.4
541.498,840.7
541.634,839.7
541.77,839.4
541.906,840.1
542.041,841.5
542.177,839.5
542.313,839.8
542.449,841.9
542.585,840.4
542.72,841.8
542.856,841.4
542.992,840.3
543.128,841.1
543.263,841.7
543.399,840.3
543.535,838.9
543.67,840.2
543.806,840.4
543.942,839.2
544.078,839.2
544.213,841.0
544.349,839.4
544.485,840.9
544.62,839.2
544.756,841.0
544.892,840.7
545.027,839.9
545.163,840.7
545.298,843.0
545.434,839.7
545.57,839.0
545.705,839.2
545.841,841.1
545.976,840.7
546.112,840.4
546.248,839.3
546.383,839.2
546.519,841.4
546.654,840.8
546.79,841.3
546.925,838.8
547.061,839.3
547.196,841.7
547.332,839.9
547.467,841.0
547.603,840.1
547.738,841.5
547.874,841.4
548.009,841.9
548.145,841.4
548.28,841.5
548.416,840.1
548.551,838.1
548.686,842.3
548.822,841.5
548.957,840.7
549.093,841.5
549.228,840.0
549.363,841.1
549.499,840.4
549.634,840.3
549.77,842.0
549.905,841.9
550.04,838.3
550.176,839.7
550.311,840.7
550.446,841.2
550.582,839.5
550.717,841.2
550.852,839.3
550.988,841.9
551.123,839.7
551.258,842.6
551.394,843.1
551.529,838.9
551.664,841.8
551.799,840.2
551.935,839.9
552.07,840.3
552.205,840.5
552.34,841.6
552.476,842.4
552.611,842.5
552.746,841.1
552.881,840.6
553.016,843.4
553.152,843.9
553.287,842.1
553.422,845.3
553.557,844.6
553.692,842.5
553.827,842.7
553.963,842.3
554.098,843.8
554.233,842.9
554.368,844.2
554.503,842.7
554.638,843.0
554.773,846.5
554.908,842.6
555.043,845.0
555.179,846.6
555.314,843.6
555.449,843.9
555.584,844.2
555.719,844.1
555.854,845.0
555.989,843.1
556.124,846.3
556.259,844.3
556.394,843.6
556.529,843.4
556.664,845.3
556.799,846.1
556.934,844.5
557.069,848.3
557.204,845.7
557.339,847.4
557.474,848.7
557.609,848.3
557.744,848.4
557.879,846.1
558.014,847.4
558.149,850.4
558.284,852.1
558.419,850.9
558.553,850.5
558.688,850.4
558.823,848.2
558.958,848.2
559.093,849.0
559.228,847.5
559.363,847.7
559.498,850.5
559.632,848.3
559.767,849.4
559.902,848.4
560.037,849.0
560.172,848.7
560.307,850.5
560.441,848.8
560.576,848.4
560.711,847.8
560.846,847.1
560.981,849.4
561.115,848.8
561.25,848.0
561.385,850.2
561.52,848.4
561.654,849.2
561.789,850.6
561.924,850.6
562.059,851.4
562.193,851.2
562.328,852.5
562.463,851.3
562.598,852.7
562.732,851.2
562.867,850.8
563.002,852.8
563.136,854.5
563.271,853.9
563.406,852.0
563.54,857.5
563.675,863.9
563.81,872.3
563.944,908.1
564.079,938.6
564.213,909.9
564.348,875.6
564.483,868.5
564.617,870.9
564.752,867.0
564.887,866.0
565.021,863.9
565.156,864.5
565.29,862.4
565.425,863.5
565.559,862.4
565.694,867.1
565.828,866.6
565.963,881.4
566.098,924.3
566.232,966.8
566.367,920.6
566.501,878.7
566.636,867.5
566.77,861.3
566.905,860.9
567.039,860.7
567.174,861.2
567.308,862.1
567.443,868.4
567.577,872.1
567.711,865.6
567.846,863.1
567.98,863.4
568.115,862.0
568.249,862.2
568.384,862.4
568.518,862.6
568.652,862.9
568.787,862.0
568.921,860.4
569.056,865.1
569.19,862.2
569.324,863.4
569.459,865.7
569.593,866.8
569.727,865.0
569.862,866.5
569.996,871.2
570.131,869.1
570.265,868.7
570.399,867.9
570.534,870.7
570.668,876.7
570.802,878.7
570.936,878.1
571.071,879.3
571.205,878.4
571.339,898.1
571.474,970.0
571.608,1031.1
571.742,945.8
571.876,904.2
572.011,891.1
572.145,886.6
572.279,883.4
572.413,886.5
572.548,880.9
572.682,882.2
572.816,880.9
572.95,881.8
573.084,882.4
573.219,887.4
573.353,882.9
573.487,888.6
573.621,888.0
573.755,891.3
573.889,895.0
574.024,901.0
574.158,900.4
574.292,896.1
574.426,892.7
574.56,894.5
574.694,896.7
574.828,899.8
574.963,898.8
575.097,898.2
575.231,907.4
575.365,916.4
575.499,945.1
575.633,954.7
575.767,940.2
575.901,934.8
576.035,954.1
576.169,979.9
576.303,1014.4
576.437,1010.4
576.571,984.9
576.706,981.8
576.84,985.4
576.974,989.0
577.108,989.0
577.242,990.8
577.376,976.5
577.51,964.0
577.644,963.3
577.778,956.4
577.912,959.1
578.046,958.7
578.179,961.0
578.313,965.7
578.447,967.1
578.581,967.6
578.715,971.1
578.849,977.1
578.983,980.2
579.117,981.5
579.251,988.2
579.385,995.0
579.519,1001.4
579.653,1005.8
579.787,1000.9
579.921,1012.4
580.054,1012.3
580.188,1014.7
580.322,1020.8
580.456,1026.0
580.59,1030.3
580.724,1027.7
580.858,1034.9
580.991,1040.5
581.125,1048.9
581.259,1048.0
581.393,1054.4
581.527,1056.7
581.661,1057.9
581.794,1068.6
581.928,1067.5
582.062,1080.3
582.196,1082.5
582.33,1086.2
582.463,1086.8
582.597,1095.3
582.731,1097.5
582.865,1105.7
582.998,1108.9
583.132,1116.9
583.266,1124.0
583.4,1124.9
583.533,1125.9
583.667,1135.6
583.801,1140.5
583.935,1143.7
584.068,1157.5
584.202,1161.4
584.336,1158.6
584.469,1159.6
584.603,1167.9
584.737,1172.1
584.87,1170.3
585.004,1177.2
585.138,1176.6
585.271,1177.7
585.405,1183.5
585.539,1186.2
585.672,1189.3
585.806,1193.4
585.94,1190.8
586.073,1194.9
586.207,1194.8
586.34,1208.4
586.474,1205.3
586.608,1214.7
586.741,1210.1
586.875,1213.9
587.008,1216.9
587.142,1218.8
587.276,1219.8
587.409,1222.0
587.543,1224.6
587.676,1215.9
587.81,1219.6
587.943,1218.4
588.077,1225.1
588.21,1227.8
588.344,1231.1
588.478,1225.6
588.611,1229.5
588.745,1232.3
588.878,1236.1
589.012,1231.3
589.145,1234.1
589.279,1234.5
589.412,1241.1
589.546,1240.5
589.679,1242.8
589.812,1241.2
589.946,1249.8
590.079,1257.8
590.213,1259.6
590.346,1253.9
590.48,1253.3
590.613,1254.9
590.747,1252.9
590.88,1260.6
591.013,1259.0
591.147,1256.6
591.28,1260.1
591.414,1258.4
591.547,1261.6
591.68,1255.8
591.814,1254.9
591.947,1257.3
592.081,1248.1
592.214,1241.9
592.347,1254.8
592.481,1255.1
592.614,1245.2
592.747,1251.2
592.881,1246.8
593.014,1251.0
593.147,1244.1
593.281,1243.6
593.414,1248.7
593.547,1237.2
593.681,1245.0
593.814,1240.1
593.947,1241.5
594.081,1247.7
594.214,1252.9
594.347,1244.7
594.48,1253.1
594.614,1246.8
594.747,1248.9
594.88,1261.3
595.014,1251.8
595.147,1241.2
595.28,1254.5
595.413,1254.1
595.547,1259.0
595.68,1267.2
595.813,1256.1
595.946,1260.3
596.079,1256.2
596.213,1258.7
596.346,1256.3
596.479,1263.3
596.612,1265.3
596.745,1264.9
596.879,1265.4
597.012,1260.6
597.145,1271.3
597.278,1268.9
597.411,1258.4
597.545,1273.0
597.678,1266.4
597.811,1263.2
597.944,1271.2
598.077,1271.1
598.21,1274.3
598.343,1271.8
598.476,1271.7
598.61,1274.9
598.743,1270.5
598.876,1267.0
599.009,1267.5
599.142,1277.3
599.275,1271.0
599.408,1263.1
599.541,1265.8
599.674,1268.1
599.807,1267.3
599.941,1273.1
600.074,1270.7
600.207,1273.0
600.34,1271.3
600.473,1271.7
600.606,1273.7
600.739,1260.4
600.872,1265.3
601.005,1267.5
601.138,1270.7
601.271,1263.0
601.404,1263.7
601.537,1263.0
601.67,1263.8
601.803,1266.3
601.936,1267.0
602.069,1265.5
602.202,1271.7
602.335,1266.9
602.468,1269.4
602.601,1268.5
602.734,1266.1
602.867,1266.5
603.0,1265.8
603.133,1263.7
603.266,1262.0
603.399,1251.1
603.532,1259.6
603.664,1252.6
603.797,1253.6
603.93,1263.4
604.063,1248.7
604.196,1246.5
604.329,1249.1
604.462,1241.5
604.595,1250.4
604.728,1237.6
604.861,1233.4
604.994,1225.8
605.126,1224.8
605.259,1221.9
605.392,1219.6
605.525,1220.4
605.658,1214.5
605.791,1210.3
605.924,1208.6
606.056,1206.6
606.189,1207.0
606.322,1203.9
606.455,1201.5
606.588,1197.0
606.721,1191.9
606.853,1190.5
606.986,1193.2
607.119,1192.0
607.252,1193.8
607.385,1194.9
607.517,1188.7
607.65,1198.5
607.783,1193.2
607.916,1189.0
608.049,1189.4
608.181,1183.5
608.314,1182.2
608.447,1180.7
608.58,1178.6
608.712,1180.8
608.845,1177.7
608.978,1174.7
609.111,1178.0
609.243,1169.7
609.376,1165.5
609.509,1166.6
609.641,1166.1
609.774,1162.3
609.907,1158.5
610.04,1153.6
610.172,1152.9
610.305,1150.5
610.438,1148.2
610.57,1141.3
610.703,1141.4
610.836,1144.5
610.968,1140.4
611.101,1141.5
611.234,1138.6
611.366,1136.0
611.499,1131.5
611.632,1126.0
611.764,1126.8
611.897,1124.5
612.03,1124.1
612.162,1127.7
612.295,1125.9
612.428,1124.1
612.56,1123.8
612.693,1124.4
612.825,1124.7
612.958,1128.8
613.091,1123.5
613.223,1118.0
613.356,1118.3
613.488,1117.1
613.621,1115.4
613.754,1120.8
613.886,1118.0
614.019,1116.1
614.151,1112.1
614.284,1117.4
614.416,1106.4
614.549,1105.7
614.681,1102.2
614.814,1107.2
614.947,1109.4
615.079,1105.2
615.212,1099.6
615.344,1099.9
615.477,1091.1
615.609,1096.2
615.742,1103.7
615.874,1090.2
616.007,1090.0
616.139,1093.2
616.272,1090.9
616.404,1087.6
616.537,1080.9
616.669,1084.2
616.802,1083.8
616.934,1085.4
617.067,1085.6
617.199,1089.9
617.332,1085.0
617.464,1081.5
617.596,1081.0
617.729,1077.7
617.861,1081.8
617.994,1078.2
618.126,1077.4
618.259,1074.3
618.391,1080.1
618.524,1070.9
618.656,1075.3
618.788,1077.0
618.921,1067.4
619.053,1066.6
619.186,1067.7
619.318,1068.9
619.45,1070.2
619.583,1064.8
619.715,1067.9
619.848,1066.8
619.98,1064.1
620.112,1063.3
620.245,1061.4
620.377,1068.0
620.509,1069.6
620.642,1060.3
620.774,1064.3
620.907,1069.3
621.039,1062.5
621.171,1067.3
621.304,1070.5
621.436,1068.9
621.568,1075.0
621.701,1077.6
621.833,1084.6
621.965,1085.1
622.097,1092.6
622.23,1104.8
622.362,1097.3
622.494,1093.5
622.627,1087.5
622.759,1085.1
622.891,1075.4
623.024,1070.9
623.156,1069.8
623.288,1070.5
623.42,1066.0
623.553,1059.4
623.685,1063.8
623.817,1065.0
623.949,1060.9
624.082,1064.8
624.214,1061.8
624.346,1061.6
624.479,1062.0
624.611,1063.9
624.743,1061.7
624.875,1064.5
625.007,1068.0
625.14,1060.3
625.272,1062.0
625.404,1065.9
625.536,1066.4
625.669,1069.5
625.801,1070.9
625.933,1079.7
626.065,1085.7
626.197,1077.4
626.33,1094.2
626.462,1106.4
626.594,1142.5
626.726,1198.5
626.858,1289.9
626.99,1423.0
627.123,1573.0
627.255,1637.3
627.387,1615.8
627.519,1536.1
627.651,1469.6
627.783,1428.7
627.916,1387.4
628.048,1373.9
628.18,1375.1
628.312,1423.0
628.444,1559.0
628.576,1715.5
628.708,1654.6
628.84,1469.4
628.973,1401.4
629.105,1385.9
629.237,1367.6
629.369,1346.2
629.501,1325.1
629.633,1305.7
629.765,1268.8
629.897,1261.7
630.029,1252.9
630.161,1245.6
630.294,1239.4
630.426,1241.0
630.558,1230.9
630.69,1220.7
630.822,1206.0
630.954,1173.6
631.086,1158.8
631.218,1131.3
631.35,1116.6
631.482,1110.9
631.614,1105.2
631.746,1105.2
631.878,1107.5
632.01,1103.6
632.142,1100.7
632.274,1099.1
632.406,1096.9
632.538,1092.2
632.67,1093.8
632.802,1103.1
632.934,1099.6
633.066,1100.9
633.198,1098.2
633.33,1103.8
633.462,1106.1
633.594,1107.7
633.726,1099.2
633.858,1101.5
633.99,1106.3
634.122,1100.0
634.254,1099.4
634.386,1098.3
634.518,1099.8
634.65,1103.7
634.782,1101.9
634.914,1112.3
635.046,1101.6
635.178,1101.3
635.31,1100.0
635.442,1107.4
635.574,1104.4
635.706,1107.3
635.838,1107.3
635.97,1111.3
636.102,1104.9
636.234,1108.7
636.365,1110.4
636.497,1109.2
636.629,1114.0
636.761,1109.4
636.893,1110.9
637.025,1112.3
637.157,1115.4
637.289,1116.8
637.421,1115.5
637.553,1109.7
637.685,1107.8
637.816,1107.2
637.948,1108.1
638.08,1109.1
638.212,1107.9
638.344,1110.8
638.476,1107.5
638.608,1112.6
638.74,1107.5
638.871,1109.5
639.003,1111.6
639.135,1105.0
639.267,1107.6
639.399,1114.9
639.531,1104.1
639.662,1108.0
639.794,1110.1
639.926,1108.0
640.058,1108.2
640.19,1102.7
640.322,1107.9
640.453,1103.7
640.585,1105.3
640.717,1103.9
640.849,1107.0
640.981,1102.3
641.113,1103.4
641.244,1105.0
641.376,1105.6
641.508,1104.1
641.64,1104.2
641.772,1101.7
641.903,1105.6
642.035,1103.4
642.167,1110.4
642.299,1103.4
642.43,1102.6
642.562,1100.2
642.694,1100.5
642.826,1100.5
642.958,1098.7
643.089,1096.3
643.221,1092.7
643.353,1090.4
643.485,1089.1
643.616,1092.3
643.748,1091.6
643.88,1094.9
644.012,1094.2
644.143,1090.4
644.275,1093.8
644.407,1088.2
644.538,1080.9
644.67,1083.6
644.802,1087.8
644.934,1087.8
645.065,1080.9
645.197,1086.2
645.329,1077.1
645.461,1077.1
645.592,1082.2
645.724,1081.5
645.856,1077.8
645.987,1081.6
646.119,1076.6
646.251,1077.8
646.382,1079.5
646.514,1077.5
646.646,1082.3
646.777,1077.0
646.909,1077.9
647.041,1078.1
647.172,1069.2
647.304,1067.1
647.436,1079.4
647.567,1069.9
647.699,1067.8
647.831,1074.0
647.962,1072.8
648.094,1071.5
648.226,1075.5
648.357,1067.6
648.489,1065.6
648.621,1069.5
648.752,1067.5
648.884,1067.8
649.016,1068.7
649.147,1061.7
649.279,1063.7
649.411,1065.1
649.542,1061.9
649.674,1062.8
649.805,1057.9
649.937,1057.7
650.069,1055.2
650.2,1055.1
650.332,1057.4
650.463,1054.4
650.595,1057.2
650.727,1047.9
650.858,1061.7
650.99,1058.6
651.121,1059.6
651.253,1054.5
651.385,1050.3
651.516,1050.6
651.648,1051.6
651.779,1057.1
651.911,1046.5
652.043,1053.2
652.174,1049.8
652.306,1047.1
652.437,1049.7
652.569,1042.3
652.7,1051.5
652.832,1051.3
652.963,1049.9
653.095,1046.0
653.227,1044.4
653.358,1040.8
653.49,1044.6
653.621,1042.3
653.753,1040.7
653.884,1048.0
654.016,1039.7
654.147,1037.3
654.279,1035.3
654.41,1039.0
654.542,1036.3
654.674,1039.4
654.805,1040.1
654.937,1038.3
655.068,1034.1
655.2,1034.8
655.331,1030.0
655.463,1030.0
655.594,1037.7
655.726,1031.1
655.857,1027.5
655.989,1034.3
656.12,1031.4
656.252,1026.7
656.383,1026.7
656.515,1025.7
656.646,1025.8
656.778,1030.5
656.909,1030.4
657.041,1024.6
657.172,1022.3
657.304,1025.2
657.435,1021.5
657.567,1021.8
657.698,1021.5
657.829,1025.0
657.961,1028.7
658.092,1023.4
658.224,1027.6
658.355,1027.1
658.487,1026.2
658.618,1017.3
658.75,1013.4
658.881,1018.0
659.013,1022.1
659.144,1018.3
659.275,1020.8
659.407,1014.3
659.538,1011.5
659.67,1013.5
659.801,1020.0
659.933,1016.3
660.064,1013.4
660.196,1007.3
660.327,1010.2
660.458,1012.4
660.59,1011.4
660.721,1006.3
660.853,1005.2
660.984,1000.5
661.116,1001.7
661.247,996.7
661.378,1003.4
661.51,1000.6
661.641,998.3
661.773,990.4
661.904,999.5
662.035,994.5
662.167,996.9
662.298,997.5
662.43,992.3
662.561,993.7
662.692,987.7
662.824,987.2
662.955,986.8
663.087,991.1