File: spectra/VLFR_02-HDPE_bio_Raman_645573d7.csv
nm,Intensity
526.495,827.45
526.632,827.9
526.768,827.9
526.905,828.55
527.042,828.5
527.179,828.0
527.315,827.95
527.452,828.7
527.589,827.3
527.725,829.45
527.862,828.0
527.999,827.65
528.136,828.75
528.272,826.45
528.409,827.4
528.546,827.0
528.682,827.55
528.819,827.45
528.955,827.2
529.092,828.15
529.229,827.55
529.365,827.6
529.502,827.85
529.639,827.9
529.775,827.6
529.912,827.75
530.048,826.6
530.185,827.95
530.321,827.35
530.458,828.0
530.594,827.9
530.731,827.9
530.867,828.35
531.004,828.85
531.14,828.05
531.277,828.5
531.413,827.7
531.55,827.1
531.686,828.1
531.823,827.75
531.959,829.15
532.096,840.85
532.232,843.55
532.369,831.85
532.505,827.55
532.641,827.0
532.778,827.7
532.914,827.35
533.051,827.6
533.187,826.6
533.323,827.7
533.46,828.75
533.596,828.3
533.732,836.95
533.869,896.3
534.005,1005.6
534.141,1007.25
534.278,940.5
534.414,904.4
534.55,890.4
534.687,885.8
534.823,884.95
534.959,879.15
535.095,880.0
535.232,878.35
535.368,875.1
535.504,877.45
535.64,874.15
535.777,872.8
535.913,869.95
536.049,871.65
536.185,871.2
536.321,870.1
536.457,868.85
536.594,870.55
536.73,869.0
536.866,873.1
537.002,874.3
537.138,877.05
537.274,879.5
537.41,883.05
537.547,883.35
537.683,889.15
537.819,884.4
537.955,880.15
538.091,877.55
538.227,873.0
538.363,873.5
538.499,868.6
538.635,866.1
538.771,862.85
538.907,861.4
539.043,860.25
539.179,862.75
539.315,861.0
539.451,860.7
539.587,859.25
539.723,859.35
539.859,862.0
539.995,863.55
540.131,863.05
540.267,863.7
540.403,863.1
540.539,860.05
540.675,858.4
540.811,857.35
540.947,857.4
541.083,854.15
541.219,856.7
541.354,856.4
541.49,855.5
541.626,854.75
541.762,856.95
541.898,855.95
542.034,855.95
542.17,855.75
542.305,859.0
542.441,859.95
542.577,860.05
542.713,860.8
542.849,855.55
542.984,854.45
543.12,852.8
543.256,851.35
543.392,852.9
543.528,851.1
543.663,851.85
543.799,850.95
543.935,852.5
544.071,852.25
544.206,852.05
544.342,852.35
544.478,851.15
544.613,852.9
544.749,851.9
544.885,852.85
545.02,854.1
545.156,852.85
545.292,854.95
545.427,854.25
545.563,855.8
545.699,855.45
545.834,856.85
545.97,856.4
546.106,856.65
546.241,857.7
546.377,860.1
546.512,859.1
546.648,860.75
546.784,861.75
546.919,861.2
547.055,860.55
547.19,863.5
547.326,860.85
547.461,862.3
547.597,862.3
547.732,863.3
547.868,862.1
548.003,862.8
548.139,863.1
548.274,862.45
548.41,863.1
548.545,861.1
548.681,865.25
548.816,861.8
548.952,861.6
549.087,864.35
549.223,862.75
549.358,862.9
549.494,864.05
549.629,863.05
549.764,860.85
549.9,861.65
550.035,861.25
550.171,861.15
550.306,860.1
550.441,860.65
550.577,860.05
550.712,861.9
550.847,861.25
550.983,861.1
551.118,865.55
551.253,863.1
551.389,863.35
551.524,863.7
551.659,864.2
551.795,865.7
551.93,863.05
552.065,863.8
552.201,863.7
552.336,861.75
552.471,861.35
552.606,860.65
552.742,859.5
552.877,857.75
553.012,856.9
553.147,857.5
553.283,854.35
553.418,854.8
553.553,855.35
553.688,854.9
553.823,853.45
553.959,852.95
554.094,853.9
554.229,852.75
554.364,852.7
554.499,851.05
554.634,849.85
554.769,851.45
554.905,851.2
555.04,850.95
555.175,851.0
555.31,850.9
555.445,850.55
555.58,850.0
555.715,850.2
555.85,849.45
555.985,851.95
556.121,849.45
556.256,850.3
556.391,850.7
556.526,848.8
556.661,849.6
556.796,851.65
556.931,849.7
557.066,851.2
557.201,850.3
557.336,849.05
557.471,851.0
557.606,850.6
557.741,849.0
557.876,851.15
558.011,850.0
558.146,851.2
558.281,851.15
558.416,851.15
558.551,851.2
558.685,850.1
558.82,849.3
558.955,849.55
559.09,849.1
559.225,850.5
559.36,849.8
559.495,850.4
559.63,850.0
559.765,850.7
559.9,850.3
560.034,849.95
560.169,849.95
560.304,848.9
560.439,849.2
560.574,850.65
560.709,850.35
560.843,850.0
560.978,849.4
561.113,850.15
561.248,850.5
561.383,850.85
561.517,852.15
561.652,850.25
561.787,850.2
561.922,852.05
562.057,850.85
562.191,853.15
562.326,851.95
562.461,851.05
562.596,852.4
562.73,851.1
562.865,850.9
563.0,854.1
563.134,852.8
563.269,853.9
563.404,853.5
563.539,855.2
563.673,855.5
563.808,860.4
563.943,867.7
564.077,873.45
564.212,869.15
564.346,861.75
564.481,859.2
564.616,858.95
564.75,858.15
564.885,858.15
565.02,859.65
565.154,858.95
565.289,857.45
565.423,858.55
565.558,859.4
565.693,858.25
565.827,860.35
565.962,864.0
566.096,872.55
566.231,878.95
566.365,867.1
566.5,862.8
566.634,859.95
566.769,858.8
566.903,858.65
567.038,857.8
567.172,857.5
567.307,859.6
567.441,858.45
567.576,860.6
567.71,860.1
567.845,857.85
567.979,857.85
568.114,859.8
568.248,859.5
568.383,860.45
568.517,859.9
568.652,859.95
568.786,860.7
568.92,861.55
569.055,861.5
569.189,861.25
569.324,860.2
569.458,862.25
569.592,862.15
569.727,863.55
569.861,865.05
569.996,863.9
570.13,863.6
570.264,864.35
570.399,865.15
570.533,864.85
570.667,865.45
570.802,868.7
570.936,868.25
571.07,869.15
571.205,870.05
571.339,874.85
571.473,889.65
571.607,902.65
571.742,889.7
571.876,878.75
572.01,877.7
572.144,876.85
572.279,875.75
572.413,872.9
572.547,875.25
572.681,873.85
572.816,873.5
572.95,873.75
573.084,875.7
573.218,876.45
573.353,878.8
573.487,877.6
573.621,879.9
573.755,880.9
573.889,881.4
574.023,882.05
574.158,883.75
574.292,882.75
574.426,883.25
574.56,885.05
574.694,883.3
574.828,884.65
574.963,885.15
575.097,889.7
575.231,890.8
575.365,891.1
575.499,897.6
575.633,903.0
575.767,903.75
575.901,901.85
576.035,908.85
576.169,914.6
576.303,923.55
576.438,926.2
576.572,921.05
576.706,915.55
576.84,917.55
576.974,921.6
577.108,920.75
577.242,921.15
577.376,916.45
577.51,916.9
577.644,917.6
577.778,916.65
577.912,917.55
578.046,919.85
578.18,921.65
578.314,923.5
578.448,924.05
578.582,926.1
578.716,928.1
578.85,929.25
578.984,930.45
579.117,931.9
579.251,935.25
579.385,936.25
579.519,940.5
579.653,939.9
579.787,944.15
579.921,945.45
580.055,950.65
580.189,949.9
580.323,952.4
580.456,952.0
580.59,958.2
580.724,958.85
580.858,959.7
580.992,969.3
581.126,977.0
581.26,978.6
581.393,979.2
581.527,980.0
581.661,978.6
581.795,976.85
581.929,982.75
582.063,982.95
582.196,984.95
582.33,983.05
582.464,988.6
582.598,996.8
582.731,998.4
582.865,997.15
582.999,998.4
583.133,1002.8
583.267,1006.65
583.4,1006.55
583.534,1006.8
583.668,1012.05
583.801,1014.25
583.935,1019.25
584.069,1017.55
584.203,1022.55
584.336,1022.45
584.47,1028.15
584.604,1030.55
584.737,1035.6
584.871,1040.6
585.005,1042.3
585.138,1048.5
585.272,1055.7
585.406,1049.6
585.539,1060.15
585.673,1058.1
585.807,1068.55
585.94,1069.25
586.074,1073.9
586.208,1081.65
586.341,1086.45
586.475,1090.05
586.608,1092.8
586.742,1100.85
586.876,1106.7
587.009,1109.55
587.143,1116.8
587.276,1114.45
587.41,1127.45
587.543,1130.3
587.677,1130.25
587.811,1141.2
587.944,1146.25
588.078,1151.6
588.211,1155.45
588.345,1161.4
588.478,1167.95
588.612,1171.35
588.745,1176.1
588.879,1181.8
589.012,1182.2
589.146,1187.2
589.279,1195.4
589.413,1200.65
589.546,1208.65
589.68,1211.3
589.813,1213.75
589.947,1224.5
590.08,1230.85
590.214,1236.75
590.347,1242.35
590.48,1241.25
590.614,1243.4
590.747,1254.7
590.881,1260.5
591.014,1261.15
591.148,1274.65
591.281,1280.7
591.414,1275.7
591.548,1286.8
591.681,1291.1
591.815,1294.35
591.948,1297.7
592.081,1301.1
592.215,1306.65
592.348,1309.35
592.481,1312.55
592.615,1316.35
592.748,1322.5
592.881,1321.15
593.015,1325.95
593.148,1332.6
593.281,1337.35
593.415,1336.95
593.548,1342.0
593.681,1354.55
593.815,1352.95
593.948,1362.3
594.081,1364.2
594.215,1371.15
594.348,1371.95
594.481,1381.75
594.614,1389.1
594.748,1394.9
594.881,1398.15
595.014,1398.75
595.147,1414.3
595.281,1426.75
595.414,1427.9
595.547,1432.3
595.68,1450.7
595.814,1452.1
595.947,1450.6
596.08,1462.4
596.213,1470.3
596.347,1473.6
596.48,1490.9
596.613,1492.8
596.746,1500.35
596.879,1513.4
597.012,1514.55
597.146,1528.15
597.279,1530.25
597.412,1537.6
597.545,1543.15
597.678,1559.7
597.811,1569.85
597.945,1585.05
598.078,1585.35
598.211,1592.2
598.344,1609.35
598.477,1615.95
598.61,1619.55
598.743,1631.95
598.876,1638.1
599.009,1650.35
599.143,1643.7
599.276,1651.0
599.409,1660.55
599.542,1660.35
599.675,1671.9
599.808,1670.4
599.941,1682.25
600.074,1681.05
600.207,1683.15
600.34,1675.3
600.473,1693.6
600.606,1687.3
600.739,1693.85
600.872,1683.5
601.005,1685.55
601.138,1684.05
601.271,1689.35
601.404,1691.0
601.537,1677.1
601.67,1681.35
601.803,1677.85
601.936,1675.0
602.069,1679.2
602.202,1677.85
602.335,1670.7
602.468,1667.9
602.601,1660.0
602.734,1658.95
602.867,1658.8
603.0,1643.9
603.133,1643.5
603.266,1634.6
603.399,1630.8
603.532,1617.45
603.665,1623.8
603.798,1610.1
603.931,1606.45
604.064,1598.0
604.196,1592.5
604.329,1573.9
604.462,1563.35
604.595,1546.1
604.728,1548.15
604.861,1536.35
604.994,1530.25
605.127,1516.1
605.259,1512.1
605.392,1497.7
605.525,1485.65
605.658,1477.4
605.791,1472.25
605.924,1466.9
606.057,1452.4
606.189,1446.45
606.322,1433.25
606.455,1425.45
606.588,1418.45
606.721,1415.5
606.853,1400.7
606.986,1400.7
607.119,1398.4
607.252,1396.05
607.385,1390.9
607.517,1381.05
607.65,1369.6
607.783,1368.25
607.916,1357.8
608.049,1359.95
608.181,1351.35
608.314,1345.2
608.447,1342.05
608.58,1338.35
608.712,1338.1
608.845,1329.0
608.978,1328.8
609.111,1321.8
609.243,1321.45
609.376,1307.3
609.509,1309.3
609.641,1301.7
609.774,1294.6
609.907,1291.75
610.039,1289.65
610.172,1286.0
610.305,1276.25
610.438,1279.85
610.57,1272.6
610.703,1271.85
610.836,1267.65
610.968,1264.05
611.101,1264.75
611.234,1254.85
611.366,1262.05
611.499,1248.0
611.631,1248.1
611.764,1248.35
611.897,1253.2
612.029,1246.95
612.162,1243.3
612.295,1237.0
612.427,1240.3
612.56,1237.25
612.692,1232.3
612.825,1234.1
612.958,1231.1
613.09,1226.1
613.223,1229.55
613.355,1226.1
613.488,1223.6
613.621,1224.55
613.753,1220.75
613.886,1216.45
614.018,1212.55
614.151,1212.35
614.283,1208.9
614.416,1207.75
614.548,1208.05
614.681,1199.6
614.814,1197.7
614.946,1193.3
615.079,1194.05
615.211,1189.2
615.344,1188.5
615.476,1183.1
615.609,1183.5
615.741,1178.15
615.874,1174.95
616.006,1176.85
616.139,1172.35
616.271,1171.1
616.404,1168.55
616.536,1165.85
616.669,1168.6
616.801,1163.35
616.933,1163.9
617.066,1159.95
617.198,1154.35
617.331,1155.05
617.463,1152.95
617.596,1151.2
617.728,1150.8
617.861,1143.7
617.993,1149.25
618.125,1144.1
618.258,1145.5
618.39,1140.45
618.523,1139.3
618.655,1136.95
618.788,1138.0
618.92,1135.95
619.052,1129.4
619.185,1132.25
619.317,1130.25
619.45,1124.4
619.582,1123.65
619.714,1125.6
619.847,1127.05
619.979,1121.6
620.111,1122.2
620.244,1114.55
620.376,1113.65
620.509,1117.65
620.641,1110.2
620.773,1111.45
620.906,1110.5
621.038,1110.4
621.17,1106.2
621.303,1106.65
621.435,1103.55
621.567,1106.55
621.7,1104.8
621.832,1105.95
621.964,1103.95
622.096,1107.7
622.229,1109.3
622.361,1107.25
622.493,1107.85
622.626,1105.05
622.758,1104.4
622.89,1101.2
623.022,1097.45
623.155,1095.35
623.287,1100.15
623.419,1095.1
623.552,1097.2
623.684,1093.75
623.816,1091.15
623.948,1087.15
624.081,1093.15
624.213,1086.65
624.345,1088.5
624.477,1088.95
624.61,1085.0
624.742,1085.45
624.874,1086.25
625.006,1081.1
625.138,1085.3
625.271,1083.95
625.403,1081.75
625.535,1082.45
625.667,1080.5
625.799,1077.5
625.932,1080.5
626.064,1080.25
626.196,1076.2
626.328,1080.5
626.46,1079.3
626.593,1091.0
626.725,1093.1
626.857,1123.35
626.989,1153.1
627.121,1196.15
627.253,1223.65
627.386,1213.6
627.518,1192.6
627.65,1176.2
627.782,1161.5
627.914,1149.2
628.046,1147.55
628.178,1147.05
628.311,1162.7
628.443,1189.45
628.575,1226.8
628.707,1212.95
628.839,1182.5
628.971,1165.5
629.103,1160.8
629.235,1155.25
629.367,1153.95
629.5,1142.45
629.632,1137.8
629.764,1128.65
629.896,1120.15
630.028,1122.25
630.16,1115.05
630.292,1117.8
630.424,1118.2
630.556,1115.05
630.688,1107.75
630.82,1105.45
630.952,1092.35
631.084,1083.5
631.216,1078.45
631.349,1069.95
631.481,1071.9
631.613,1070.25
631.745,1068.05
631.877,1066.9
632.009,1064.45
632.141,1062.3
632.273,1060.65
632.405,1064.6
632.537,1061.05
632.669,1060.6
632.801,1058.85
632.933,1061.5
633.065,1061.6
633.197,1059.85
633.329,1061.85
633.461,1058.5
633.593,1058.45
633.725,1059.9
633.857,1060.3
633.989,1064.2
634.121,1062.75
634.253,1065.6
634.385,1064.35
634.517,1064.45
634.649,1065.0
634.781,1066.15
634.912,1065.65
635.044,1067.7
635.176,1068.8
635.308,1072.45
635.44,1071.1
635.572,1072.15
635.704,1071.05
635.836,1074.75
635.968,1072.55
636.1,1071.95
636.232,1076.25
636.364,1079.1
636.496,1081.0
636.628,1078.15
636.76,1080.1
636.891,1081.7
637.023,1078.5
637.155,1080.85
637.287,1080.7
637.419,1086.4
637.551,1085.75
637.683,1090.25
637.815,1089.35
637.947,1090.1
638.078,1094.15
638.21,1091.8
638.342,1094.9
638.474,1093.4
638.606,1098.1
638.738,1097.55
638.87,1101.35
639.002,1103.25
639.133,1104.95
639.265,1105.95
639.397,1108.1
639.529,1107.7
639.661,1114.5
639.793,1114.7
639.924,1118.05
640.056,1114.8
640.188,1122.3
640.32,1119.85
640.452,1123.15
640.584,1127.8
640.715,1130.3
640.847,1131.9
640.979,1131.55
641.111,1133.4
641.243,1132.1
641.374,1141.45
641.506,1139.1
641.638,1142.4
641.77,1144.05
641.902,1145.55
642.033,1144.8
642.165,1151.45
642.297,1150.95
642.429,1151.75
642.561,1156.65
642.692,1156.75
642.824,1156.45
642.956,1154.8
643.088,1158.65
643.219,1156.0
643.351,1164.4
643.483,1160.2
643.615,1164.95
643.746,1170.15
643.878,1168.1
644.01,1169.0
644.142,1174.6
644.273,1172.15
644.405,1178.15
644.537,1179.15
644.669,1179.55
644.8,1183.2
644.932,1187.0
645.064,1187.0
645.195,1194.0
645.327,1190.6
645.459,1195.95
645.591,1198.8
645.722,1204.95
645.854,1204.9
645.986,1215.0
646.117,1219.6
646.249,1224.95
646.381,1227.85
646.512,1233.95
646.644,1246.95
646.776,1250.75
646.908,1263.65
647.039,1265.05
647.171,1271.0
647.303,1272.4
647.434,1279.35
647.566,1283.7
647.698,1288.25
647.829,1287.7
647.961,1284.05
648.093,1284.3
648.224,1286.35
648.356,1284.7
648.488,1274.35
648.619,1269.85
648.751,1272.05
648.883,1272.65
649.014,1272.15
649.146,1268.15
649.277,1265.95
649.409,1271.55
649.541,1265.8
649.672,1258.6
649.804,1266.05
649.936,1257.35
650.067,1263.65
650.199,1258.05
650.33,1258.4
650.462,1253.35
650.594,1253.95
650.725,1255.25
650.857,1254.15
650.988,1255.55
651.12,1258.1
651.252,1254.05
651.383,1260.95
651.515,1258.0
651.646,1258.75
651.778,1265.8
651.91,1261.45
652.041,1263.7
652.173,1272.4
652.304,1272.2
652.436,1268.2
652.568,1269.35
652.699,1272.05
652.831,1272.95
652.962,1276.6
653.094,1277.5
653.225,1277.65
653.357,1279.95
653.489,1281.1
653.62,1279.45
653.752,1283.95
653.883,1284.7
654.015,1289.6
654.146,1290.15
654.278,1290.55
654.409,1287.7
654.541,1285.1
654.672,1286.9
654.804,1278.45
654.935,1283.55
655.067,1279.2
655.199,1275.7
655.33,1275.05
655.462,1268.0
655.593,1267.6
655.725,1265.3
655.856,1258.7
655.988,1261.15
656.119,1247.7
656.251,1248.55
656.382,1247.65
656.514,1242.0
656.645,1237.9
656.777,1245.2
656.908,1240.5
657.04,1234.6
657.171,1236.8
657.303,1228.7
657.434,1229.85
657.566,1217.0
657.697,1224.45
657.829,1210.9
657.96,1213.1
658.092,1208.9
658.223,1212.35
658.355,1207.3
658.486,1198.5
658.617,1199.2
658.749,1200.4
658.88,1189.8
659.012,1187.1
659.143,1186.5
659.275,1185.3
659.406,1180.25
659.538,1175.55
659.669,1176.25
659.801,1177.45
659.932,1165.8
660.064,1164.0
660.195,1160.2
660.326,1156.25
660.458,1154.55
660.589,1151.25
660.721,1143.65
660.852,1138.6
660.984,1132.0
661.115,1131.0
661.246,1130.3
661.378,1129.7
661.509,1122.25
661.641,1124.6
661.772,1117.5
661.904,1113.7
662.035,1107.55
662.166,1107.05
662.298,1107.85
662.429,1101.65
662.561,1100.1
662.692,1098.75
662.823,1092.85
662.955,1094.2
663.086,1087.05