File: spectra/VLFR_08-PLA_bio_Raman_40ca4d60.csv
nm,Intensity
528.626,1866.4
528.795,1867.7
528.963,1867.6
529.132,1869.2
529.3,1866.2
529.469,1866.8
529.637,1868.2
529.806,1868.0
529.974,1866.6
530.143,1867.3
530.311,1868.9
530.48,1866.0
530.648,1867.1
530.816,1868.6
530.985,1870.7
531.153,1870.7
531.322,1874.0
531.49,1880.9
531.658,1925.7
531.827,2560.1
531.995,4773.5
532.164,4675.5
532.332,2160.0
532.5,1875.9
532.669,1869.3
532.837,1870.4
533.006,1870.0
533.174,1871.8
533.342,1878.4
533.511,1926.7
533.679,2203.7
533.847,2759.7
534.016,3203.7
534.184,3376.8
534.352,3381.5
534.521,3381.7
534.689,3495.0
534.857,3564.2
535.025,3582.9
535.194,3595.1
535.362,3668.5
535.53,3669.7
535.699,3697.5
535.867,3675.1
536.035,3721.3
536.203,3732.8
536.372,3730.0
536.54,3752.0
536.708,3792.5
536.876,3801.6
537.044,3812.5
537.213,3820.5
537.381,3942.2
537.549,3925.2
537.717,3949.2
537.885,3969.4
538.054,3990.5
538.222,3989.5
538.39,3985.8
538.558,4036.0
538.726,4045.4
538.894,4038.4
539.063,4118.0
539.231,4154.5
539.399,4188.9
539.567,4153.1
539.735,4205.8
539.903,4296.6
540.071,4288.3
540.239,4248.9
540.408,4292.7
540.576,4335.0
540.744,4427.5
540.912,4365.6
541.08,4380.9
541.248,4393.8
541.416,4391.9
541.584,4480.1
541.752,4493.3
541.92,4475.4
542.088,4555.6
542.256,4595.1
542.424,4623.0
542.592,4626.1
542.76,4720.1
542.928,4667.4
543.096,4747.1
543.264,4682.8
543.432,4711.7
543.6,4770.5
543.768,4837.5
543.936,4863.2
544.104,4811.9
544.272,4853.5
544.44,4796.9
544.608,4917.7
544.776,4983.6
544.944,4920.6
545.112,4978.7
545.28,4942.0
545.448,4994.3
545.616,5037.2
545.784,5070.7
545.951,5054.0
546.119,5099.7
546.287,5163.8
546.455,5188.8
546.623,5190.5
546.791,5310.9
546.959,5190.1
547.127,5269.0
547.294,5257.4
547.462,5302.1
547.63,5350.0
547.798,5357.7
547.966,5393.8
548.134,5373.5
548.301,5434.3
548.469,5565.3
548.637,5493.5
548.805,5568.3
548.972,5535.1
549.14,5570.3
549.308,5591.0
549.476,5593.8
549.644,5550.9
549.811,5618.7
549.979,5616.2
550.147,5714.0
550.315,5687.7
550.482,5736.0
550.65,5813.2
550.818,5880.5
550.985,5839.3
551.153,5917.8
551.321,5831.9
551.488,5801.6
551.656,5949.9
551.824,6004.5
551.991,5955.0
552.159,6061.0
552.327,6041.9
552.494,5996.3
552.662,6100.7
552.83,5992.7
552.997,6038.0
553.165,6094.6
553.333,6080.9
553.5,6045.1
553.668,6177.3
553.835,6267.6
554.003,6220.6
554.171,6209.5
554.338,6236.1
554.506,6362.5
554.673,6390.6
554.841,6353.6
555.008,6366.9
555.176,6303.8
555.343,6347.6
555.511,6378.4
555.679,6392.2
555.846,6471.4
556.014,6504.3
556.181,6488.6
556.349,6411.0
556.516,6582.2
556.684,6489.9
556.851,6404.2
557.018,6578.7
557.186,6496.3
557.353,6521.1
557.521,6637.0
557.688,6494.2
557.856,6593.4
558.023,6661.6
558.191,6753.7
558.358,6767.3
558.525,6737.0
558.693,6701.5
558.86,6782.5
559.028,6770.0
559.195,6764.4
559.362,6895.9
559.53,6819.6
559.697,6702.8
559.864,6859.5
560.032,6925.8
560.199,6784.1
560.366,6874.1
560.534,6922.9
560.701,6926.4
560.868,6964.5
561.036,6989.2
561.203,7001.6
561.37,6988.7
561.538,7103.2
561.705,7034.9
561.872,7059.6
562.039,7027.6
562.207,7005.9
562.374,7118.1
562.541,7124.6
562.708,7129.4
562.876,7062.4
563.043,7179.3
563.21,7146.5
563.377,7077.4
563.545,7234.8
563.712,7237.6
563.879,7079.1
564.046,7155.5
564.213,7317.5
564.38,7271.3
564.548,7273.7
564.715,7323.4
564.882,7301.5
565.049,7350.6
565.216,7342.7
565.383,7275.2
565.551,7411.7
565.718,7465.1
565.885,7429.3
566.052,7295.4
566.219,7337.8
566.386,7390.0
566.553,7354.4
566.72,7420.8
566.887,7384.9
567.054,7333.3
567.221,7290.6
567.388,7484.8
567.555,7429.2
567.722,7252.3
567.889,7522.7
568.057,7441.6
568.224,7411.6
568.391,7482.6
568.558,7591.5
568.725,7525.1
568.892,7482.3
569.058,7617.4
569.225,7509.2
569.392,7654.4
569.559,7515.0
569.726,7493.3
569.893,7629.0
570.06,7566.3
570.227,7479.9
570.394,7630.9
570.561,7578.1
570.728,7468.0
570.895,7603.9
571.062,7647.9
571.229,7653.0
571.395,7675.5
571.562,7639.8
571.729,7641.3
571.896,7691.5
572.063,7696.2
572.23,7830.3
572.397,7630.7
572.563,7785.3
572.73,7816.0
572.897,7711.9
573.064,7733.7
573.231,7730.2
573.397,7881.8
573.564,7725.7
573.731,7590.1
573.898,7700.1
574.064,7712.3
574.231,7747.3
574.398,7808.6
574.565,7654.0
574.731,7688.0
574.898,7848.4
575.065,7753.3
575.232,7709.7
575.398,7781.2
575.565,7601.6
575.732,7914.6
575.898,7840.9
576.065,7884.3
576.232,7790.8
576.398,7766.0
576.565,7851.6
576.732,7843.9
576.898,7995.4
577.065,7903.3
577.232,7751.3
577.398,7785.5
577.565,7741.6
577.731,7698.8
577.898,7877.3
578.065,7806.8
578.231,7680.6
578.398,7805.1
578.564,7730.5
578.731,7718.9
578.897,7722.3
579.064,7823.8
579.23,7876.9
579.397,7841.9
579.563,7780.2
579.73,7804.5
579.896,7854.3
580.063,7902.5
580.229,7890.7
580.396,7945.6
580.562,7880.8
580.729,7844.8
580.895,7928.3
581.062,7816.6
581.228,7861.1
581.395,7915.4
581.561,7925.4
581.728,7961.4
581.894,7834.5
582.06,7945.8
582.227,7827.4
582.393,7812.9
582.56,7811.8
582.726,7876.9
582.892,7888.5
583.059,7819.5
583.225,7900.7
583.391,7878.4
583.558,7834.6
583.724,7870.7
583.89,7888.7
584.057,7937.9
584.223,7925.6
584.389,7959.5
584.556,7898.9
584.722,7973.1
584.888,7845.2
585.054,7919.3
585.221,7803.6
585.387,7849.7
585.553,7864.4
585.719,7781.3
585.886,7943.0
586.052,7825.2
586.218,7962.6
586.384,7947.8
586.55,7775.6
586.717,7941.0
586.883,7923.6
587.049,7946.3
587.215,7937.2
587.381,8060.6
587.548,7978.3
587.714,7946.9
587.88,7959.0
588.046,7963.2
588.212,8127.4
588.378,7989.2
588.544,7904.5
588.71,8058.8
588.876,7999.7
589.043,7974.4
589.209,7862.1
589.375,7840.6
589.541,7986.7
589.707,7975.4
589.873,7877.9
590.039,7920.1
590.205,7897.1
590.371,8068.1
590.537,8012.2
590.703,7974.1
590.869,8028.3
591.035,8174.1
591.201,8014.9
591.367,8026.0
591.533,8028.6
591.699,8173.0
591.865,8065.1
592.031,8143.2
592.197,8152.3
592.363,8180.3
592.529,8190.5
592.694,8127.7
592.86,8195.2
593.026,8117.8
593.192,8059.2
593.358,8156.1
593.524,8140.1
593.69,8178.9
593.856,8097.4
594.021,8188.2
594.187,8198.1
594.353,8190.2
594.519,8185.0
594.685,8183.3
594.851,8152.2
595.016,8340.8
595.182,8154.1
595.348,8269.9
595.514,8464.5
595.68,8360.3
595.845,8366.9
596.011,8288.0
596.177,8453.5
596.342,8455.4
596.508,8379.0
596.674,8461.7
596.84,8532.6
597.005,8351.0
597.171,8470.4
597.337,8511.0
597.502,8377.7
597.668,8517.9
597.834,8514.3
597.999,8503.6
598.165,8523.6
598.331,8554.1
598.496,8622.5
598.662,8569.5
598.828,8622.4
598.993,8548.4
599.159,8671.5
599.324,8648.6
599.49,8767.8
599.656,8805.5
599.821,8727.7
599.987,8744.4
600.152,8762.8
600.318,8895.9
600.483,8676.8
600.649,8852.7
600.814,8883.8
600.98,8918.9
601.145,9048.3
601.311,8918.1
601.476,8985.0
601.642,8911.7
601.807,9066.0
601.973,8988.2
602.138,8941.0
602.304,9094.6
602.469,9107.5
602.635,9082.3
602.8,9054.8
602.965,9068.6
603.131,9264.6
603.296,9169.7
603.462,9284.3
603.627,9210.9
603.792,9213.6
603.958,9147.4
604.123,9413.9
604.288,9337.6
604.454,9239.1
604.619,9496.9
604.784,9405.2
604.95,9371.7
605.115,9439.2
605.28,9324.0
605.446,9633.6
605.611,9506.0
605.776,9514.2
605.941,9612.8
606.107,9427.3
606.272,9745.6
606.437,9652.0
606.602,9682.5
606.767,9696.1
606.933,9899.3
607.098,9765.5
607.263,9816.0
607.428,9859.2
607.593,9985.1
607.759,9864.6
607.924,9825.6
608.089,9871.2
608.254,9932.4
608.419,10007.5
608.584,9894.0
608.749,10126.2
608.915,10057.5
609.08,10065.0
609.245,10158.1
609.41,10220.1
609.575,10195.1
609.74,10118.5
609.905,10380.0
610.07,10291.2
610.235,10226.0
610.4,10416.0
610.565,10448.3
610.73,10365.1
610.895,10495.2
611.06,10654.7
611.225,10557.9
611.39,10463.3
611.555,10342.5
611.72,10488.3
611.885,10831.6
612.05,10799.2
612.215,10492.9
612.38,10787.9
612.545,10675.8
612.71,10783.5
612.875,10686.8
613.04,10945.4
613.204,11013.6
613.369,10927.7
613.534,10969.7
613.699,10893.3
613.864,10878.0
614.029,11075.1
614.194,11150.4
614.358,11203.7
614.523,11076.5
614.688,11207.1
614.853,11207.3
615.018,11118.8
615.182,11265.3
615.347,11321.9
615.512,11351.0
615.677,11186.2
615.841,11431.7
616.006,11581.4
616.171,11543.5
616.336,11444.9
616.5,11356.8
616.665,11502.3
616.83,11359.6
616.994,11453.7
617.159,11593.5
617.324,11709.2
617.489,11574.4
617.653,11462.1
617.818,11602.6
617.982,11890.4
618.147,11767.9
618.312,11518.6
618.476,11824.4
618.641,11921.2
618.805,11756.4
618.97,11931.5
619.135,11944.5
619.299,11862.5
619.464,12123.2
619.628,11926.2
619.793,12119.9
619.957,12170.3
620.122,12179.4
620.286,12141.1
620.451,12147.3
620.615,12080.2
620.78,12202.4
620.944,12169.2
621.109,12229.9
621.273,12225.8
621.438,12263.1
621.602,12095.7
621.767,12402.6
621.931,12208.5
622.095,12266.9
622.26,12282.6
622.424,12190.4
622.589,12372.8
622.753,12542.1
622.917,12357.9
623.082,12563.8
623.246,12343.2
623.41,12425.3
623.575,12572.1
623.739,12425.4
623.903,12627.9
624.068,12642.1
624.232,12625.6
624.396,12641.2
624.561,12719.7
624.725,12576.7
624.889,12658.3
625.053,12846.8
625.218,12759.5
625.382,12732.6
625.546,12637.6
625.71,12695.6
625.875,12535.8
626.039,12653.1
626.203,12830.4
626.367,12623.6
626.531,12776.1
626.695,12984.5
626.86,12740.9
627.024,12764.7
627.188,12749.1
627.352,13046.1
627.516,12737.8
627.68,12914.4
627.844,12661.6
628.008,13314.1
628.172,12945.2
628.337,12878.2
628.501,13107.5
628.665,13083.4
628.829,13173.1
628.993,12999.3
629.157,13160.7
629.321,13241.3
629.485,13055.2
629.649,13212.9
629.813,13355.6
629.977,12972.6
630.141,12962.2
630.305,13084.4
630.469,13097.4
630.633,13405.6
630.797,13245.4
630.96,13123.5
631.124,13150.5
631.288,13229.8
631.452,13306.9
631.616,13220.0
631.78,13063.5
631.944,13246.0
632.108,12958.9
632.272,13216.4
632.435,13235.8
632.599,13255.6
632.763,13559.9
632.927,13294.5
633.091,13296.8
633.254,13411.6
633.418,13366.0
633.582,13440.3
633.746,12943.2
633.91,13170.1
634.073,13435.2
634.237,13138.6
634.401,13336.1
634.564,13440.4
634.728,13302.6
634.892,13192.4
635.056,12968.4
635.219,13114.5
635.383,13123.9
635.547,13347.6
635.71,13166.3
635.874,13171.9
636.038,13020.7
636.201,13110.2
636.365,13110.6
636.528,13108.8
636.692,13263.5
636.856,12961.1
637.019,13166.5
637.183,13140.3
637.346,13280.7
637.51,13212.6
637.673,13151.9
637.837,13168.0
638.0,13003.4
638.164,13220.4
638.327,13084.7
638.491,13237.8
638.654,13083.8
638.818,13101.8
638.981,13100.4
639.145,13084.6
639.308,13048.4
639.472,13155.8
639.635,12962.6
639.799,12891.0
639.962,12869.9
640.125,12868.6
640.289,13245.0
640.452,12767.4
640.616,12719.8
640.779,12748.4
640.942,12627.4
641.106,13001.5
641.269,12989.1
641.432,12863.1
641.596,12550.7
641.759,12866.3
641.922,12600.7
642.085,12556.5
642.249,12836.9
642.412,12943.8
642.575,12638.5
642.738,12661.3
642.902,12826.6
643.065,12503.4
643.228,12570.0
643.391,12514.0
643.555,12712.0
643.718,12505.8
643.881,12463.3
644.044,12852.9
644.207,12504.3
644.37,12778.3
644.534,12432.1
644.697,12384.6
644.86,12331.7
645.023,12497.4
645.186,12616.0
645.349,12622.4
645.512,12490.3
645.675,12573.3
645.838,12525.0
646.001,12219.3
646.164,12233.0
646.327,12196.5
646.49,12421.8
646.653,12273.1
646.816,12329.7
646.979,12286.5
647.142,12249.4
647.305,12074.8
647.468,11993.7
647.631,11926.2
647.794,12067.3
647.957,11896.6
648.12,12098.4
648.283,12168.3
648.446,11620.1
648.609,11940.5
648.772,12208.6
648.935,11810.3
649.098,11802.7
649.26,11947.7
649.423,11561.6
649.586,11828.8
649.749,11549.7
649.912,11687.8
650.075,11579.1
650.237,11540.8
650.4,11564.0
650.563,11415.1
650.726,11632.5
650.888,11362.9
651.051,11706.1
651.214,11411.4
651.377,11516.1
651.539,11473.7
651.702,11015.1
651.865,11362.3
652.027,11560.8
652.19,11589.3
652.353,11211.3
652.515,11122.9
652.678,11300.0
652.841,11147.2
653.003,10965.7
653.166,11118.1
653.329,10763.0
653.491,10744.4
653.654,10955.0
653.816,10795.0
653.979,10752.3
654.142,10884.3
654.304,10635.2
654.467,10586.6
654.629,10419.8
654.792,10651.8
654.954,10717.0
655.117,10762.6
655.279,10730.2
655.442,10524.3
655.604,10399.9
655.767,10661.0
655.929,10485.0
656.091,10398.1
656.254,10625.9
656.416,10794.6
656.579,10265.8
656.741,10280.5
656.904,10302.8
657.066,10276.8
657.228,10108.5
657.391,10281.3
657.553,10146.5
657.715,10228.8
657.878,10105.4
658.04,9896.1
658.202,10150.2
658.365,9913.2
658.527,9809.8
658.689,9761.7
658.851,9849.1
659.014,9812.0
659.176,9671.3
659.338,9719.6
659.5,9605.3
659.663,9865.6
659.825,9660.7
659.987,9986.4
660.149,9381.9
660.311,9527.4
660.474,9525.5
660.636,9589.4
660.798,9577.6
660.96,9567.9
661.041,9417.8