File: spectra/VLFR_08-PLA_bio_Raman_25f413bb.csv
nm,Intensity
526.508,830.3
526.645,830.5
526.782,829.3
526.919,831.5
527.055,831.6
527.192,831.0
527.329,830.8
527.465,828.9
527.602,829.9
527.739,830.1
527.875,831.0
528.012,831.7
528.149,831.7
528.285,828.9
528.422,830.2
528.558,830.5
528.695,830.8
528.832,829.4
528.968,830.6
529.105,832.0
529.241,829.7
529.378,828.7
529.514,831.1
529.651,830.3
529.787,829.4
529.924,830.6
530.061,831.3
530.197,830.6
530.334,831.4
530.47,831.1
530.606,829.9
530.743,830.6
530.879,829.7
531.016,829.3
531.152,830.4
531.289,830.6
531.425,830.7
531.562,827.4
531.698,829.2
531.834,832.0
531.971,837.4
532.107,880.5
532.244,897.9
532.38,844.9
532.516,830.7
532.653,828.9
532.789,830.4
532.925,830.5
533.062,830.3
533.198,829.8
533.334,830.5
533.471,831.6
533.607,832.1
533.743,846.7
533.879,923.0
534.016,1038.4
534.152,1085.3
534.288,1072.6
534.424,1052.6
534.561,1038.7
534.697,1029.9
534.833,1018.8
534.969,1003.0
535.106,990.1
535.242,984.5
535.378,982.3
535.514,980.8
535.65,969.3
535.786,964.1
535.923,957.2
536.059,955.3
536.195,956.6
536.331,959.5
536.467,954.3
536.603,961.4
536.739,958.6
536.876,958.9
537.012,949.6
537.148,949.4
537.284,947.2
537.42,948.5
537.556,949.0
537.692,945.7
537.828,945.2
537.964,946.8
538.1,945.6
538.236,940.8
538.372,940.3
538.508,933.6
538.644,930.5
538.78,928.6
538.916,930.0
539.052,931.7
539.188,932.9
539.324,928.7
539.46,929.0
539.596,925.4
539.732,922.0
539.868,920.1
540.004,920.1
540.14,924.5
540.275,923.3
540.411,933.2
540.547,938.6
540.683,945.5
540.819,943.1
540.955,942.7
541.091,946.0
541.227,946.5
541.362,944.0
541.498,942.4
541.634,937.4
541.77,931.4
541.906,929.5
542.041,927.6
542.177,925.9
542.313,927.0
542.449,930.5
542.585,932.4
542.72,927.3
542.856,926.0
542.992,935.4
543.128,940.8
543.263,947.8
543.399,956.6
543.535,964.8
543.67,968.9
543.806,969.3
543.942,966.3
544.078,964.5
544.213,959.9
544.349,950.1
544.485,938.9
544.62,939.4
544.756,935.4
544.892,935.5
545.027,929.1
545.163,927.7
545.298,929.9
545.434,928.1
545.57,921.9
545.705,924.0
545.841,926.7
545.976,925.7
546.112,924.9
546.248,920.2
546.383,922.6
546.519,924.4
546.654,925.4
546.79,927.4
546.925,928.2
547.061,928.7
547.196,928.6
547.332,930.7
547.467,932.3
547.603,931.0
547.738,930.0
547.874,933.6
548.009,932.0
548.145,928.8
548.28,932.8
548.416,932.4
548.551,931.9
548.686,932.2
548.822,931.5
548.957,935.9
549.093,934.0
549.228,934.5
549.363,933.7
549.499,935.0
549.634,938.7
549.77,936.9
549.905,934.7
550.04,931.8
550.176,936.5
550.311,934.4
550.446,934.5
550.582,937.7
550.717,941.6
550.852,941.1
550.988,940.0
551.123,940.4
551.258,942.6
551.394,939.0
551.529,946.2
551.664,944.8
551.799,944.0
551.935,947.8
552.07,946.8
552.205,946.5
552.34,947.2
552.476,944.8
552.611,948.9
552.746,949.0
552.881,948.0
553.016,951.6
553.152,948.3
553.287,943.0
553.422,944.6
553.557,943.2
553.692,950.5
553.827,954.1
553.963,957.4
554.098,961.8
554.233,954.4
554.368,950.1
554.503,951.7
554.638,948.6
554.773,945.2
554.908,943.2
555.043,944.3
555.179,940.3
555.314,942.1
555.449,941.4
555.584,938.8
555.719,936.5
555.854,943.8
555.989,936.1
556.124,934.6
556.259,941.0
556.394,936.5
556.529,937.4
556.664,943.5
556.799,942.2
556.934,944.8
557.069,944.0
557.204,945.7
557.339,957.3
557.474,964.6
557.609,974.5
557.744,1001.2
557.879,1045.6
558.014,1093.4
558.149,1124.8
558.284,1086.9
558.419,1022.4
558.553,981.3
558.688,970.0
558.823,962.8
558.958,958.8
559.093,959.6
559.228,956.8
559.363,957.8
559.498,956.3
559.632,958.2
559.767,954.4
559.902,952.6
560.037,955.4
560.172,950.3
560.307,951.2
560.441,947.7
560.576,949.6
560.711,947.3
560.846,948.3
560.981,950.2
561.115,950.1
561.25,946.8
561.385,944.0
561.52,943.5
561.654,945.7
561.789,942.9
561.924,949.0
562.059,945.2
562.193,943.5
562.328,945.2
562.463,951.8
562.598,953.1
562.732,955.2
562.867,959.1
563.002,966.5
563.136,968.7
563.271,983.6
563.406,994.2
563.54,1002.1
563.675,992.3
563.81,983.2
563.944,969.3
564.079,961.8
564.213,959.4
564.348,959.5
564.483,958.7
564.617,963.6
564.752,971.1
564.887,975.9
565.021,991.2
565.156,990.0
565.29,982.0
565.425,980.9
565.559,979.6
565.694,981.2
565.828,993.5
565.963,1003.7
566.098,1015.4
566.232,1015.8
566.367,1008.8
566.501,990.6
566.636,982.0
566.77,962.5
566.905,957.3
567.039,955.3
567.174,956.1
567.308,954.2
567.443,954.8
567.577,954.5
567.711,960.7
567.846,971.1
567.98,968.2
568.115,968.0
568.249,964.9
568.384,963.0
568.518,964.5
568.652,962.2
568.787,961.2
568.921,959.5
569.056,963.6
569.19,963.7
569.324,965.8
569.459,959.6
569.593,964.0
569.727,960.6
569.862,960.0
569.996,962.1
570.131,962.0
570.265,960.6
570.399,959.4
570.534,960.4
570.668,959.9
570.802,965.5
570.936,966.3
571.071,964.9
571.205,967.2
571.339,969.7
571.474,989.0
571.608,999.2
571.742,996.1
571.876,986.1
572.011,983.3
572.145,980.9
572.279,981.5
572.413,977.3
572.548,978.0
572.682,976.5
572.816,980.6
572.95,979.0
573.084,979.7
573.219,982.7
573.353,978.3
573.487,986.2
573.621,987.0
573.755,989.6
573.889,983.1
574.024,981.8
574.158,979.2
574.292,983.7
574.426,991.6
574.56,992.8
574.694,993.9
574.828,984.8
574.963,973.6
575.097,967.2
575.231,967.7
575.365,967.1
575.499,971.2
575.633,965.6
575.767,966.8
575.901,967.4
576.035,972.9
576.169,975.9
576.303,990.7
576.437,1014.8
576.571,1033.3
576.706,1055.3
576.84,1061.5
576.974,1055.3
577.108,1037.3
577.242,1017.8
577.376,997.4
577.51,982.7
577.644,982.3
577.778,975.6
577.912,972.2
578.046,971.4
578.179,971.0
578.313,968.5
578.447,972.8
578.581,965.1
578.715,968.7
578.849,968.7
578.983,968.1
579.117,971.9
579.251,969.2
579.385,968.7
579.519,966.7
579.653,964.5
579.787,967.6
579.921,966.6
580.054,967.1
580.188,968.9
580.322,969.4
580.456,969.9
580.59,967.2
580.724,966.0
580.858,967.1
580.991,967.1
581.125,968.2
581.259,965.0
581.393,971.8
581.527,968.7
581.661,966.0
581.794,969.4
581.928,967.4
582.062,972.2
582.196,968.5
582.33,968.0
582.463,969.3
582.597,970.7
582.731,966.7
582.865,968.4
582.998,975.2
583.132,972.4
583.266,969.9
583.4,973.6
583.533,970.3
583.667,969.2
583.801,970.7
583.935,972.1
584.068,971.9
584.202,972.7
584.336,974.1
584.469,975.4
584.603,972.5
584.737,967.1
584.87,974.5
585.004,974.8
585.138,975.1
585.271,976.3
585.405,971.5
585.539,975.0
585.672,972.2
585.806,978.4
585.94,981.6
586.073,973.5
586.207,980.0
586.34,978.8
586.474,989.1
586.608,1003.0
586.741,1011.0
586.875,1027.7
587.008,1028.2
587.142,1031.8
587.276,1041.8
587.409,1046.7
587.543,1061.0
587.676,1052.5
587.81,1037.9
587.943,1016.8
588.077,1002.2
588.21,988.1
588.344,982.3
588.478,972.9
588.611,972.0
588.745,971.1
588.878,975.7
589.012,971.6
589.145,968.8
589.279,977.6
589.412,974.6
589.546,968.4
589.679,971.3
589.812,970.0
589.946,972.0
590.079,975.7
590.213,973.3
590.346,968.0
590.48,972.2
590.613,970.5
590.747,966.3
590.88,972.1
591.013,972.0
591.147,972.0
591.28,969.1
591.414,968.1
591.547,975.2
591.68,972.5
591.814,968.5
591.947,974.1
592.081,969.4
592.214,973.3
592.347,967.5
592.481,973.3
592.614,969.5
592.747,970.1
592.881,968.3
593.014,973.9
593.147,968.3
593.281,971.5
593.414,968.9
593.547,966.4
593.681,966.0
593.814,965.6
593.947,969.9
594.081,967.3
594.214,970.7
594.347,971.0
594.48,972.0
594.614,971.3
594.747,969.9
594.88,966.6
595.014,966.4
595.147,966.7
595.28,971.2
595.413,969.3
595.547,971.4
595.68,968.0
595.813,967.2
595.946,969.2
596.079,970.5
596.213,969.4
596.346,969.5
596.479,971.7
596.612,970.9
596.745,974.1
596.879,970.7
597.012,969.0
597.145,970.6
597.278,972.1
597.411,971.2
597.545,969.4
597.678,968.8
597.811,973.0
597.944,972.9
598.077,970.2
598.21,969.8
598.343,967.7
598.476,971.4
598.61,975.3
598.743,973.1
598.876,973.3
599.009,972.0
599.142,974.8
599.275,976.4
599.408,973.2
599.541,974.2
599.674,969.3
599.807,973.6
599.941,968.3
600.074,969.4
600.207,965.7
600.34,969.3
600.473,968.7
600.606,965.7
600.739,970.6
600.872,968.3
601.005,971.0
601.138,966.0
601.271,962.1
601.404,965.2
601.537,972.4
601.67,969.8
601.803,967.5
601.936,969.7
602.069,966.0
602.202,970.2
602.335,972.3
602.468,965.0
602.601,966.6
602.734,963.8
602.867,967.8
603.0,970.9
603.133,967.3
603.266,967.7
603.399,968.2
603.532,966.0
603.664,972.0
603.797,971.7
603.93,966.4
604.063,963.2
604.196,967.6
604.329,968.9
604.462,966.8
604.595,965.3
604.728,965.6
604.861,964.2
604.994,963.0
605.126,960.9
605.259,967.9
605.392,960.8
605.525,961.2
605.658,962.0
605.791,964.1
605.924,961.3
606.056,961.2
606.189,966.3
606.322,962.3
606.455,961.8
606.588,958.1
606.721,963.4
606.853,959.1
606.986,961.0
607.119,961.9
607.252,963.0
607.385,966.1
607.517,964.3
607.65,968.1
607.783,961.4
607.916,966.0
608.049,963.8
608.181,966.7
608.314,961.1
608.447,963.8
608.58,959.3
608.712,961.8
608.845,964.4
608.978,967.6
609.111,965.5
609.243,958.9
609.376,968.9
609.509,960.8
609.641,963.5
609.774,962.2
609.907,960.5
610.04,960.4
610.172,960.5
610.305,964.7
610.438,960.8
610.57,961.3
610.703,959.3
610.836,960.7
610.968,961.9
611.101,959.3
611.234,963.9
611.366,957.9
611.499,964.3
611.632,957.5
611.764,961.3
611.897,963.7
612.03,959.5
612.162,961.5
612.295,961.1
612.428,962.6
612.56,962.9
612.693,962.8
612.825,962.3
612.958,963.5
613.091,960.9
613.223,961.9
613.356,961.7
613.488,966.2
613.621,965.2
613.754,962.8
613.886,962.5
614.019,960.7
614.151,965.2
614.284,967.0
614.416,963.2
614.549,965.1
614.681,964.4
614.814,960.7
614.947,967.4
615.079,963.1
615.212,964.7
615.344,967.5
615.477,960.3
615.609,966.6
615.742,961.1
615.874,960.8
616.007,967.1
616.139,968.8
616.272,964.1
616.404,968.5
616.537,965.8
616.669,962.3
616.802,964.0
616.934,964.1
617.067,963.6
617.199,966.9
617.332,961.1
617.464,960.0
617.596,964.0
617.729,964.0
617.861,962.6
617.994,962.4
618.126,961.4
618.259,961.7
618.391,964.3
618.524,967.2
618.656,959.9
618.788,963.5
618.921,961.0
619.053,964.0
619.186,968.6
619.318,957.7
619.45,956.5
619.583,958.4
619.715,961.9
619.848,963.5
619.98,958.1
620.112,959.3
620.245,957.0
620.377,961.0
620.509,960.0
620.642,957.3
620.774,959.0
620.907,958.4
621.039,957.5
621.171,959.0
621.304,958.6
621.436,962.9
621.568,962.1
621.701,962.6
621.833,954.8
621.965,962.2
622.097,961.4
622.23,963.5
622.362,968.6
622.494,967.6
622.627,968.0
622.759,977.3
622.891,978.6
623.024,976.5
623.156,980.5
623.288,977.1
623.42,973.9
623.553,975.9
623.685,970.3
623.817,971.1
623.949,964.7
624.082,966.5
624.214,967.0
624.346,962.5
624.479,965.8
624.611,963.2
624.743,966.5
624.875,957.6
625.007,960.2
625.14,962.1
625.272,960.1
625.404,965.4
625.536,957.4
625.669,959.8
625.801,955.7
625.933,958.2
626.065,962.7
626.197,961.6
626.33,960.2
626.462,958.2
626.594,957.3
626.726,960.5
626.858,962.3
626.99,962.5
627.123,960.3
627.255,960.4
627.387,962.6
627.519,962.4
627.651,964.5
627.783,969.3
627.916,971.7
628.048,986.3
628.18,1004.7
628.312,1031.3
628.444,1059.6
628.576,1067.6
628.708,1058.2
628.84,1050.2
628.973,1040.7
629.105,1028.1
629.237,1033.6
629.369,1035.8
629.501,1034.4
629.633,1035.5
629.765,1036.7
629.897,1043.0
630.029,1042.0
630.161,1052.7
630.294,1063.2
630.426,1083.7
630.558,1113.2
630.69,1177.2
630.822,1285.1
630.954,1439.2
631.086,1557.1
631.218,1591.0
631.35,1484.4
631.482,1370.4
631.614,1262.6
631.746,1201.0
631.878,1160.5
632.01,1126.4
632.142,1112.2
632.274,1102.8
632.406,1098.7
632.538,1086.3
632.67,1092.1
632.802,1096.8
632.934,1139.5
633.066,1169.7
633.198,1195.2
633.33,1201.9
633.462,1195.8
633.594,1183.6
633.726,1158.6
633.858,1124.0
633.99,1091.6
634.122,1066.6
634.254,1036.4
634.386,1021.4
634.518,1001.1
634.65,989.9
634.782,978.6
634.914,969.6
635.046,968.0
635.178,963.2
635.31,959.3
635.442,959.4
635.574,954.5
635.706,957.4
635.838,954.2
635.97,956.7
636.102,951.8
636.234,955.6
636.365,949.8
636.497,952.6
636.629,956.8
636.761,949.9
636.893,947.3
637.025,950.1
637.157,947.2
637.289,950.2
637.421,945.1
637.553,950.6
637.685,953.0
637.816,946.3
637.948,943.0
638.08,950.1
638.212,947.8
638.344,942.0
638.476,949.7
638.608,944.3
638.74,945.7
638.871,944.5
639.003,943.5
639.135,945.9
639.267,944.8
639.399,942.5
639.531,943.8
639.662,944.0
639.794,944.8
639.926,946.8
640.058,945.3
640.19,943.7
640.322,945.3
640.453,945.6
640.585,946.3
640.717,944.9
640.849,945.3
640.981,944.2
641.113,945.4
641.244,943.1
641.376,946.4
641.508,947.2
641.64,948.3
641.772,945.3
641.903,946.6
642.035,942.3
642.167,944.3
642.299,940.3
642.43,944.3
642.562,949.1
642.694,941.2
642.826,943.9
642.958,939.2
643.089,941.1
643.221,940.7
643.353,935.8
643.485,940.0
643.616,938.5
643.748,936.8
643.88,936.2
644.012,935.1
644.143,938.5
644.275,941.1
644.407,933.7
644.538,933.9
644.67,934.1
644.802,938.2
644.934,937.4
645.065,932.8
645.197,935.4
645.329,936.2
645.461,934.8
645.592,934.3
645.724,933.6
645.856,931.2
645.987,933.0
646.119,931.5
646.251,932.1
646.382,935.4
646.514,930.1
646.646,930.2
646.777,935.3
646.909,932.4
647.041,928.7
647.172,936.0
647.304,934.2
647.436,932.4
647.567,930.2
647.699,932.0
647.831,932.0
647.962,927.6
648.094,931.1
648.226,930.1
648.357,930.3
648.489,928.5
648.621,936.7
648.752,928.9
648.884,926.1
649.016,930.2
649.147,931.5
649.279,926.0
649.411,933.7
649.542,930.8
649.674,925.4
649.805,927.7
649.937,929.6
650.069,925.2
650.2,930.4
650.332,925.4
650.463,930.1
650.595,926.0
650.727,929.8
650.858,926.3
650.99,928.1
651.121,925.1
651.253,926.6
651.385,925.4
651.516,928.5
651.648,926.0
651.779,922.2
651.911,930.1
652.043,930.8
652.174,930.8
652.306,926.2
652.437,923.4
652.569,924.8
652.7,927.3
652.832,925.8
652.963,925.6
653.095,927.0
653.227,927.6
653.358,928.6
653.49,922.4
653.621,924.7
653.753,928.0
653.884,925.9
654.016,924.2
654.147,926.5
654.279,926.7
654.41,923.3
654.542,922.7
654.674,926.3
654.805,923.0
654.937,922.7
655.068,924.5
655.2,921.0
655.331,923.3
655.463,921.6
655.594,921.4
655.726,925.7
655.857,923.1
655.989,922.5
656.12,924.9
656.252,922.5
656.383,925.0
656.515,925.2
656.646,921.4
656.778,923.7
656.909,926.7
657.041,925.6
657.172,923.9
657.304,923.9
657.435,923.2
657.567,927.4
657.698,925.3
657.829,925.3
657.961,924.8
658.092,926.3
658.224,919.6
658.355,920.0
658.487,925.6
658.618,922.9
658.75,920.6
658.881,924.6
659.013,920.9
659.144,922.3
659.275,924.1
659.407,925.1
659.538,923.4
659.67,918.5
659.801,922.1
659.933,918.8
660.064,919.5
660.196,917.6
660.327,919.3
660.458,920.8
660.59,921.8
660.721,920.4
660.853,922.6
660.984,920.0
661.116,917.6
661.247,917.8
661.378,918.7
661.51,917.9
661.641,916.8
661.773,915.2
661.904,917.2
662.035,916.0
662.167,917.3
662.298,917.5
662.43,916.8
662.561,915.3
662.692,917.7
662.824,919.1
662.955,918.4
663.087,917.3