File: spectra/VLFR_08-PLA_bio_Raman_49cc82cc.csv
nm,Intensity
528.626,1859.0
528.795,1860.5
528.963,1861.0
529.132,1859.9
529.3,1860.0
529.469,1859.5
529.637,1858.4
529.806,1858.1
529.974,1859.8
530.143,1858.2
530.311,1861.3
530.48,1860.4
530.648,1861.5
530.816,1860.6
530.985,1859.6
531.153,1865.5
531.322,1867.5
531.49,1880.9
531.658,1937.4
531.827,2985.1
531.995,7131.5
532.164,6680.5
532.332,2447.6
532.5,1869.4
532.669,1862.4
532.837,1863.3
533.006,1862.7
533.174,1864.7
533.342,1870.4
533.511,1941.6
533.679,2386.2
533.847,3226.1
534.016,3637.3
534.184,3657.1
534.352,3502.1
534.521,3346.3
534.689,3283.1
534.857,3228.1
535.025,3100.1
535.194,3043.8
535.362,2966.3
535.53,2876.6
535.699,2765.8
535.867,2700.8
536.035,2709.2
536.203,2700.6
536.372,2722.6
536.54,2740.1
536.708,2737.3
536.876,2717.0
537.044,2644.9
537.213,2614.5
537.381,2630.3
537.549,2663.0
537.717,2652.7
537.885,2603.5
538.054,2557.8
538.222,2498.6
538.39,2455.2
538.558,2443.2
538.726,2429.1
538.894,2430.7
539.063,2443.6
539.231,2424.1
539.399,2379.8
539.567,2349.8
539.735,2308.8
539.903,2308.3
540.071,2346.1
540.239,2396.8
540.408,2470.8
540.576,2544.1
540.744,2554.5
540.912,2551.1
541.08,2539.5
541.248,2537.6
541.416,2510.3
541.584,2462.0
541.752,2398.6
541.92,2384.6
542.088,2382.2
542.256,2384.9
542.424,2380.8
542.592,2367.2
542.76,2382.8
542.928,2463.7
543.096,2522.8
543.264,2636.1
543.432,2746.8
543.6,2778.4
543.768,2797.5
543.936,2782.5
544.104,2710.0
544.272,2566.8
544.44,2472.8
544.608,2412.8
544.776,2372.4
544.944,2358.4
545.112,2336.8
545.28,2320.5
545.448,2285.3
545.616,2275.2
545.784,2289.7
545.951,2307.1
546.119,2289.6
546.287,2276.4
546.455,2270.3
546.623,2294.2
546.791,2302.2
546.959,2331.0
547.127,2328.3
547.294,2316.5
547.462,2324.5
547.63,2315.6
547.798,2320.4
547.966,2311.4
548.134,2306.7
548.301,2323.5
548.469,2319.6
548.637,2328.0
548.805,2321.0
548.972,2335.9
549.14,2333.1
549.308,2338.5
549.476,2336.7
549.644,2332.3
549.811,2317.0
549.979,2336.7
550.147,2325.3
550.315,2348.5
550.482,2341.4
550.65,2367.4
550.818,2389.8
550.985,2385.1
551.153,2398.0
551.321,2420.7
551.488,2409.6
551.656,2421.0
551.824,2425.4
551.991,2433.1
552.159,2429.7
552.327,2445.7
552.494,2458.4
552.662,2453.4
552.83,2456.3
552.997,2465.2
553.165,2419.0
553.333,2370.1
553.5,2401.1
553.668,2431.1
553.835,2526.3
554.003,2536.4
554.171,2502.3
554.338,2465.8
554.506,2453.6
554.673,2418.1
554.841,2403.4
555.008,2393.1
555.176,2367.7
555.343,2343.0
555.511,2319.9
555.679,2298.7
555.846,2307.8
556.014,2307.3
556.181,2311.2
556.349,2320.0
556.516,2344.0
556.684,2323.3
556.851,2365.2
557.018,2396.5
557.186,2465.0
557.353,2589.6
557.521,2764.3
557.688,3164.0
557.856,3733.3
558.023,4322.6
558.191,4244.6
558.358,3406.0
558.525,2850.8
558.693,2661.1
558.86,2626.9
559.028,2565.4
559.195,2554.7
559.362,2526.6
559.53,2528.0
559.697,2500.7
559.864,2477.0
560.032,2447.1
560.199,2445.3
560.366,2429.7
560.534,2411.1
560.701,2415.1
560.868,2393.0
561.036,2378.8
561.203,2353.7
561.37,2379.5
561.538,2377.0
561.705,2353.3
561.872,2374.9
562.039,2372.2
562.207,2382.2
562.374,2404.0
562.541,2448.4
562.708,2513.8
562.876,2558.7
563.043,2701.3
563.21,2860.5
563.377,2999.7
563.545,2989.2
563.712,2846.9
563.879,2687.2
564.046,2585.1
564.213,2499.3
564.38,2530.1
564.548,2575.2
564.715,2677.0
564.882,2778.2
565.049,2847.5
565.216,2855.1
565.383,2804.5
565.551,2786.9
565.718,2879.6
565.885,3087.3
566.052,3212.0
566.219,3185.7
566.386,2999.1
566.553,2746.4
566.72,2586.9
566.887,2493.2
567.054,2452.4
567.221,2461.0
567.388,2445.2
567.555,2500.7
567.722,2554.5
567.889,2589.0
568.057,2592.6
568.224,2532.6
568.391,2521.6
568.558,2534.7
568.725,2531.9
568.892,2512.8
569.058,2544.3
569.225,2534.2
569.392,2498.3
569.559,2489.2
569.726,2458.6
569.893,2463.8
570.06,2467.1
570.227,2458.4
570.394,2490.9
570.561,2499.8
570.728,2481.8
570.895,2499.8
571.062,2538.3
571.229,2635.6
571.395,2752.8
571.562,2870.2
571.729,2887.6
571.896,2791.8
572.063,2777.8
572.23,2700.0
572.397,2660.6
572.563,2661.9
572.73,2679.0
572.897,2674.1
573.064,2669.0
573.231,2715.2
573.397,2686.8
573.564,2709.3
573.731,2741.9
573.898,2676.1
574.064,2661.9
574.231,2702.4
574.398,2794.0
574.565,2802.9
574.731,2726.5
574.898,2561.8
575.065,2513.1
575.232,2486.1
575.398,2498.2
575.565,2505.3
575.732,2522.9
575.898,2535.2
576.065,2611.7
576.232,2782.3
576.398,3112.6
576.565,3444.4
576.732,3590.2
576.898,3580.4
577.065,3307.5
577.232,2979.7
577.398,2710.9
577.565,2595.3
577.731,2542.0
577.898,2496.8
578.065,2488.7
578.231,2496.8
578.398,2474.2
578.564,2463.8
578.731,2469.2
578.897,2493.8
579.064,2482.4
579.23,2460.7
579.397,2479.6
579.563,2472.3
579.73,2463.6
579.896,2472.4
580.063,2471.8
580.229,2479.8
580.396,2462.3
580.562,2457.1
580.729,2474.6
580.895,2459.7
581.062,2457.8
581.228,2466.7
581.395,2466.5
581.561,2481.8
581.728,2473.0
581.894,2491.1
582.06,2472.7
582.227,2461.1
582.393,2497.9
582.56,2446.8
582.726,2476.6
582.892,2483.2
583.059,2478.6
583.225,2483.7
583.391,2481.7
583.558,2513.6
583.724,2484.7
583.89,2490.6
584.057,2503.3
584.223,2501.0
584.389,2523.9
584.556,2490.1
584.722,2475.4
584.888,2501.9
585.054,2487.6
585.221,2495.5
585.387,2507.1
585.553,2533.2
585.719,2493.7
585.886,2526.3
586.052,2547.7
586.218,2599.9
586.384,2658.3
586.55,2830.2
586.717,2983.8
586.883,3135.5
587.049,3275.1
587.215,3351.7
587.381,3459.6
587.548,3418.7
587.714,3277.7
587.88,3086.3
588.046,2835.8
588.212,2653.5
588.378,2571.4
588.544,2560.6
588.71,2560.9
588.876,2495.9
589.043,2530.6
589.209,2515.2
589.375,2522.6
589.541,2529.1
589.707,2510.6
589.873,2501.3
590.039,2501.0
590.205,2495.9
590.371,2497.9
590.537,2497.0
590.703,2485.2
590.869,2509.7
591.035,2492.0
591.201,2515.1
591.367,2508.4
591.533,2507.6
591.699,2518.3
591.865,2521.8
592.031,2495.5
592.197,2510.1
592.363,2519.4
592.529,2505.9
592.694,2513.8
592.86,2517.5
593.026,2535.7
593.192,2502.5
593.358,2480.0
593.524,2506.9
593.69,2519.4
593.856,2502.6
594.021,2502.1
594.187,2507.6
594.353,2514.6
594.519,2509.9
594.685,2534.9
594.851,2516.2
595.016,2504.3
595.182,2518.7
595.348,2530.3
595.514,2518.0
595.68,2522.5
595.845,2521.9
596.011,2533.1
596.177,2542.1
596.342,2557.2
596.508,2533.4
596.674,2526.5
596.84,2525.6
597.005,2555.5
597.171,2522.4
597.337,2548.4
597.502,2528.0
597.668,2528.5
597.834,2549.3
597.999,2548.8
598.165,2549.6
598.331,2511.3
598.496,2550.5
598.662,2544.7
598.828,2561.1
598.993,2536.7
599.159,2541.2
599.324,2539.5
599.49,2541.7
599.656,2553.3
599.821,2559.0
599.987,2538.6
600.152,2572.4
600.318,2556.6
600.483,2556.4
600.649,2558.0
600.814,2550.9
600.98,2569.4
601.145,2577.0
601.311,2548.5
601.476,2547.6
601.642,2595.8
601.807,2571.4
601.973,2564.3
602.138,2574.8
602.304,2565.7
602.469,2555.0
602.635,2561.9
602.8,2553.0
602.965,2538.5
603.131,2578.2
603.296,2573.1
603.462,2557.9
603.627,2564.7
603.792,2578.5
603.958,2603.2
604.123,2550.6
604.288,2566.6
604.454,2575.7
604.619,2564.0
604.784,2556.5
604.95,2593.2
605.115,2559.5
605.28,2563.8
605.446,2566.1
605.611,2556.2
605.776,2565.4
605.941,2547.0
606.107,2550.3
606.272,2569.1
606.437,2583.1
606.602,2577.1
606.767,2554.0
606.933,2589.1
607.098,2583.5
607.263,2578.7
607.428,2602.5
607.593,2572.5
607.759,2574.5
607.924,2570.1
608.089,2570.7
608.254,2588.1
608.419,2568.3
608.584,2557.7
608.749,2581.4
608.915,2560.1
609.08,2555.5
609.245,2588.9
609.41,2586.2
609.575,2577.8
609.74,2577.7
609.905,2575.4
610.07,2580.4
610.235,2563.6
610.4,2576.6
610.565,2577.1
610.73,2580.3
610.895,2571.7
611.06,2577.8
611.225,2572.4
611.39,2577.7
611.555,2579.0
611.72,2552.6
611.885,2557.2
612.05,2564.4
612.215,2545.3
612.38,2559.3
612.545,2571.3
612.71,2586.8
612.875,2559.3
613.04,2578.2
613.204,2563.2
613.369,2597.9
613.534,2576.1
613.699,2559.3
613.864,2547.8
614.029,2593.7
614.194,2565.2
614.358,2567.1
614.523,2580.2
614.688,2571.8
614.853,2559.8
615.018,2593.4
615.182,2551.1
615.347,2564.2
615.512,2586.1
615.677,2586.6
615.841,2550.3
616.006,2598.2
616.171,2587.6
616.336,2600.9
616.5,2565.3
616.665,2578.5
616.83,2579.8
616.994,2565.5
617.159,2595.5
617.324,2592.4
617.489,2612.2
617.653,2571.1
617.818,2598.3
617.982,2559.7
618.147,2570.8
618.312,2549.4
618.476,2554.3
618.641,2558.5
618.805,2572.5
618.97,2517.6
619.135,2581.5
619.299,2545.2
619.464,2565.5
619.628,2560.1
619.793,2547.5
619.957,2558.6
620.122,2574.0
620.286,2563.9
620.451,2563.3
620.615,2573.5
620.78,2561.4
620.944,2520.7
621.109,2561.7
621.273,2561.0
621.438,2562.7
621.602,2550.4
621.767,2561.8
621.931,2572.9
622.095,2619.5
622.26,2623.5
622.424,2676.2
622.589,2669.2
622.753,2741.7
622.917,2742.8
623.082,2763.8
623.246,2739.8
623.41,2729.1
623.575,2692.8
623.739,2652.5
623.903,2608.3
624.068,2636.6
624.232,2604.9
624.396,2594.7
624.561,2574.5
624.725,2580.2
624.889,2568.2
625.053,2570.0
625.218,2525.5
625.382,2556.5
625.546,2550.4
625.71,2543.1
625.875,2558.2
626.039,2565.7
626.203,2542.8
626.367,2551.1
626.531,2573.6
626.695,2555.6
626.86,2566.9
627.024,2568.3
627.188,2585.6
627.352,2580.7
627.516,2630.6
627.68,2677.6
627.844,2766.0
628.008,2903.9
628.172,3252.1
628.337,3566.7
628.501,3686.3
628.665,3573.8
628.829,3441.8
628.993,3347.4
629.157,3323.6
629.321,3452.9
629.485,3443.8
629.649,3379.3
629.813,3422.1
629.977,3475.0
630.141,3623.9
630.305,3892.1
630.469,4336.2
630.633,5274.2
630.797,7021.2
630.96,8654.4
631.124,9023.8
631.288,8049.3
631.452,6685.8
631.616,5539.2
631.78,4870.2
631.944,4495.8
632.108,4182.6
632.272,4105.3
632.435,4088.0
632.599,4148.1
632.763,4423.5
632.927,4929.3
633.091,5346.7
633.254,5432.8
633.418,5397.1
633.582,5005.1
633.746,4628.5
633.91,4274.5
634.073,3814.7
634.237,3434.4
634.401,3189.4
634.564,2939.8
634.728,2853.2
634.892,2746.3
635.056,2668.1
635.219,2637.4
635.383,2577.3
635.547,2560.9
635.71,2580.2
635.874,2520.5
636.038,2497.0
636.201,2544.8
636.365,2497.7
636.528,2474.2
636.692,2514.7
636.856,2492.7
637.019,2473.5
637.183,2468.5
637.346,2467.0
637.51,2449.8
637.673,2461.1
637.837,2444.7
638.0,2437.6
638.164,2444.6
638.327,2458.7
638.491,2453.1
638.654,2441.7
638.818,2428.4
638.981,2403.5
639.145,2436.2
639.308,2435.3
639.472,2424.7
639.635,2422.6
639.799,2417.9
639.962,2416.4
640.125,2421.1
640.289,2426.9
640.452,2432.1
640.616,2407.1
640.779,2430.0
640.942,2431.1
641.106,2408.9
641.269,2427.2
641.432,2439.8
641.596,2419.7
641.759,2420.4
641.922,2410.0
642.085,2410.9
642.249,2424.9
642.412,2430.6
642.575,2456.3
642.738,2447.9
642.902,2397.6
643.065,2382.2
643.228,2367.0
643.391,2390.7
643.555,2408.6
643.718,2391.7
643.881,2377.2
644.044,2380.5
644.207,2367.4
644.37,2360.8
644.534,2374.3
644.697,2355.8
644.86,2354.3
645.023,2353.6
645.186,2352.2
645.349,2330.8
645.512,2319.9
645.675,2355.9
645.838,2329.4
646.001,2319.7
646.164,2319.4
646.327,2338.0
646.49,2345.3
646.653,2321.6
646.816,2334.1
646.979,2334.4
647.142,2331.2
647.305,2313.8
647.468,2315.3
647.631,2309.3
647.794,2297.5
647.957,2322.1
648.12,2329.8
648.283,2307.7
648.446,2320.7
648.609,2276.8
648.772,2307.0
648.935,2295.1
649.098,2275.8
649.26,2296.3
649.423,2301.1
649.586,2297.9
649.749,2286.5
649.912,2282.8
650.075,2265.5
650.237,2279.6
650.4,2279.4
650.563,2301.9
650.726,2290.3
650.888,2268.0
651.051,2271.8
651.214,2285.4
651.377,2291.6
651.539,2298.6
651.702,2268.2
651.865,2284.0
652.027,2271.8
652.19,2279.3
652.353,2265.4
652.515,2282.4
652.678,2270.7
652.841,2271.7
653.003,2237.2
653.166,2245.8
653.329,2247.5
653.491,2248.2
653.654,2244.2
653.816,2242.3
653.979,2234.3
654.142,2250.2
654.304,2249.6
654.467,2247.6
654.629,2259.8
654.792,2246.5
654.954,2241.5
655.117,2235.9
655.279,2240.1
655.442,2213.6
655.604,2240.5
655.767,2242.0
655.929,2242.0
656.091,2233.3
656.254,2234.6
656.416,2217.0
656.579,2239.5
656.741,2219.7
656.904,2238.0
657.066,2229.2
657.228,2216.4
657.391,2211.1
657.553,2218.8
657.715,2220.8
657.878,2224.5
658.04,2219.0
658.202,2205.9
658.365,2193.7
658.527,2198.8
658.689,2204.5
658.851,2184.3
659.014,2187.3
659.176,2194.8
659.338,2175.3
659.5,2189.9
659.663,2189.6
659.825,2183.5
659.987,2190.1
660.149,2176.7
660.311,2184.3
660.474,2186.6
660.636,2165.5
660.798,2175.1
660.96,2182.7
661.041,2167.3