File: spectra/VLFR_08-PLA_bio_Raman_621f4408.csv
nm,Intensity
528.626,1869.8
528.795,1865.8
528.963,1866.5
529.132,1867.6
529.3,1867.4
529.469,1866.3
529.637,1867.3
529.806,1868.3
529.974,1868.5
530.143,1867.9
530.311,1867.9
530.48,1867.3
530.648,1868.9
530.816,1867.1
530.985,1868.6
531.153,1868.2
531.322,1871.2
531.49,1872.5
531.658,1882.2
531.827,2049.7
531.995,3125.4
532.164,3547.9
532.332,2251.8
532.5,1874.3
532.669,1871.0
532.837,1869.9
533.006,1868.2
533.174,1870.6
533.342,1871.8
533.511,1887.4
533.679,2004.3
533.847,2292.1
534.016,2534.3
534.184,2554.1
534.352,2531.2
534.521,2450.2
534.689,2427.4
534.857,2441.7
535.025,2410.7
535.194,2413.8
535.362,2381.8
535.53,2376.6
535.699,2344.7
535.867,2293.1
536.035,2289.7
536.203,2288.7
536.372,2299.6
536.54,2332.5
536.708,2341.1
536.876,2289.3
537.044,2254.8
537.213,2244.4
537.381,2257.0
537.549,2262.6
537.717,2259.8
537.885,2287.7
538.054,2288.6
538.222,2244.3
538.39,2228.8
538.558,2210.4
538.726,2217.2
538.894,2200.9
539.063,2213.3
539.231,2213.4
539.399,2199.4
539.567,2188.7
539.735,2174.1
539.903,2154.7
540.071,2177.4
540.239,2198.7
540.408,2227.3
540.576,2265.9
540.744,2289.8
540.912,2301.2
541.08,2289.1
541.248,2253.8
541.416,2244.0
541.584,2232.2
541.752,2214.5
541.92,2196.4
542.088,2193.2
542.256,2197.7
542.424,2192.7
542.592,2213.6
542.76,2202.7
542.928,2209.7
543.096,2233.5
543.264,2282.7
543.432,2363.5
543.6,2406.7
543.768,2446.2
543.936,2437.6
544.104,2400.8
544.272,2313.9
544.44,2258.8
544.608,2219.6
544.776,2211.4
544.944,2192.9
545.112,2206.6
545.28,2194.7
545.448,2182.0
545.616,2181.5
545.784,2198.5
545.951,2187.1
546.119,2190.8
546.287,2210.5
546.455,2189.6
546.623,2202.7
546.791,2208.0
546.959,2218.7
547.127,2212.1
547.294,2209.6
547.462,2224.8
547.63,2197.3
547.798,2198.6
547.966,2215.3
548.134,2216.0
548.301,2218.9
548.469,2220.2
548.637,2208.4
548.805,2214.9
548.972,2222.7
549.14,2211.7
549.308,2208.1
549.476,2216.8
549.644,2219.1
549.811,2216.0
549.979,2226.7
550.147,2222.9
550.315,2224.3
550.482,2239.6
550.65,2240.5
550.818,2237.5
550.985,2244.0
551.153,2254.4
551.321,2246.5
551.488,2261.9
551.656,2279.5
551.824,2281.7
551.991,2279.9
552.159,2280.2
552.327,2282.8
552.494,2271.7
552.662,2281.2
552.83,2300.2
552.997,2322.6
553.165,2313.8
553.333,2285.3
553.5,2278.9
553.668,2292.0
553.835,2341.0
554.003,2338.3
554.171,2324.0
554.338,2315.8
554.506,2286.7
554.673,2269.5
554.841,2294.4
555.008,2276.6
555.176,2249.0
555.343,2247.0
555.511,2266.4
555.679,2252.7
555.846,2247.0
556.014,2250.7
556.181,2243.7
556.349,2240.3
556.516,2259.4
556.684,2261.7
556.851,2257.6
557.018,2274.6
557.186,2291.2
557.353,2320.7
557.521,2376.5
557.688,2503.8
557.856,2735.9
558.023,3053.4
558.191,3052.0
558.358,2762.5
558.525,2477.3
558.693,2375.8
558.86,2362.2
559.028,2337.4
559.195,2339.6
559.362,2357.7
559.53,2337.2
559.697,2347.6
559.864,2319.8
560.032,2316.2
560.199,2300.1
560.366,2298.2
560.534,2287.8
560.701,2295.9
560.868,2295.3
561.036,2289.1
561.203,2287.2
561.37,2290.7
561.538,2296.8
561.705,2307.2
561.872,2304.8
562.039,2301.7
562.207,2342.6
562.374,2315.6
562.541,2301.3
562.708,2312.1
562.876,2348.8
563.043,2400.4
563.21,2464.6
563.377,2522.1
563.545,2537.0
563.712,2484.9
563.879,2412.3
564.046,2379.4
564.213,2356.4
564.38,2352.7
564.548,2361.2
564.715,2428.7
564.882,2464.7
565.049,2499.9
565.216,2462.8
565.383,2445.2
565.551,2448.1
565.718,2457.0
565.885,2530.3
566.052,2610.4
566.219,2652.0
566.386,2583.5
566.553,2485.5
566.72,2395.2
566.887,2353.0
567.054,2354.7
567.221,2335.9
567.388,2337.8
567.555,2344.4
567.722,2393.7
567.889,2406.5
568.057,2396.6
568.224,2357.0
568.391,2378.5
568.558,2374.7
568.725,2368.4
568.892,2373.0
569.058,2385.6
569.225,2381.4
569.392,2364.8
569.559,2362.2
569.726,2353.9
569.893,2350.5
570.06,2353.1
570.227,2355.2
570.394,2357.4
570.561,2347.3
570.728,2363.9
570.895,2362.8
571.062,2377.6
571.229,2411.5
571.395,2510.4
571.562,2538.5
571.729,2540.6
571.896,2490.7
572.063,2485.5
572.23,2450.5
572.397,2434.1
572.563,2403.2
572.73,2415.2
572.897,2415.7
573.064,2404.3
573.231,2425.3
573.397,2445.2
573.564,2478.0
573.731,2463.1
573.898,2459.5
574.064,2442.6
574.231,2443.2
574.398,2478.4
574.565,2513.6
574.731,2489.0
574.898,2427.8
575.065,2412.1
575.232,2366.0
575.398,2367.5
575.565,2365.2
575.732,2388.9
575.898,2371.7
576.065,2421.7
576.232,2485.7
576.398,2574.8
576.565,2688.5
576.732,2776.6
576.898,2801.0
577.065,2689.3
577.232,2584.0
577.398,2483.3
577.565,2421.7
577.731,2387.1
577.898,2376.2
578.065,2372.9
578.231,2371.6
578.398,2358.3
578.564,2363.5
578.731,2376.4
578.897,2373.0
579.064,2364.8
579.23,2355.1
579.397,2347.0
579.563,2373.4
579.73,2364.8
579.896,2362.4
580.063,2360.8
580.229,2366.0
580.396,2359.7
580.562,2363.8
580.729,2369.7
580.895,2385.0
581.062,2359.0
581.228,2355.7
581.395,2362.5
581.561,2372.5
581.728,2368.0
581.894,2369.8
582.06,2367.2
582.227,2381.8
582.393,2353.5
582.56,2367.8
582.726,2358.5
582.892,2362.9
583.059,2365.1
583.225,2379.1
583.391,2369.4
583.558,2351.1
583.724,2363.5
583.89,2375.0
584.057,2389.5
584.223,2368.9
584.389,2386.9
584.556,2371.6
584.722,2370.6
584.888,2363.8
585.054,2366.6
585.221,2344.4
585.387,2362.8
585.553,2383.4
585.719,2368.6
585.886,2369.3
586.052,2376.5
586.218,2402.6
586.384,2403.5
586.55,2461.2
586.717,2484.2
586.883,2553.4
587.049,2600.4
587.215,2694.5
587.381,2723.4
587.548,2722.2
587.714,2681.4
587.88,2578.4
588.046,2505.7
588.212,2437.7
588.378,2416.6
588.544,2402.5
588.71,2379.6
588.876,2371.8
589.043,2356.9
589.209,2361.7
589.375,2362.2
589.541,2370.7
589.707,2351.7
589.873,2379.6
590.039,2351.2
590.205,2355.7
590.371,2372.8
590.537,2362.2
590.703,2358.7
590.869,2361.8
591.035,2362.3
591.201,2373.5
591.367,2350.2
591.533,2366.8
591.699,2359.4
591.865,2356.7
592.031,2372.0
592.197,2359.2
592.363,2357.7
592.529,2359.7
592.694,2369.4
592.86,2370.1
593.026,2356.4
593.192,2356.8
593.358,2356.2
593.524,2364.7
593.69,2332.6
593.856,2361.9
594.021,2358.2
594.187,2341.4
594.353,2362.9
594.519,2359.6
594.685,2371.3
594.851,2340.4
595.016,2369.2
595.182,2360.9
595.348,2352.8
595.514,2368.1
595.68,2376.6
595.845,2364.2
596.011,2366.3
596.177,2354.7
596.342,2368.0
596.508,2352.2
596.674,2364.3
596.84,2366.2
597.005,2376.7
597.171,2351.3
597.337,2370.4
597.502,2375.8
597.668,2366.5
597.834,2366.7
597.999,2374.2
598.165,2353.8
598.331,2358.5
598.496,2358.3
598.662,2363.1
598.828,2353.7
598.993,2376.9
599.159,2364.7
599.324,2364.4
599.49,2358.0
599.656,2361.1
599.821,2362.3
599.987,2365.9
600.152,2383.6
600.318,2371.9
600.483,2379.7
600.649,2358.6
600.814,2349.5
600.98,2378.8
601.145,2373.0
601.311,2358.1
601.476,2363.5
601.642,2375.1
601.807,2369.4
601.973,2350.1
602.138,2373.4
602.304,2361.4
602.469,2354.3
602.635,2370.0
602.8,2357.5
602.965,2363.1
603.131,2379.0
603.296,2361.8
603.462,2361.8
603.627,2376.3
603.792,2366.5
603.958,2366.3
604.123,2366.1
604.288,2335.8
604.454,2354.6
604.619,2349.7
604.784,2379.4
604.95,2359.2
605.115,2354.8
605.28,2369.7
605.446,2357.9
605.611,2345.8
605.776,2353.0
605.941,2347.7
606.107,2355.0
606.272,2342.1
606.437,2382.6
606.602,2356.3
606.767,2357.5
606.933,2351.3
607.098,2372.6
607.263,2372.2
607.428,2362.2
607.593,2363.2
607.759,2347.4
607.924,2360.8
608.089,2356.9
608.254,2356.0
608.419,2348.2
608.584,2348.6
608.749,2364.2
608.915,2345.9
609.08,2363.6
609.245,2363.3
609.41,2352.4
609.575,2356.8
609.74,2363.1
609.905,2366.9
610.07,2354.0
610.235,2358.9
610.4,2369.3
610.565,2344.8
610.73,2347.7
610.895,2353.2
611.06,2348.6
611.225,2349.4
611.39,2357.5
611.555,2346.4
611.72,2365.6
611.885,2356.9
612.05,2354.6
612.215,2342.7
612.38,2341.4
612.545,2350.4
612.71,2339.4
612.875,2340.7
613.04,2342.1
613.204,2339.6
613.369,2327.4
613.534,2346.0
613.699,2342.2
613.864,2352.1
614.029,2343.3
614.194,2357.4
614.358,2345.4
614.523,2338.8
614.688,2335.4
614.853,2331.8
615.018,2351.1
615.182,2349.2
615.347,2337.5
615.512,2339.4
615.677,2333.9
615.841,2350.6
616.006,2344.1
616.171,2356.9
616.336,2355.9
616.5,2346.4
616.665,2330.8
616.83,2346.9
616.994,2344.4
617.159,2332.3
617.324,2342.8
617.489,2329.7
617.653,2361.2
617.818,2330.5
617.982,2335.7
618.147,2335.9
618.312,2327.6
618.476,2348.8
618.641,2314.9
618.805,2314.7
618.97,2335.4
619.135,2332.0
619.299,2339.8
619.464,2316.5
619.628,2336.2
619.793,2342.1
619.957,2321.7
620.122,2325.1
620.286,2327.0
620.451,2335.2
620.615,2297.0
620.78,2320.3
620.944,2343.0
621.109,2317.5
621.273,2318.4
621.438,2316.1
621.602,2337.4
621.767,2333.7
621.931,2334.7
622.095,2342.5
622.26,2345.0
622.424,2332.3
622.589,2361.7
622.753,2384.6
622.917,2404.1
623.082,2390.7
623.246,2402.1
623.41,2378.3
623.575,2378.5
623.739,2364.6
623.903,2347.2
624.068,2350.9
624.232,2357.1
624.396,2339.0
624.561,2334.0
624.725,2327.3
624.889,2325.1
625.053,2308.9
625.218,2313.8
625.382,2309.1
625.546,2322.4
625.71,2306.4
625.875,2311.4
626.039,2317.7
626.203,2315.3
626.367,2316.8
626.531,2297.4
626.695,2306.9
626.86,2299.8
627.024,2314.8
627.188,2328.2
627.352,2328.7
627.516,2333.8
627.68,2337.6
627.844,2380.0
628.008,2423.6
628.172,2529.1
628.337,2644.1
628.501,2691.4
628.665,2704.6
628.829,2663.5
628.993,2632.3
629.157,2616.3
629.321,2604.8
629.485,2640.9
629.649,2617.1
629.813,2621.3
629.977,2646.1
630.141,2663.7
630.305,2740.7
630.469,2883.0
630.633,3151.0
630.797,3698.6
630.96,4436.8
631.124,4778.1
631.288,4509.4
631.452,4003.5
631.616,3582.8
631.78,3262.0
631.944,3096.7
632.108,2916.2
632.272,2886.6
632.435,2802.1
632.599,2816.3
632.763,2854.8
632.927,3018.3
633.091,3191.2
633.254,3341.1
633.418,3308.5
633.582,3165.9
633.746,3098.2
633.91,2936.0
634.073,2763.7
634.237,2625.9
634.401,2514.0
634.564,2432.4
634.728,2387.2
634.892,2345.9
635.056,2335.9
635.219,2320.3
635.383,2303.0
635.547,2300.5
635.71,2293.8
635.874,2271.2
636.038,2290.4
636.201,2272.6
636.365,2254.7
636.528,2270.9
636.692,2249.0
636.856,2266.5
637.019,2250.9
637.183,2250.1
637.346,2249.7
637.51,2252.3
637.673,2249.3
637.837,2236.7
638.0,2246.3
638.164,2249.4
638.327,2253.9
638.491,2231.6
638.654,2232.1
638.818,2228.1
638.981,2248.3
639.145,2247.6
639.308,2243.9
639.472,2234.3
639.635,2217.8
639.799,2229.0
639.962,2222.9
640.125,2238.8
640.289,2232.9
640.452,2238.8
640.616,2225.9
640.779,2225.2
640.942,2211.4
641.106,2224.1
641.269,2217.6
641.432,2241.7
641.596,2204.2
641.759,2235.5
641.922,2222.1
642.085,2217.0
642.249,2219.5
642.412,2228.1
642.575,2228.7
642.738,2226.5
642.902,2216.9
643.065,2202.2
643.228,2201.2
643.391,2216.4
643.555,2205.2
643.718,2194.9
643.881,2205.5
644.044,2208.8
644.207,2199.3
644.37,2205.2
644.534,2200.4
644.697,2187.2
644.86,2186.8
645.023,2189.2
645.186,2196.7
645.349,2188.2
645.512,2194.3
645.675,2174.6
645.838,2181.2
646.001,2176.0
646.164,2176.1
646.327,2181.4
646.49,2173.9
646.653,2171.6
646.816,2167.1
646.979,2169.9
647.142,2181.7
647.305,2181.1
647.468,2183.5
647.631,2163.2
647.794,2176.6
647.957,2172.1
648.12,2167.3
648.283,2154.8
648.446,2169.8
648.609,2160.3
648.772,2168.5
648.935,2155.0
649.098,2166.1
649.26,2153.3
649.423,2144.8
649.586,2157.2
649.749,2162.9
649.912,2154.1
650.075,2161.9
650.237,2160.1
650.4,2151.7
650.563,2158.5
650.726,2146.3
650.888,2157.1
651.051,2159.6
651.214,2150.1
651.377,2150.7
651.539,2147.3
651.702,2158.0
651.865,2138.5
652.027,2152.1
652.19,2138.2
652.353,2139.9
652.515,2133.8
652.678,2135.2
652.841,2134.9
653.003,2135.3
653.166,2133.0
653.329,2140.9
653.491,2135.2
653.654,2149.7
653.816,2114.8
653.979,2127.8
654.142,2134.2
654.304,2134.5
654.467,2129.4
654.629,2114.1
654.792,2113.2
654.954,2117.7
655.117,2127.4
655.279,2126.3
655.442,2122.6
655.604,2118.9
655.767,2120.2
655.929,2119.6
656.091,2097.7
656.254,2120.5
656.416,2107.6
656.579,2110.5
656.741,2106.9
656.904,2109.0
657.066,2118.4
657.228,2110.9
657.391,2113.9
657.553,2102.7
657.715,2111.6
657.878,2117.3
658.04,2104.4
658.202,2105.0
658.365,2098.9
658.527,2112.8
658.689,2098.4
658.851,2105.6
659.014,2086.2
659.176,2086.5
659.338,2088.8
659.5,2098.9
659.663,2081.0
659.825,2072.8
659.987,2075.8
660.149,2091.5
660.311,2082.8
660.474,2094.1
660.636,2081.6
660.798,2075.0
660.96,2074.4
661.041,2084.7