File: spectra/VLFR_08-PLA_bio_Raman_b44a6a4c.csv
nm,Intensity
528.637,1840.6
528.806,1838.4
528.974,1838.3
529.143,1840.6
529.311,1839.7
529.48,1837.3
529.648,1839.6
529.816,1839.4
529.985,1839.1
530.153,1838.6
530.322,1840.3
530.49,1838.8
530.659,1839.0
530.827,1840.7
530.995,1841.1
531.164,1841.4
531.332,1844.1
531.5,1849.4
531.669,1883.0
531.837,2646.7
532.006,4960.4
532.174,4001.2
532.342,2037.0
532.511,1842.8
532.679,1841.1
532.847,1841.5
533.016,1841.3
533.184,1843.2
533.352,1851.3
533.521,1908.1
533.689,2233.6
533.857,2780.9
534.025,3060.0
534.194,3067.9
534.362,2970.9
534.53,2896.6
534.699,2880.1
534.867,2830.3
535.035,2776.0
535.203,2749.9
535.372,2749.1
535.54,2675.9
535.708,2614.9
535.876,2578.8
536.045,2574.0
536.213,2597.5
536.381,2599.4
536.549,2629.5
536.717,2601.2
536.886,2552.2
537.054,2559.5
537.222,2555.8
537.39,2548.7
537.558,2576.0
537.726,2549.6
537.895,2536.5
538.063,2485.9
538.231,2479.0
538.399,2483.2
538.567,2440.9
538.735,2478.1
538.903,2453.1
539.072,2454.1
539.24,2454.1
539.408,2437.1
539.576,2438.6
539.744,2402.2
539.912,2415.1
540.08,2415.6
540.248,2460.2
540.416,2503.2
540.584,2500.1
540.752,2534.4
540.92,2528.5
541.088,2527.3
541.256,2516.7
541.425,2523.5
541.593,2491.7
541.761,2466.2
541.929,2459.8
542.097,2452.5
542.265,2439.8
542.433,2462.3
542.601,2461.0
542.769,2450.0
542.937,2510.2
543.104,2567.0
543.272,2614.6
543.44,2647.2
543.608,2713.6
543.776,2664.2
543.944,2640.9
544.112,2641.1
544.28,2566.1
544.448,2503.6
544.616,2492.9
544.784,2468.7
544.952,2458.1
545.12,2468.1
545.288,2449.1
545.455,2440.1
545.623,2452.2
545.791,2443.1
545.959,2451.1
546.127,2430.5
546.295,2446.5
546.463,2453.9
546.63,2445.2
546.798,2476.7
546.966,2460.3
547.134,2481.8
547.302,2461.0
547.47,2436.6
547.637,2450.0
547.805,2469.2
547.973,2452.4
548.141,2466.5
548.308,2491.0
548.476,2497.6
548.644,2506.9
548.812,2502.4
548.98,2484.5
549.147,2504.6
549.315,2507.0
549.483,2490.2
549.65,2485.1
549.818,2507.9
549.986,2508.4
550.154,2499.9
550.321,2507.3
550.489,2521.9
550.657,2541.0
550.824,2529.4
550.992,2570.0
551.16,2552.9
551.327,2558.4
551.495,2579.5
551.663,2576.6
551.83,2577.1
551.998,2599.2
552.166,2598.8
552.333,2583.6
552.501,2587.1
552.668,2603.4
552.836,2619.9
553.004,2612.8
553.171,2570.2
553.339,2571.0
553.506,2575.5
553.674,2602.7
553.842,2637.7
554.009,2665.9
554.177,2638.7
554.344,2626.0
554.512,2640.2
554.679,2604.4
554.847,2600.9
555.014,2575.6
555.182,2547.8
555.349,2547.5
555.517,2546.6
555.684,2549.9
555.852,2571.9
556.019,2545.9
556.187,2552.8
556.354,2564.3
556.522,2531.0
556.689,2577.7
556.857,2560.4
557.024,2606.3
557.192,2673.0
557.359,2713.3
557.526,2844.9
557.694,3083.5
557.861,3443.8
558.029,3645.1
558.196,3494.6
558.363,3124.5
558.531,2816.3
558.698,2741.1
558.866,2750.8
559.033,2736.5
559.2,2690.3
559.368,2675.4
559.535,2665.6
559.702,2659.5
559.87,2636.3
560.037,2649.3
560.204,2640.8
560.372,2645.1
560.539,2641.3
560.706,2633.6
560.873,2629.8
561.041,2662.6
561.208,2616.9
561.375,2613.7
561.543,2645.5
561.71,2667.7
561.877,2629.2
562.044,2637.6
562.211,2652.7
562.379,2663.3
562.546,2661.4
562.713,2718.6
562.88,2769.3
563.048,2814.0
563.215,2874.5
563.382,2951.6
563.549,2954.4
563.716,2873.4
563.883,2802.5
564.051,2714.4
564.218,2700.5
564.385,2735.0
564.552,2752.8
564.719,2807.4
564.886,2879.7
565.053,2890.5
565.221,2904.6
565.388,2871.3
565.555,2881.7
565.722,2926.6
565.889,3024.4
566.056,3106.6
566.223,3073.5
566.39,2963.2
566.557,2860.2
566.724,2738.6
566.891,2704.8
567.058,2704.5
567.225,2693.7
567.392,2716.4
567.559,2730.0
567.726,2759.5
567.893,2771.6
568.06,2756.4
568.227,2753.4
568.394,2765.8
568.561,2772.0
568.728,2741.0
568.895,2775.8
569.062,2786.6
569.229,2751.3
569.396,2778.1
569.563,2725.7
569.73,2719.5
569.897,2717.0
570.064,2732.8
570.231,2743.5
570.398,2728.2
570.564,2753.3
570.731,2750.7
570.898,2760.9
571.065,2773.0
571.232,2810.0
571.399,2892.9
571.566,2980.9
571.732,2967.7
571.899,2911.3
572.066,2922.5
572.233,2871.4
572.4,2869.4
572.566,2828.6
572.733,2903.7
572.9,2867.9
573.067,2875.6
573.234,2877.9
573.4,2891.6
573.567,2901.6
573.734,2887.2
573.901,2867.7
574.067,2858.2
574.234,2881.7
574.401,2905.4
574.568,2950.2
574.734,2885.5
574.901,2807.3
575.068,2774.5
575.234,2782.8
575.401,2749.5
575.568,2799.2
575.734,2797.4
575.901,2829.1
576.068,2853.0
576.234,2969.5
576.401,3157.9
576.568,3310.3
576.734,3353.8
576.901,3331.4
577.067,3192.9
577.234,3005.6
577.401,2898.9
577.567,2833.8
577.734,2817.1
577.9,2801.6
578.067,2792.7
578.233,2769.1
578.4,2776.3
578.567,2789.0
578.733,2777.8
578.9,2765.9
579.066,2770.8
579.233,2760.1
579.399,2772.4
579.566,2778.8
579.732,2779.6
579.899,2802.4
580.065,2785.8
580.231,2758.5
580.398,2778.7
580.564,2772.9
580.731,2799.8
580.897,2805.1
581.064,2785.9
581.23,2776.4
581.397,2768.7
581.563,2783.4
581.729,2798.5
581.896,2786.7
582.062,2769.5
582.228,2801.7
582.395,2776.6
582.561,2785.3
582.728,2805.2
582.894,2816.3
583.06,2799.9
583.227,2799.5
583.393,2795.2
583.559,2805.4
583.726,2810.3
583.892,2778.9
584.058,2804.7
584.224,2788.3
584.391,2799.4
584.557,2796.2
584.723,2782.9
584.889,2839.9
585.056,2806.5
585.222,2765.7
585.388,2757.8
585.554,2782.0
585.721,2818.2
585.887,2773.1
586.053,2814.4
586.219,2842.1
586.385,2894.3
586.552,2969.5
586.718,3045.8
586.884,3189.3
587.05,3196.3
587.216,3277.9
587.382,3303.1
587.549,3283.4
587.715,3216.8
587.881,3049.5
588.047,2935.0
588.213,2878.6
588.379,2811.6
588.545,2805.1
588.711,2788.7
588.877,2792.6
589.043,2785.2
589.209,2778.6
589.375,2791.1
589.542,2771.5
589.708,2750.4
589.874,2769.9
590.04,2783.8
590.206,2782.9
590.372,2783.0
590.538,2773.3
590.704,2741.7
590.87,2761.2
591.036,2753.3
591.201,2763.3
591.367,2781.9
591.533,2757.1
591.699,2788.1
591.865,2780.0
592.031,2766.5
592.197,2787.1
592.363,2790.4
592.529,2770.4
592.695,2779.9
592.861,2749.8
593.027,2761.6
593.192,2769.8
593.358,2761.6
593.524,2726.0
593.69,2730.9
593.856,2795.4
594.022,2748.9
594.187,2781.4
594.353,2775.1
594.519,2762.8
594.685,2760.8
594.851,2746.6
595.016,2769.0
595.182,2783.0
595.348,2783.5
595.514,2781.3
595.679,2805.6
595.845,2765.1
596.011,2781.6
596.177,2751.9
596.342,2786.9
596.508,2781.3
596.674,2777.4
596.84,2777.1
597.005,2758.6
597.171,2772.0
597.337,2771.6
597.502,2781.1
597.668,2763.3
597.833,2790.1
597.999,2770.5
598.165,2768.2
598.33,2782.5
598.496,2786.9
598.662,2779.1
598.827,2778.8
598.993,2792.1
599.158,2768.0
599.324,2773.9
599.489,2792.4
599.655,2796.8
599.821,2762.5
599.986,2764.8
600.152,2776.8
600.317,2768.0
600.483,2766.1
600.648,2783.1
600.814,2778.0
600.979,2778.6
601.145,2786.1
601.31,2767.9
601.476,2805.9
601.641,2783.2
601.807,2790.2
601.972,2780.6
602.137,2770.7
602.303,2802.8
602.468,2761.4
602.634,2759.9
602.799,2812.1
602.964,2807.2
603.13,2789.9
603.295,2762.2
603.461,2774.1
603.626,2772.5
603.791,2758.7
603.957,2794.2
604.122,2758.0
604.287,2769.5
604.453,2755.2
604.618,2752.6
604.783,2784.3
604.949,2761.0
605.114,2769.5
605.279,2757.1
605.444,2777.4
605.61,2776.2
605.775,2770.0
605.94,2748.7
606.105,2754.9
606.271,2785.2
606.436,2749.6
606.601,2761.4
606.766,2752.3
606.931,2782.5
607.097,2763.2
607.262,2769.4
607.427,2754.3
607.592,2770.2
607.757,2801.7
607.922,2758.3
608.088,2743.5
608.253,2758.9
608.418,2774.6
608.583,2713.5
608.748,2751.3
608.913,2776.0
609.078,2761.5
609.243,2721.6
609.408,2762.3
609.573,2728.4
609.738,2769.6
609.903,2761.4
610.068,2782.9
610.233,2745.1
610.399,2778.1
610.564,2736.2
610.729,2752.8
610.894,2716.5
611.058,2774.2
611.223,2744.1
611.388,2743.5
611.553,2738.7
611.718,2768.6
611.883,2747.3
612.048,2697.1
612.213,2746.7
612.378,2750.9
612.543,2762.0
612.708,2721.2
612.873,2755.9
613.038,2712.5
613.202,2746.7
613.367,2725.0
613.532,2720.7
613.697,2730.1
613.862,2758.2
614.027,2753.5
614.192,2734.0
614.356,2746.7
614.521,2726.3
614.686,2752.8
614.851,2765.4
615.016,2759.2
615.18,2710.5
615.345,2716.2
615.51,2703.6
615.675,2763.4
615.839,2736.9
616.004,2731.4
616.169,2729.4
616.333,2751.2
616.498,2685.3
616.663,2741.6
616.827,2723.6
616.992,2742.0
617.157,2731.3
617.321,2722.9
617.486,2743.8
617.651,2738.4
617.815,2712.7
617.98,2742.3
618.145,2713.8
618.309,2726.3
618.474,2735.5
618.638,2715.8
618.803,2704.2
618.968,2725.7
619.132,2735.0
619.297,2704.1
619.461,2725.3
619.626,2714.6
619.79,2735.4
619.955,2719.0
620.119,2706.0
620.284,2728.0
620.448,2711.5
620.613,2713.9
620.777,2751.3
620.942,2701.8
621.106,2701.4
621.271,2677.4
621.435,2715.9
621.599,2686.7
621.764,2718.1
621.928,2721.1
622.093,2750.5
622.257,2765.0
622.421,2725.4
622.586,2781.8
622.75,2800.3
622.915,2799.4
623.079,2825.1
623.243,2790.0
623.408,2791.3
623.572,2767.6
623.736,2734.3
623.9,2775.5
624.065,2717.8
624.229,2731.4
624.393,2713.1
624.558,2707.2
624.722,2701.7
624.886,2703.0
625.05,2708.7
625.215,2688.2
625.379,2696.3
625.543,2690.7
625.707,2691.0
625.871,2684.5
626.036,2645.4
626.2,2678.8
626.364,2712.4
626.528,2692.7
626.692,2712.6
626.856,2704.8
627.02,2676.2
627.185,2677.3
627.349,2717.3
627.513,2735.3
627.677,2746.9
627.841,2774.0
628.005,2916.1
628.169,3088.7
628.333,3239.0
628.497,3243.3
628.661,3199.7
628.825,3157.2
628.989,3147.3
629.153,3107.5
629.317,3095.2
629.481,3209.0
629.645,3147.3
629.809,3127.8
629.973,3160.6
630.137,3313.2
630.301,3374.9
630.465,3682.6
630.629,4141.5
630.793,5122.5
630.957,5947.1
631.121,6132.2
631.285,5571.1
631.449,4756.4
631.612,4258.1
631.776,3840.5
631.94,3681.1
632.104,3602.3
632.268,3416.7
632.432,3489.0
632.596,3527.8
632.759,3670.3
632.923,3932.1
633.087,4117.8
633.251,4209.0
633.414,4086.2
633.578,3929.9
633.742,3731.7
633.906,3464.1
634.069,3261.8
634.233,3084.3
634.397,2963.3
634.561,2851.0
634.724,2845.3
634.888,2729.2
635.052,2704.9
635.215,2686.9
635.379,2648.7
635.543,2654.0
635.706,2663.2
635.87,2621.7
636.034,2593.6
636.197,2660.6
636.361,2619.0
636.524,2602.1
636.688,2592.5
636.852,2576.3
637.015,2599.5
637.179,2580.0
637.342,2590.5
637.506,2595.2
637.669,2567.1
637.833,2562.8
637.996,2572.1
638.16,2602.3
638.323,2569.9
638.487,2559.3
638.65,2580.1
638.814,2577.1
638.977,2567.7
639.141,2558.6
639.304,2552.0
639.468,2568.7
639.631,2558.3
639.794,2550.4
639.958,2548.9
640.121,2584.1
640.285,2559.8
640.448,2509.5
640.611,2519.1
640.775,2556.7
640.938,2549.7
641.101,2575.3
641.265,2571.7
641.428,2569.1
641.591,2567.4
641.755,2540.8
641.918,2533.4
642.081,2538.8
642.244,2568.0
642.408,2546.2
642.571,2542.9
642.734,2542.5
642.897,2544.3
643.061,2516.1
643.224,2524.0
643.387,2502.8
643.55,2537.8
643.713,2518.5
643.876,2520.3
644.04,2498.5
644.203,2518.3
644.366,2525.9
644.529,2477.2
644.692,2505.7
644.855,2499.4
645.018,2503.1
645.181,2509.2
645.345,2498.9
645.508,2430.7
645.671,2494.5
645.834,2526.6
645.997,2490.6
646.16,2456.3
646.323,2463.6
646.486,2489.0
646.649,2495.6
646.812,2481.4
646.975,2490.7
647.138,2483.5
647.301,2480.8
647.464,2462.8
647.627,2462.7
647.79,2467.8
647.953,2464.0
648.115,2460.4
648.278,2454.9
648.441,2468.2
648.604,2478.8
648.767,2433.1
648.93,2460.5
649.093,2449.3
649.256,2458.0
649.418,2452.4
649.581,2478.5
649.744,2434.9
649.907,2429.2
650.07,2426.6
650.233,2409.9
650.395,2430.6
650.558,2439.9
650.721,2422.4
650.884,2424.9
651.046,2436.6
651.209,2445.0
651.372,2411.0
651.534,2411.4
651.697,2426.9
651.86,2407.0
652.023,2405.3
652.185,2399.4
652.348,2405.7
652.511,2406.4
652.673,2374.9
652.836,2397.6
652.998,2410.1
653.161,2388.2
653.324,2368.7
653.486,2389.1
653.649,2376.7
653.811,2354.2
653.974,2374.5
654.137,2385.9
654.299,2339.0
654.462,2345.9
654.624,2376.9
654.787,2327.6
654.949,2340.5
655.112,2343.9
655.274,2359.2
655.437,2325.4
655.599,2358.1
655.761,2345.4
655.924,2337.7
656.086,2298.5
656.249,2305.3
656.411,2320.7
656.574,2341.7
656.736,2309.9
656.898,2315.8
657.061,2347.9
657.223,2328.3
657.385,2293.2
657.548,2294.9
657.71,2327.8
657.872,2300.4
658.035,2295.4
658.197,2310.8
658.359,2299.2
658.522,2295.0
658.684,2283.5
658.846,2282.9
659.008,2268.0
659.171,2293.5
659.333,2264.3
659.495,2239.5
659.657,2247.5
659.82,2269.8
659.982,2250.8
660.144,2261.5
660.306,2237.3
660.468,2262.3
660.63,2241.6
660.793,2261.1
660.955,2264.6
661.036,2240.5