File: spectra/VLFR_07-PET_bio_Raman_4828cc98.csv
nm,Intensity
791.377,5918.12
791.652,5886.16
791.927,5882.92
792.202,5874.72
792.477,5843.72
792.752,5786.5
793.027,5798.06
793.301,5803.7
793.576,5817.88
793.851,5797.3
794.126,5798.22
794.401,5819.64
794.676,5793.92
794.951,5752.06
795.225,5764.92
795.5,5794.78
795.775,5771.96
796.05,5770.86
796.325,5741.88
796.599,5761.86
796.874,5744.58
797.149,5811.34
797.424,5752.22
797.698,5767.88
797.973,5797.1
798.248,5807.4
798.523,5802.68
798.797,5756.32
799.072,5727.3
799.347,5729.06
799.622,5724.92
799.896,5760.88
800.171,5743.3
800.446,5722.18
800.72,5748.56
800.995,5747.54
801.27,5768.92
801.544,5698.06
801.819,5706.52
802.094,5697.54
802.368,5703.86
802.643,5704.46
802.918,5734.74
803.192,5688.36
803.467,5669.24
803.742,5665.78
804.016,5650.04
804.291,5632.22
804.565,5639.3
804.84,5658.32
805.114,5650.6
805.389,5633.62
805.664,5632.18
805.938,5625.86
806.213,5643.56
806.487,5595.6
806.762,5589.78
807.036,5573.64
807.311,5555.2
807.585,5569.42
807.86,5585.5
808.134,5559.62
808.409,5517.86
808.683,5506.24
808.958,5506.92
809.232,5510.64
809.507,5521.28
809.781,5523.3
810.056,5505.7
810.33,5473.56
810.605,5477.22
810.879,5493.88
811.153,5432.56
811.428,5398.44
811.702,5427.06
811.977,5423.98
812.251,5435.36
812.525,5422.34
812.8,5417.76
813.074,5402.56
813.349,5379.02
813.623,5389.3
813.897,5353.4
814.172,5356.8
814.446,5347.18
814.72,5345.42
814.995,5312.22
815.269,5302.72
815.543,5328.24
815.818,5314.32
816.092,5261.12
816.366,5302.0
816.64,5287.72
816.915,5267.96
817.189,5283.72
817.463,5259.28
817.737,5224.48
818.012,5232.56
818.286,5217.82
818.56,5212.46
818.834,5227.0
819.109,5205.0
819.383,5209.54
819.657,5228.42
819.931,5211.58
820.205,5183.56
820.48,5174.92
820.754,5179.98
821.028,5214.22
821.302,5173.04
821.576,5149.72
821.85,5142.68
822.125,5132.86
822.399,5140.22
822.673,5132.78
822.947,5117.34
823.221,5114.56
823.495,5119.22
823.769,5105.68
824.043,5112.1
824.317,5084.92
824.591,5085.86
824.865,5109.48
825.14,5127.96
825.414,5103.22
825.688,5099.88
825.962,5096.4
826.236,5072.38
826.51,5053.7
826.784,5088.1
827.058,5065.94
827.332,5043.3
827.606,5035.12
827.88,5006.84
828.154,5003.5
828.428,5025.88
828.702,5011.42
828.976,5013.74
829.249,4978.6
829.523,4990.92
829.797,5002.78
830.071,4982.16
830.345,4973.06
830.619,4965.94
830.893,4978.84
831.167,4936.64
831.441,4959.62
831.715,4968.82
831.988,4957.48
832.262,4947.02
832.536,4948.34
832.81,4926.22
833.084,4935.64
833.358,4919.06
833.632,4916.88
833.905,4914.7
834.179,4897.98
834.453,4896.6
834.727,4889.02
835.001,4875.86
835.274,4861.42
835.548,4874.58
835.822,4888.54
836.096,4880.18
836.369,4880.34
836.643,4875.84
836.917,4849.68
837.191,4860.08
837.464,4893.36
837.738,4884.48
838.012,4840.88
838.285,4840.76
838.559,4839.14
838.833,4838.68
839.106,4838.82
839.38,4846.56
839.654,4844.08
839.927,4821.76
840.201,4827.86
840.475,4808.76
840.748,4824.9
841.022,4844.94
841.295,4838.78
841.569,4840.26
841.843,4822.9
842.116,4806.38
842.39,4784.76
842.663,4785.16
842.937,4798.58
843.211,4790.88
843.484,4771.12
843.758,4768.62
844.031,4736.5
844.305,4760.38
844.578,4742.34
844.852,4732.7
845.125,4745.56
845.399,4740.72
845.672,4727.54
845.946,4744.7
846.219,4724.88
846.493,4708.34
846.766,4684.22
847.039,4697.46
847.313,4702.38
847.586,4709.42
847.86,4706.5
848.133,4714.62
848.407,4702.74
848.68,4677.06
848.953,4667.66
849.227,4665.62
849.5,4655.78
849.773,4667.56
850.047,4657.46
850.32,4660.12
850.593,4660.04
850.867,4644.66
851.14,4671.7
851.413,4672.02
851.687,4698.76
851.96,4713.8
852.233,4715.14
852.507,4681.42
852.78,4664.14
853.053,4656.36
853.326,4652.2
853.6,4624.68
853.873,4619.56
854.146,4610.08
854.419,4576.68
854.693,4599.02
854.966,4588.96
855.239,4584.64
855.512,4604.16
855.785,4610.68
856.059,4600.42
856.332,4599.48
856.605,4610.58
856.878,4589.32
857.151,4591.16
857.424,4591.68
857.698,4582.62
857.971,4592.2
858.244,4600.38
858.517,4606.14
858.79,4598.94
859.063,4594.18
859.336,4598.04
859.609,4574.9
859.882,4577.02
860.155,4590.16
860.428,4581.76
860.701,4570.94
860.974,4560.34
861.247,4543.98
861.52,4555.3
861.793,4563.14
862.066,4544.58
862.339,4539.1
862.612,4542.64
862.885,4559.62
863.158,4544.5
863.431,4530.8
863.704,4535.0
863.977,4529.26
864.25,4520.62
864.523,4533.18
864.796,4541.94
865.069,4538.0
865.342,4518.9
865.615,4504.72
865.888,4509.9
866.16,4514.56
866.433,4522.54
866.706,4502.54
866.979,4487.34
867.252,4483.3
867.525,4483.66
867.798,4495.64
868.07,4488.52
868.343,4484.88
868.616,4499.78
868.889,4499.1
869.162,4498.28
869.434,4496.72
869.707,4481.04
869.98,4489.54
870.253,4489.3
870.525,4503.62
870.798,4497.14
871.071,4479.74
871.344,4501.42
871.616,4519.92
871.889,4503.92
872.162,4500.44
872.434,4496.72
872.707,4500.06
872.98,4491.82
873.252,4492.88
873.525,4496.0
873.798,4507.64
874.07,4491.4
874.343,4474.52
874.615,4476.16
874.888,4457.26
875.161,4453.6
875.433,4456.78
875.706,4462.46
875.978,4464.08
876.251,4454.62
876.524,4441.22
876.796,4452.08
877.069,4440.8
877.341,4441.58
877.614,4436.72
877.886,4431.5
878.159,4436.06
878.431,4444.48
878.704,4438.32
878.976,4447.18
879.249,4440.04
879.521,4439.04
879.794,4429.2
880.066,4412.8
880.338,4395.4
880.611,4394.18
880.883,4416.18
881.156,4419.54
881.428,4414.02
881.7,4411.82
881.973,4409.84
882.245,4416.4
882.518,4416.88
882.79,4399.68
883.062,4397.28
883.335,4403.98
883.607,4405.82
883.879,4403.62
884.152,4395.58
884.424,4402.6
884.696,4383.26
884.968,4377.38
885.241,4404.32
885.513,4395.48
885.785,4391.72
886.058,4377.34
886.33,4370.58
886.602,4352.68
886.874,4341.32
887.146,4359.48
887.419,4378.8
887.691,4376.28
887.963,4372.58
888.235,4364.4
888.507,4354.32
888.78,4348.58
889.052,4344.46
889.324,4337.54
889.596,4336.54
889.868,4343.6
890.14,4337.88
890.412,4343.52
890.684,4351.62
890.957,4344.74
891.229,4337.12
891.501,4334.3
891.773,4327.36
892.045,4324.5
892.317,4323.6
892.589,4323.72
892.861,4315.12
893.133,4303.14
893.405,4295.9
893.677,4297.22
893.949,4299.84
894.221,4299.06
894.493,4299.52
894.765,4301.44
895.037,4303.16
895.309,4285.44
895.581,4288.18
895.853,4293.48
896.125,4293.16
896.397,4281.5
896.668,4265.32
896.94,4264.68
897.212,4263.56
897.484,4277.32
897.756,4289.1
898.028,4305.84
898.3,4327.28
898.571,4309.1
898.843,4297.56
899.115,4286.0
899.387,4289.6
899.659,4278.12
899.931,4255.54
900.202,4254.68
900.474,4252.7
900.746,4227.3
901.018,4227.3
901.289,4222.86
901.561,4211.76
901.833,4225.22
902.105,4226.34
902.376,4217.52
902.648,4212.48
902.92,4223.26
903.191,4229.28
903.463,4228.84
903.735,4215.98
904.006,4213.66
904.278,4210.4
904.55,4205.22
904.821,4200.12
905.093,4198.32
905.365,4203.66
905.636,4203.92
905.908,4203.72
906.179,4213.82
906.451,4218.56
906.722,4222.4
906.994,4212.62
907.266,4220.5
907.537,4216.24
907.809,4206.34
908.08,4208.02
908.352,4204.94
908.623,4205.38
908.895,4205.22
909.166,4189.18
909.438,4175.62
909.709,4163.12
909.981,4165.26
910.252,4156.98
910.523,4153.94
910.795,4159.06
911.066,4146.22
911.338,4139.24
911.609,4140.06
911.881,4141.14
912.152,4140.7
912.423,4129.72
912.695,4134.22
912.966,4130.44
913.237,4128.42
913.509,4117.58
913.78,4117.24
914.051,4119.42
914.323,4126.78
914.594,4119.32
914.865,4112.56
915.136,4113.74
915.408,4113.74
915.679,4115.54
915.95,4107.84
916.221,4101.82
916.493,4096.6
916.764,4096.9
917.035,4092.34
917.306,4088.46
917.578,4088.4
917.849,4096.0
918.12,4099.48
918.391,4093.2
918.662,4083.66
918.933,4084.96
919.204,4077.62
919.476,4086.66
919.747,4086.38
920.018,4080.46
920.289,4073.12
920.56,4072.56
920.831,4076.04
921.102,4073.58
921.373,4068.76
921.644,4058.54
921.915,4056.3
922.186,4059.08
922.457,4061.5
922.728,4063.8
922.999,4055.56
923.27,4051.4
923.541,4050.4
923.812,4049.6
924.083,4050.26
924.354,4048.78
924.625,4043.96
924.896,4046.44
925.167,4043.52
925.438,4034.54
925.709,4035.66
925.98,4028.24
926.251,4026.72
926.522,4019.1
926.792,4017.16
927.063,4019.52
927.334,4023.66
927.605,4020.58
927.876,4020.76
928.147,4017.56
928.417,4022.62
928.688,4010.34
928.959,3998.76
929.23,3998.36
929.501,4001.32
929.771,4001.26
930.042,3996.78
930.313,3992.32
930.584,3992.42
930.854,3982.4
931.125,3979.4
931.396,3972.6
931.666,3974.74
931.937,3969.52
932.208,3973.66
932.478,3972.26
932.749,3969.76
933.02,3967.58
933.29,3965.72
933.561,3962.62
933.832,3958.7
934.102,3956.42
934.373,3954.98
934.643,3955.96
934.914,3957.56
935.184,3952.34
935.455,3950.38
935.726,3949.42
935.996,3954.38
936.267,3951.44
936.537,3950.12
936.808,3942.16
937.078,3940.4
937.349,3939.08
937.619,3943.18
937.89,3941.84
938.16,3941.76
938.43,3943.34
938.701,3941.7
938.971,3940.18
939.242,3938.86
939.512,3939.48
939.782,3942.94
940.053,3935.0
940.323,3935.82
940.594,3933.54
940.864,3934.86
941.134,3932.56
941.405,3931.1
941.675,3930.04
941.945,3927.34
942.216,3925.82
942.486,3922.24
942.756,3922.1
943.026,3918.78
943.297,3919.62
943.567,3915.74
943.837,3914.6
944.107,3913.96
944.378,3912.64
944.648,3911.84
944.918,3912.04
945.188,3910.14
945.458,3916.68
945.729,3911.46
945.999,3906.2
946.269,3908.6
946.539,3905.14
946.809,3901.04
947.079,3902.72
947.349,3901.7
947.62,3904.0
947.89,3900.7
948.16,3897.08
948.43,3897.98
948.7,3897.76
948.97,3897.64
949.24,3901.6
949.51,3900.6
949.78,3895.18
950.05,3895.96
950.32,3891.8
950.59,3893.0
950.86,3893.04
951.13,3893.72
951.4,3889.62
951.67,3888.26
951.94,3888.0
952.21,3886.3
952.48,3884.38
952.75,3884.16
953.02,3883.84
953.289,3885.06
953.559,3888.18
953.829,3885.58
954.099,3880.18
954.369,3880.04
954.639,3881.76
954.909,3882.48
955.178,3878.9
955.448,3878.7
955.718,3875.32
955.988,3875.34
956.257,3876.0
956.527,3874.64
956.797,3876.1
957.067,3874.04
957.336,3874.38
957.606,3874.9
957.876,3871.94
958.146,3871.9
958.415,3873.1
958.685,3870.12
958.955,3867.98
959.224,3866.14
959.494,3866.66
959.764,3864.4
960.033,3866.04
960.303,3866.98
960.572,3868.66
960.842,3866.38
961.112,3864.0
961.381,3863.56
961.651,3861.78
961.92,3863.5
962.19,3862.92
962.459,3859.78
962.729,3861.0
962.998,3861.78
963.268,3857.7
963.537,3858.02
963.807,3858.0
964.076,3859.12
964.346,3858.94
964.615,3859.32
964.885,3858.38
965.154,3854.32
965.424,3853.24
965.693,3855.06
965.962,3857.1
966.232,3856.24
966.501,3854.94
966.771,3852.76
967.04,3854.7
967.309,3851.98
967.579,3852.52
967.848,3854.16
968.117,3852.68
968.387,3851.88
968.656,3850.76
968.925,3850.44
969.194,3846.82
969.464,3849.28
969.733,3846.92
970.002,3847.0
970.271,3847.3
970.541,3848.9
970.81,3845.44
971.079,3846.82
971.348,3845.3
971.617,3845.0
971.887,3844.7
972.156,3846.18
972.425,3845.94
972.694,3844.0
972.963,3843.88
973.232,3843.6
973.501,3842.74
973.77,3842.18
974.04,3840.38
974.309,3840.26
974.578,3838.72
974.847,3837.14
975.116,3834.06
975.385,3836.18
975.654,3838.7
975.923,3840.42
976.192,3837.82
976.461,3835.0
976.73,3835.32
976.999,3835.78
977.268,3834.14
977.537,3835.14
977.806,3833.72
978.074,3831.42
978.343,3832.42
978.612,3834.16
978.881,3832.1
979.15,3832.34
979.419,3832.16
979.688,3833.42
979.957,3832.54
980.225,3832.54
980.494,3829.54
980.763,3828.38
981.032,3830.18
981.301,3831.14
981.569,3829.8
981.838,3828.6
982.107,3826.72
982.376,3825.8
982.644,3826.88
982.913,3828.3
983.182,3827.04
983.451,3827.44
983.719,3825.34
983.988,3826.18
984.257,3825.62
984.525,3827.68
984.794,3826.88
985.063,3825.46
985.331,3826.5
985.6,3826.36
985.868,3825.58
986.137,3822.88
986.406,3822.5
986.674,3824.38
986.943,3821.88
987.211,3823.28
987.48,3821.34
987.748,3821.06
988.017,3822.14
988.285,3823.06
988.554,3820.72
988.822,3821.06
989.091,3821.74
989.359,3821.32
989.628,3819.92
989.896,3817.42
990.164,3818.3
990.433,3818.32
990.701,3818.72
990.97,3818.78
991.238,3817.56
991.506,3818.02
991.775,3816.88
992.043,3816.62
992.311,3817.44
992.58,3816.9
992.848,3816.06
993.116,3815.08
993.385,3814.44
993.653,3815.26
993.921,3815.84
994.19,3815.26
994.458,3813.62
994.726,3815.26
994.994,3813.02
995.262,3813.48
995.531,3812.78
995.799,3811.48
996.067,3811.32
996.335,3811.5
996.603,3811.08
996.872,3811.52
997.14,3811.46
997.408,3810.64
997.676,3810.66
997.944,3809.76
998.212,3809.26
998.48,3807.5
998.748,3808.74
999.016,3810.48
999.284,3807.3
999.552,3806.9
999.82,3807.74
1000.09,3807.1
1000.36,3806.22
1000.62,3807.2
1000.89,3805.42
1001.16,3805.24
1001.43,3807.9
1001.7,3807.18
1001.96,3806.72
1002.23,3806.6
1002.5,3805.52
1002.77,3805.64
1003.04,3804.18
1003.3,3804.98
1003.57,3805.08
1003.84,3805.48
1004.11,3804.92
1004.38,3802.74
1004.64,3802.88
1004.91,3803.14
1005.18,3802.82
1005.45,3801.92
1005.71,3802.3
1005.98,3800.82
1006.25,3801.56
1006.52,3801.24
1006.79,3798.6
1007.05,3800.92
1007.32,3800.56
1007.59,3801.38
1007.86,3800.48
1008.12,3799.98
1008.39,3800.4
1008.66,3800.34
1008.93,3799.56
1009.19,3799.94
1009.46,3798.22
1009.73,3798.14
1010.0,3798.24
1010.26,3798.46
1010.53,3798.14
1010.8,3798.8
1011.07,3798.26
1011.33,3798.22
1011.6,3799.3
1011.87,3797.78
1012.14,3797.38
1012.4,3797.88
1012.67,3797.16
1012.94,3797.48
1013.21,3795.76
1013.47,3795.68
1013.74,3794.62
1014.01,3796.46
1014.28,3794.88
1014.54,3795.52
1014.81,3796.0
1015.08,3795.24
1015.35,3795.74
1015.61,3796.18
1015.88,3796.06
1016.15,3795.16
1016.42,3794.34
1016.68,3793.82
1016.95,3794.04
1017.22,3793.68
1017.48,3794.28
1017.75,3795.28
1018.02,3794.12
1018.29,3793.58
1018.55,3793.72
1018.82,3792.8
1019.09,3792.6
1019.36,3791.7
1019.62,3792.0
1019.89,3792.3
1020.16,3792.32
1020.42,3792.16
1020.69,3793.44
1020.96,3792.32
1021.23,3792.72
1021.49,3792.7
1021.76,3791.84
1022.03,3792.8
1022.29,3792.4
1022.56,3793.18
1022.83,3791.98
1023.09,3790.98
1023.36,3791.02
1023.63,3790.94
1023.9,3792.06
1024.16,3791.26
1024.43,3790.38
1024.7,3790.12
1024.96,3789.38
1025.23,3790.66
1025.5,3790.84
1025.76,3789.62
1026.03,3789.8
1026.3,3790.08
1026.56,3789.0
1026.83,3788.48
1027.1,3788.5
1027.37,3788.5
1027.63,3787.28
1027.9,3788.98
1028.17,3788.08
1028.43,3788.16
1028.7,3787.82
1028.97,3787.62
1029.23,3788.28
1029.5,3787.06
1029.77,3787.28
1030.03,3788.38
1030.3,3787.52
1030.57,3787.92
1030.83,3786.5
1031.1,3787.16
1031.37,3787.66
1031.63,3787.18
1031.9,3787.38
1032.17,3787.08
1032.43,3785.94
1032.7,3785.64
1032.97,3787.64
1033.23,3786.7
1033.5,3786.72
1033.77,3787.42
1034.03,3786.0
1034.3,3787.0
1034.57,3785.9
1034.83,3786.24
1035.1,3786.66
1035.36,3786.1
1035.63,3786.02
1035.9,3786.32
1036.16,3786.32
1036.43,3785.98
1036.7,3785.82
1036.96,3785.26
1037.23,3784.98
1037.5,3785.42
1037.76,3785.46
1038.03,3785.68
1038.3,3784.32
1038.56,3785.2
1038.83,3785.34
1039.09,3784.7
1039.36,3784.26
1039.63,3784.82
1039.89,3784.16
1040.16,3784.76
1040.43,3784.0
1040.69,3785.36
1040.96,3784.62
1041.22,3784.08
1041.49,3783.76
1041.76,3783.78
1042.02,3783.72
1042.29,3783.46
1042.55,3782.88
1042.82,3784.24
1043.09,3783.64
1043.35,3783.46
1043.62,3784.16
1043.89,3784.1
1044.15,3782.86
1044.42,3783.04
1044.68,3783.34
1044.95,3782.64
1045.22,3782.5
1045.48,3783.08
1045.75,3782.4
1046.01,3782.0
1046.28,3782.3
1046.55,3783.0
1046.81,3782.74
1047.08,3782.88
1047.34,3782.98
1047.61,3783.4
1047.88,3782.36
1048.14,3781.58
1048.41,3782.64
1048.67,3782.4
1048.94,3782.38
1049.2,3783.68
1049.47,3782.8
1049.74,3781.7
1050.0,3782.16
1050.27,3782.82
1050.53,3781.42
1050.8,3782.02
1051.06,3781.58
1051.33,3782.2
1051.6,3782.74
1051.86,3781.9
1052.13,3781.88
1052.39,3781.88
1052.66,3782.58
1052.92,3782.28
1053.19,3781.06
1053.46,3781.8
1053.72,3781.32
1053.99,3782.06
1054.25,3781.88
1054.52,3782.1
1054.78,3782.38
1055.05,3781.64
1055.32,3782.42
1055.58,3782.76
1055.85,3781.32
1056.11,3781.66
1056.38,3782.1
1056.64,3781.88
1056.91,3782.2
1057.17,3781.36
1057.44,3781.34
1057.7,3781.0
1057.97,3780.74
1058.24,3781.36
1058.5,3781.54
1058.77,3781.04
1059.03,3781.96
1059.3,3781.66
1059.56,3781.82
1059.83,3781.84
1060.09,3781.72
1060.36,3780.88
1060.62,3782.06
1060.89,3781.52
1061.15,3781.38
1061.42,3781.18
1061.68,3781.0
1061.95,3781.2
1062.22,3781.56
1062.48,3781.84
1062.75,3782.04
1063.01,3781.4
1063.28,3781.26
1063.54,3781.58
1063.81,3780.86
1064.07,3780.76
1064.34,3780.6
1064.6,3780.52
1064.87,3780.04
1065.13,3781.06
1065.4,3781.0
1065.66,3781.28
1065.93,3779.96
1066.19,3779.58
1066.46,3779.78
1066.72,3780.22
1066.99,3780.66
1067.25,3779.96
1067.52,3780.06
1067.78,3780.5
1068.05,3780.32