File: spectra/VLFR_08-PLA_nobio_Raman_c34a66cb.csv
nm,Intensity
526.508,830.6
526.645,828.65
526.782,830.9
526.919,830.05
527.055,830.15
527.192,829.8
527.329,829.5
527.465,830.45
527.602,830.5
527.739,830.1
527.875,830.75
528.012,830.6
528.149,829.85
528.285,830.25
528.422,830.7
528.558,830.65
528.695,830.35
528.832,830.4
528.968,830.75
529.105,830.85
529.241,830.8
529.378,830.45
529.514,830.35
529.651,830.0
529.787,831.3
529.924,830.25
530.061,830.0
530.197,829.55
530.334,830.5
530.47,830.75
530.606,829.55
530.743,830.15
530.879,830.15
531.016,831.45
531.152,830.15
531.289,830.35
531.425,831.05
531.562,830.5
531.698,830.85
531.834,829.7
531.971,833.0
532.107,854.95
532.244,866.9
532.38,840.95
532.516,831.5
532.653,830.1
532.789,830.65
532.925,831.35
533.062,831.1
533.198,829.85
533.334,829.85
533.471,830.3
533.607,831.55
533.743,840.8
533.879,889.8
534.016,968.0
534.152,1002.4
534.288,998.7
534.424,987.9
534.561,972.55
534.697,972.4
534.833,962.4
534.969,951.3
535.106,946.5
535.242,937.8
535.378,936.6
535.514,935.85
535.65,926.4
535.786,924.95
535.923,921.35
536.059,916.3
536.195,916.45
536.331,917.8
536.467,919.25
536.603,922.7
536.739,921.05
536.876,919.9
537.012,917.75
537.148,910.4
537.284,911.2
537.42,910.15
537.556,916.6
537.692,912.4
537.828,912.25
537.964,912.65
538.1,909.65
538.236,906.95
538.372,905.05
538.508,904.7
538.644,902.25
538.78,900.45
538.916,901.25
539.052,901.35
539.188,903.25
539.324,898.45
539.46,897.8
539.596,898.95
539.732,898.95
539.868,892.15
540.004,892.85
540.14,894.4
540.275,896.4
540.411,900.95
540.547,902.2
540.683,908.0
540.819,906.1
540.955,905.95
541.091,905.75
541.227,908.45
541.362,906.2
541.498,905.6
541.634,903.35
541.77,905.45
541.906,900.55
542.041,898.35
542.177,898.45
542.313,898.55
542.449,900.45
542.585,899.15
542.72,897.8
542.856,899.45
542.992,904.4
543.128,905.7
543.263,909.3
543.399,915.8
543.535,920.3
543.67,925.65
543.806,924.55
543.942,924.8
544.078,922.2
544.213,919.35
544.349,915.0
544.485,908.8
544.62,903.55
544.756,900.3
544.892,898.7
545.027,898.05
545.163,896.55
545.298,898.3
545.434,897.3
545.57,895.6
545.705,893.55
545.841,896.95
545.976,894.9
546.112,896.45
546.248,892.85
546.383,896.9
546.519,894.9
546.654,896.65
546.79,898.75
546.925,895.05
547.061,897.4
547.196,902.2
547.332,898.1
547.467,899.4
547.603,896.8
547.738,896.05
547.874,899.8
548.009,898.85
548.145,898.35
548.28,900.85
548.416,900.65
548.551,901.4
548.686,898.15
548.822,899.15
548.957,900.55
549.093,899.8
549.228,901.45
549.363,902.3
549.499,903.9
549.634,899.55
549.77,904.45
549.905,901.55
550.04,898.75
550.176,901.25
550.311,901.95
550.446,902.85
550.582,903.05
550.717,902.9
550.852,904.15
550.988,905.0
551.123,905.65
551.258,904.7
551.394,905.15
551.529,905.1
551.664,910.1
551.799,907.7
551.935,909.05
552.07,910.1
552.205,909.1
552.34,908.2
552.476,906.6
552.611,909.6
552.746,914.0
552.881,907.2
553.016,908.4
553.152,907.55
553.287,909.45
553.422,905.85
553.557,904.45
553.692,905.45
553.827,911.0
553.963,915.75
554.098,916.7
554.233,915.0
554.368,914.7
554.503,912.5
554.638,909.75
554.773,909.15
554.908,905.2
555.043,908.25
555.179,904.9
555.314,903.3
555.449,905.2
555.584,903.0
555.719,903.45
555.854,901.7
555.989,903.15
556.124,902.65
556.259,903.8
556.394,900.95
556.529,904.05
556.664,905.6
556.799,904.2
556.934,906.25
557.069,906.85
557.204,914.05
557.339,916.95
557.474,920.55
557.609,927.45
557.744,947.55
557.879,973.6
558.014,1004.35
558.149,1023.8
558.284,1002.15
558.419,960.45
558.553,933.45
558.688,922.75
558.823,920.15
558.958,919.25
559.093,917.35
559.228,919.05
559.363,914.25
559.498,917.1
559.632,916.55
559.767,914.35
559.902,912.65
560.037,914.05
560.172,911.4
560.307,914.1
560.441,910.9
560.576,911.2
560.711,910.55
560.846,912.95
560.981,909.75
561.115,909.8
561.25,907.1
561.385,907.25
561.52,909.1
561.654,907.05
561.789,908.95
561.924,909.8
562.059,906.9
562.193,908.35
562.328,911.05
562.463,911.2
562.598,911.15
562.732,915.6
562.867,916.35
563.002,920.25
563.136,925.7
563.271,932.6
563.406,941.4
563.54,947.3
563.675,941.15
563.81,935.55
563.944,928.45
564.079,924.25
564.213,921.75
564.348,918.2
564.483,920.8
564.617,924.5
564.752,926.95
564.887,932.7
565.021,940.25
565.156,939.6
565.29,938.3
565.425,936.7
565.559,934.0
565.694,935.05
565.828,942.25
565.963,948.25
566.098,961.05
566.232,960.85
566.367,951.4
566.501,941.2
566.636,930.85
566.77,923.4
566.905,920.3
567.039,916.75
567.174,918.9
567.308,916.5
567.443,918.65
567.577,922.5
567.711,919.3
567.846,924.85
567.98,926.95
568.115,928.15
568.249,924.1
568.384,922.25
568.518,924.35
568.652,922.2
568.787,921.6
568.921,923.65
569.056,922.9
569.19,923.95
569.324,922.0
569.459,922.45
569.593,922.7
569.727,922.1
569.862,924.25
569.996,923.35
570.131,922.15
570.265,923.65
570.399,921.0
570.534,920.8
570.668,922.75
570.802,927.55
570.936,927.95
571.071,922.9
571.205,923.2
571.339,930.8
571.474,934.45
571.608,943.75
571.742,946.4
571.876,942.6
572.011,941.6
572.145,937.3
572.279,936.2
572.413,932.55
572.548,939.25
572.682,936.45
572.816,933.3
572.95,934.45
573.084,935.55
573.219,937.55
573.353,938.55
573.487,941.7
573.621,941.65
573.755,938.75
573.889,939.6
574.024,937.75
574.158,935.75
574.292,936.55
574.426,941.75
574.56,943.95
574.694,943.9
574.828,936.6
574.963,931.8
575.097,926.95
575.231,927.75
575.365,927.7
575.499,929.8
575.633,928.05
575.767,926.65
575.901,929.8
576.035,933.65
576.169,931.8
576.303,940.85
576.437,956.0
576.571,970.9
576.706,984.75
576.84,990.5
576.974,986.45
577.108,976.25
577.242,964.55
577.376,949.6
577.51,937.6
577.644,934.5
577.778,933.9
577.912,929.7
578.046,932.95
578.179,929.5
578.313,928.55
578.447,930.45
578.581,929.75
578.715,930.5
578.849,928.85
578.983,929.45
579.117,932.05
579.251,929.1
579.385,929.65
579.519,927.0
579.653,931.75
579.787,931.1
579.921,930.15
580.054,928.1
580.188,929.5
580.322,928.5
580.456,926.65
580.59,928.6
580.724,929.0
580.858,931.05
580.991,930.25
581.125,928.05
581.259,929.6
581.393,928.55
581.527,928.9
581.661,929.55
581.794,931.8
581.928,932.5
582.062,931.8
582.196,931.65
582.33,928.55
582.463,927.95
582.597,928.25
582.731,930.55
582.865,932.1
582.998,932.2
583.132,932.3
583.266,931.35
583.4,931.8
583.533,932.5
583.667,932.7
583.801,933.4
583.935,931.8
584.068,931.7
584.202,934.55
584.336,935.4
584.469,932.25
584.603,934.1
584.737,932.65
584.87,935.9
585.004,932.8
585.138,931.6
585.271,933.15
585.405,935.15
585.539,933.55
585.672,936.35
585.806,935.55
585.94,932.9
586.073,933.8
586.207,939.6
586.34,940.0
586.474,946.7
586.608,950.95
586.741,961.0
586.875,971.45
587.008,977.15
587.142,976.95
587.276,982.75
587.409,987.65
587.543,993.2
587.676,987.95
587.81,980.2
587.943,962.8
588.077,951.55
588.21,945.45
588.344,941.15
588.478,937.0
588.611,936.0
588.745,938.1
588.878,935.85
589.012,934.55
589.145,935.45
589.279,932.05
589.412,933.1
589.546,931.8
589.679,935.55
589.812,931.6
589.946,933.35
590.079,932.8
590.213,933.7
590.346,932.15
590.48,936.7
590.613,937.1
590.747,936.3
590.88,934.35
591.013,933.75
591.147,933.6
591.28,935.6
591.414,931.6
591.547,934.2
591.68,932.05
591.814,935.1
591.947,932.6
592.081,932.4
592.214,933.3
592.347,930.55
592.481,933.35
592.614,935.1
592.747,933.3
592.881,932.65
593.014,933.35
593.147,931.85
593.281,934.45
593.414,930.55
593.547,932.8
593.681,933.05
593.814,930.0
593.947,930.4
594.081,932.7
594.214,930.25
594.347,934.7
594.48,931.25
594.614,934.9
594.747,930.05
594.88,934.15
595.014,933.4
595.147,932.9
595.28,933.7
595.413,935.8
595.547,934.3
595.68,935.5
595.813,934.4
595.946,932.25
596.079,936.5
596.213,933.45
596.346,934.65
596.479,934.4
596.612,932.95
596.745,935.65
596.879,937.5
597.012,936.45
597.145,933.45
597.278,933.6
597.411,933.9
597.545,934.1
597.678,934.35
597.811,936.5
597.944,934.15
598.077,935.2
598.21,933.05
598.343,936.0
598.476,933.65
598.61,934.1
598.743,936.8
598.876,937.15
599.009,934.85
599.142,936.15
599.275,936.45
599.408,934.95
599.541,934.75
599.674,932.15
599.807,932.9
599.941,933.55
600.074,933.2
600.207,936.25
600.34,936.3
600.473,933.25
600.606,934.6
600.739,934.35
600.872,933.25
601.005,934.65
601.138,934.4
601.271,930.65
601.404,934.25
601.537,934.65
601.67,936.25
601.803,932.45
601.936,932.65
602.069,933.3
602.202,932.2
602.335,933.5
602.468,934.25
602.601,933.55
602.734,934.25
602.867,938.3
603.0,934.9
603.133,933.95
603.266,934.45
603.399,935.85
603.532,933.2
603.664,933.85
603.797,932.55
603.93,932.9
604.063,934.2
604.196,934.5
604.329,936.45
604.462,932.75
604.595,930.9
604.728,930.15
604.861,934.4
604.994,933.05
605.126,930.65
605.259,931.15
605.392,929.05
605.525,928.4
605.658,930.15
605.791,928.8
605.924,927.35
606.056,930.25
606.189,930.4
606.322,929.75
606.455,929.6
606.588,929.35
606.721,927.1
606.853,928.1
606.986,930.95
607.119,934.15
607.252,929.65
607.385,928.4
607.517,934.4
607.65,928.65
607.783,930.7
607.916,929.5
608.049,930.25
608.181,930.25
608.314,931.55
608.447,931.5
608.58,928.6
608.712,928.65
608.845,930.05
608.978,931.5
609.111,931.5
609.243,932.65
609.376,931.7
609.509,930.4
609.641,930.75
609.774,931.4
609.907,929.45
610.04,928.45
610.172,932.4
610.305,928.0
610.438,933.55
610.57,929.45
610.703,930.6
610.836,931.3
610.968,928.0
611.101,929.9
611.234,930.2
611.366,931.6
611.499,930.95
611.632,929.85
611.764,929.3
611.897,930.35
612.03,931.6
612.162,929.65
612.295,931.2
612.428,930.0
612.56,933.9
612.693,931.75
612.825,930.1
612.958,932.6
613.091,931.85
613.223,933.65
613.356,934.75
613.488,934.15
613.621,930.95
613.754,933.15
613.886,933.65
614.019,930.4
614.151,932.35
614.284,931.95
614.416,934.15
614.549,935.15
614.681,932.35
614.814,932.5
614.947,934.6
615.079,932.4
615.212,933.85
615.344,931.2
615.477,936.55
615.609,931.3
615.742,933.7
615.874,933.5
616.007,931.2
616.139,934.2
616.272,930.75
616.404,933.25
616.537,931.5
616.669,935.9
616.802,933.25
616.934,934.5
617.067,931.9
617.199,933.85
617.332,933.6
617.464,931.95
617.596,933.45
617.729,931.45
617.861,934.55
617.994,932.65
618.126,929.9
618.259,934.7
618.391,933.3
618.524,931.65
618.656,932.65
618.788,930.25
618.921,929.5
619.053,932.0
619.186,933.15
619.318,932.15
619.45,932.5
619.583,933.65
619.715,928.65
619.848,930.05
619.98,932.2
620.112,931.05
620.245,931.0
620.377,930.0
620.509,929.5
620.642,932.55
620.774,932.9
620.907,932.0
621.039,929.55
621.171,931.2
621.304,930.25
621.436,938.1
621.568,929.0
621.701,930.75
621.833,932.8
621.965,932.3
622.097,931.75
622.23,932.0
622.362,936.3
622.494,938.2
622.627,938.5
622.759,938.9
622.891,942.3
623.024,945.65
623.156,945.0
623.288,944.65
623.42,940.9
623.553,943.2
623.685,939.35
623.817,936.65
623.949,939.95
624.082,934.65
624.214,938.7
624.346,937.65
624.479,936.0
624.611,933.6
624.743,931.65
624.875,932.25
625.007,929.95
625.14,931.05
625.272,927.3
625.404,932.45
625.536,931.15
625.669,932.8
625.801,931.75
625.933,932.5
626.065,933.1
626.197,930.25
626.33,931.25
626.462,928.05
626.594,933.95
626.726,932.85
626.858,933.6
626.99,929.3
627.123,931.35
627.255,930.35
627.387,934.35
627.519,932.45
627.651,934.7
627.783,936.55
627.916,937.1
628.048,947.95
628.18,959.3
628.312,981.85
628.444,994.0
628.576,1004.45
628.708,999.6
628.84,995.75
628.973,987.45
629.105,983.3
629.237,982.35
629.369,984.45
629.501,986.6
629.633,985.8
629.765,984.05
629.897,988.15
630.029,991.85
630.161,994.45
630.294,1000.1
630.426,1013.3
630.558,1041.15
630.69,1077.5
630.822,1157.3
630.954,1268.65
631.086,1361.2
631.218,1371.7
631.35,1322.35
631.482,1232.6
631.614,1156.4
631.746,1108.4
631.878,1072.1
632.01,1056.95
632.142,1040.2
632.274,1030.7
632.406,1028.75
632.538,1022.05
632.67,1026.6
632.802,1033.6
632.934,1055.55
633.066,1085.45
633.198,1101.0
633.33,1105.05
633.462,1106.6
633.594,1089.25
633.726,1071.3
633.858,1053.15
633.99,1028.9
634.122,1007.65
634.254,994.45
634.386,974.75
634.518,965.05
634.65,955.15
634.782,948.4
634.914,943.4
635.046,939.4
635.178,933.95
635.31,933.5
635.442,933.6
635.574,932.55
635.706,931.7
635.838,934.8
635.97,928.55
636.102,929.65
636.234,930.3
636.365,927.65
636.497,928.75
636.629,926.05
636.761,929.9
636.893,925.9
637.025,925.5
637.157,921.65
637.289,922.9
637.421,923.15
637.553,926.25
637.685,923.4
637.816,924.2
637.948,922.9
638.08,921.0
638.212,923.3
638.344,923.3
638.476,924.8
638.608,923.8
638.74,922.8
638.871,922.4
639.003,925.35
639.135,922.2
639.267,921.8
639.399,922.6
639.531,920.8
639.662,923.85
639.794,921.7
639.926,922.95
640.058,922.9
640.19,924.8
640.322,921.4
640.453,922.6
640.585,923.05
640.717,924.35
640.849,921.65
640.981,922.55
641.113,922.6
641.244,920.9
641.376,921.7
641.508,920.5
641.64,919.1
641.772,923.8
641.903,922.75
642.035,923.7
642.167,926.3
642.299,922.65
642.43,923.7
642.562,924.05
642.694,920.9
642.826,922.45
642.958,920.85
643.089,920.95
643.221,918.5
643.353,919.2
643.485,917.7
643.616,919.25
643.748,918.2
643.88,917.1
644.012,918.35
644.143,916.55
644.275,915.45
644.407,915.65
644.538,916.2
644.67,915.55
644.802,914.75
644.934,915.4
645.065,914.7
645.197,912.85
645.329,914.5
645.461,913.65
645.592,911.15
645.724,911.9
645.856,913.35
645.987,914.15
646.119,912.15
646.251,913.35
646.382,914.0
646.514,915.6
646.646,912.1
646.777,914.8
646.909,914.4
647.041,911.55
647.172,911.1
647.304,913.75
647.436,911.9
647.567,915.25
647.699,909.8
647.831,913.95
647.962,912.2
648.094,913.35
648.226,912.7
648.357,912.15
648.489,910.65
648.621,913.2
648.752,911.6
648.884,913.85
649.016,914.5
649.147,910.8
649.279,912.0
649.411,912.0
649.542,910.5
649.674,910.35
649.805,908.85
649.937,908.3
650.069,908.75
650.2,909.8
650.332,908.1
650.463,907.55
650.595,909.3
650.727,907.55
650.858,909.55
650.99,909.1
651.121,909.5
651.253,909.15
651.385,908.15
651.516,910.65
651.648,909.05
651.779,909.95
651.911,912.25
652.043,909.55
652.174,907.85
652.306,907.0
652.437,909.05
652.569,909.35
652.7,908.5
652.832,909.5
652.963,908.9
653.095,909.9
653.227,908.0
653.358,908.4
653.49,907.65
653.621,907.5
653.753,907.5
653.884,904.8
654.016,908.15
654.147,907.95
654.279,906.95
654.41,906.65
654.542,905.0
654.674,909.1
654.805,908.3
654.937,907.15
655.068,907.8
655.2,905.25
655.331,904.85
655.463,907.4
655.594,905.35
655.726,907.65
655.857,905.2
655.989,903.55
656.12,907.3
656.252,907.0
656.383,907.45
656.515,907.05
656.646,907.0
656.778,905.45
656.909,908.35
657.041,906.1
657.172,906.95
657.304,909.1
657.435,906.1
657.567,907.6
657.698,907.95
657.829,905.95
657.961,906.15
658.092,907.9
658.224,907.6
658.355,905.85
658.487,908.45
658.618,906.4
658.75,907.7
658.881,905.8
659.013,906.1
659.144,905.65
659.275,904.8
659.407,905.05
659.538,905.2
659.67,903.85
659.801,902.9
659.933,905.7
660.064,905.4
660.196,905.25
660.327,904.8
660.458,904.7
660.59,904.9
660.721,907.05
660.853,905.25
660.984,902.95
661.116,904.55
661.247,903.25
661.378,903.65
661.51,904.8
661.641,903.45
661.773,901.8
661.904,904.45
662.035,901.75
662.167,903.0
662.298,901.1
662.43,902.45
662.561,902.9
662.692,901.35
662.824,905.0
662.955,904.25
663.087,902.4