File: spectra/VLFR_01-LDPE_bio_Raman_ea71bcf5.csv
nm,Intensity
528.637,1833.2
528.806,1833.9
528.974,1834.4
529.143,1834.3
529.311,1833.4
529.48,1834.6
529.648,1833.4
529.816,1834.7
529.985,1834.6
530.153,1834.8
530.322,1834.5
530.49,1836.4
530.659,1835.7
530.827,1835.6
530.995,1835.1
531.164,1840.6
531.332,1841.8
531.5,1851.9
531.669,1942.5
531.837,3556.4
532.006,6701.9
532.174,5642.0
532.342,2187.7
532.511,1841.7
532.679,1837.8
532.847,1836.6
533.016,1836.3
533.184,1836.8
533.352,1843.0
533.521,1887.1
533.689,2133.9
533.857,2565.8
534.025,2750.4
534.194,2755.3
534.362,2696.6
534.53,2637.4
534.699,2622.1
534.867,2603.2
535.035,2560.7
535.203,2509.7
535.372,2487.7
535.54,2427.9
535.708,2416.0
535.876,2380.1
536.045,2339.6
536.213,2313.2
536.381,2298.1
536.549,2316.7
536.717,2319.3
536.886,2303.2
537.054,2306.2
537.222,2316.8
537.39,2304.0
537.558,2310.9
537.726,2310.8
537.895,2309.1
538.063,2300.8
538.231,2301.9
538.399,2281.6
538.567,2255.5
538.735,2252.4
538.903,2229.3
539.072,2225.9
539.24,2219.3
539.408,2218.8
539.576,2220.1
539.744,2212.2
539.912,2211.8
540.08,2206.9
540.248,2219.7
540.416,2213.3
540.584,2212.3
540.752,2187.3
540.92,2222.9
541.088,2210.7
541.256,2194.3
541.425,2206.8
541.593,2204.7
541.761,2191.3
541.929,2204.3
542.097,2199.6
542.265,2208.2
542.433,2231.3
542.601,2210.3
542.769,2204.8
542.937,2203.6
543.104,2200.6
543.272,2207.0
543.44,2219.9
543.608,2219.5
543.776,2203.4
543.944,2210.8
544.112,2199.1
544.28,2200.0
544.448,2196.9
544.616,2196.5
544.784,2200.7
544.952,2203.1
545.12,2213.9
545.288,2212.3
545.455,2204.9
545.623,2194.2
545.791,2194.2
545.959,2191.1
546.127,2193.3
546.295,2188.4
546.463,2198.7
546.63,2203.9
546.798,2208.3
546.966,2217.1
547.134,2231.2
547.302,2232.5
547.47,2220.6
547.637,2216.6
547.805,2247.6
547.973,2240.3
548.141,2228.7
548.308,2248.6
548.476,2249.3
548.644,2231.7
548.812,2230.5
548.98,2227.6
549.147,2207.5
549.315,2200.3
549.483,2195.4
549.65,2172.0
549.818,2187.3
549.986,2189.4
550.154,2186.7
550.321,2181.6
550.489,2178.5
550.657,2186.1
550.824,2180.8
550.992,2191.5
551.16,2188.8
551.327,2195.8
551.495,2198.6
551.663,2198.8
551.83,2199.8
551.998,2196.7
552.166,2196.8
552.333,2201.3
552.501,2201.3
552.668,2212.9
552.836,2198.7
553.004,2217.2
553.171,2240.3
553.339,2243.1
553.506,2246.5
553.674,2260.4
553.842,2273.2
554.009,2284.9
554.177,2321.0
554.344,2330.9
554.512,2327.1
554.679,2298.2
554.847,2298.9
555.014,2298.3
555.182,2285.9
555.349,2298.4
555.517,2286.9
555.684,2303.4
555.852,2302.2
556.019,2324.0
556.187,2329.9
556.354,2339.1
556.522,2353.4
556.689,2344.1
556.857,2364.0
557.024,2375.9
557.192,2386.7
557.359,2431.3
557.526,2416.5
557.694,2415.4
557.861,2449.7
558.029,2474.4
558.196,2476.7
558.363,2482.9
558.531,2524.0
558.698,2514.9
558.866,2488.0
559.033,2431.5
559.2,2407.2
559.368,2420.6
559.535,2396.8
559.702,2380.4
559.87,2367.6
560.037,2401.6
560.204,2365.0
560.372,2353.4
560.539,2362.2
560.706,2373.2
560.873,2362.4
561.041,2387.3
561.208,2378.4
561.375,2375.2
561.543,2379.9
561.71,2406.4
561.877,2391.2
562.044,2409.0
562.211,2434.8
562.379,2427.0
562.546,2432.4
562.713,2448.3
562.88,2499.3
563.048,2508.4
563.215,2518.1
563.382,2541.5
563.549,2620.6
563.716,2866.5
563.883,3356.1
564.051,3524.3
564.218,3175.2
564.385,2885.9
564.552,2823.8
564.719,2799.3
564.886,2785.1
565.053,2702.0
565.221,2671.2
565.388,2664.0
565.555,2721.7
565.722,2811.8
565.889,3167.4
566.056,3608.1
566.223,3537.3
566.39,2951.6
566.557,2732.4
566.724,2672.5
566.891,2629.5
567.058,2611.2
567.225,2608.8
567.392,2652.2
567.559,2650.0
567.726,2563.8
567.893,2546.3
568.06,2551.2
568.227,2561.5
568.394,2576.8
568.561,2576.6
568.728,2623.4
568.895,2671.0
569.062,2635.5
569.229,2628.4
569.396,2615.8
569.563,2630.2
569.73,2626.6
569.897,2653.0
570.064,2690.4
570.231,2736.8
570.398,2700.3
570.564,2827.2
570.731,2832.8
570.898,2946.5
571.065,3051.2
571.232,3388.8
571.399,4193.3
571.566,4747.1
571.732,3981.3
571.899,3425.9
572.066,3282.0
572.233,3240.4
572.4,3198.5
572.566,3188.6
572.733,3217.6
572.9,3156.3
573.067,3158.4
573.234,3179.7
573.4,3189.7
573.567,3154.2
573.734,3148.3
573.901,3236.9
574.067,3188.0
574.234,3082.6
574.401,3004.1
574.568,2962.9
574.734,2951.6
574.901,2948.0
575.068,2985.9
575.234,3117.8
575.401,3422.9
575.568,3683.0
575.734,3660.9
575.901,3813.6
576.068,4394.1
576.234,4855.7
576.401,4618.8
576.568,4375.7
576.734,4273.6
576.901,4308.9
577.067,4130.3
577.234,3874.0
577.401,3670.1
577.567,3422.0
577.734,3268.5
577.9,3253.3
578.067,3241.2
578.233,3201.5
578.4,3220.4
578.567,3236.2
578.733,3283.8
578.9,3285.0
579.066,3264.3
579.233,3292.1
579.399,3376.5
579.566,3368.1
579.732,3443.3
579.899,3492.7
580.065,3412.2
580.231,3511.2
580.398,3515.9
580.564,3540.3
580.731,3572.7
580.897,3612.2
581.064,3578.4
581.23,3622.1
581.397,3607.0
581.563,3723.4
581.729,3691.9
581.896,3762.8
582.062,3769.8
582.228,3738.7
582.395,3705.7
582.561,3784.7
582.728,3701.2
582.894,3767.0
583.06,3777.2
583.227,3822.9
583.393,3807.5
583.559,3799.9
583.726,3856.4
583.892,3800.1
584.058,3835.7
584.224,3806.3
584.391,3926.1
584.557,3768.5
584.723,3785.1
584.889,3970.4
585.056,3970.2
585.222,3963.3
585.388,3882.2
585.554,3930.9
585.721,3967.7
585.887,3944.4
586.053,3915.2
586.219,4028.6
586.385,4025.1
586.552,3977.6
586.718,4066.2
586.884,4081.7
587.05,4039.2
587.216,4093.7
587.382,4112.8
587.549,4132.3
587.715,4156.1
587.881,4181.9
588.047,4215.5
588.213,4249.5
588.379,4200.9
588.545,4222.2
588.711,4216.4
588.877,4257.0
589.043,4305.1
589.209,4287.4
589.375,4329.7
589.542,4303.9
589.708,4248.4
589.874,4278.6
590.04,4297.9
590.206,4395.6
590.372,4455.8
590.538,4405.9
590.704,4348.5
590.87,4415.9
591.036,4387.3
591.201,4419.5
591.367,4503.4
591.533,4442.2
591.699,4484.1
591.865,4444.8
592.031,4451.3
592.197,4517.8
592.363,4501.9
592.529,4464.7
592.695,4518.7
592.861,4509.5
593.027,4436.9
593.192,4541.0
593.358,4478.5
593.524,4431.3
593.69,4476.4
593.856,4502.1
594.022,4519.4
594.187,4453.7
594.353,4472.5
594.519,4526.9
594.685,4509.9
594.851,4498.9
595.016,4649.5
595.182,4567.9
595.348,4471.8
595.514,4556.9
595.679,4565.2
595.845,4524.9
596.011,4660.3
596.177,4626.6
596.342,4525.7
596.508,4543.7
596.674,4678.1
596.84,4674.8
597.005,4581.7
597.171,4629.5
597.337,4672.7
597.502,4664.2
597.668,4700.8
597.833,4667.1
597.999,4698.9
598.165,4709.0
598.33,4691.1
598.496,4783.2
598.662,4791.4
598.827,4806.2
598.993,4814.7
599.158,4774.2
599.324,4786.3
599.489,4822.6
599.655,4860.7
599.821,4888.2
599.986,4963.3
600.152,4874.3
600.317,4833.9
600.483,4830.3
600.648,4810.2
600.814,4842.4
600.979,4853.1
601.145,4852.5
601.31,4889.6
601.476,4780.1
601.641,4915.8
601.807,4835.7
601.972,4712.4
602.137,4806.9
602.303,4799.2
602.468,4757.5
602.634,4841.1
602.799,4725.0
602.964,4745.3
603.13,4734.8
603.295,4635.3
603.461,4611.7
603.626,4543.5
603.791,4645.7
603.957,4629.4
604.122,4618.5
604.287,4559.7
604.453,4483.7
604.618,4435.5
604.783,4427.4
604.949,4433.2
605.114,4376.7
605.279,4251.4
605.444,4359.2
605.61,4362.7
605.775,4352.5
605.94,4286.5
606.105,4206.2
606.271,4180.2
606.436,4170.1
606.601,4154.1
606.766,4169.0
606.931,4149.7
607.097,4118.6
607.262,4054.6
607.427,4069.1
607.592,4035.9
607.757,4013.6
607.922,3984.4
608.088,3921.1
608.253,4030.7
608.418,3983.3
608.583,3888.1
608.748,3880.2
608.913,3927.4
609.078,3911.1
609.243,3838.9
609.408,3808.6
609.573,3828.0
609.738,3820.0
609.903,3826.8
610.068,3825.3
610.233,3816.9
610.399,3843.4
610.564,3772.4
610.729,3820.9
610.894,3763.5
611.058,3741.0
611.223,3794.8
611.388,3660.2
611.553,3689.4
611.718,3732.3
611.883,3728.5
612.048,3666.7
612.213,3662.8
612.378,3614.0
612.543,3650.9
612.708,3629.7
612.873,3612.4
613.038,3615.3
613.202,3620.3
613.367,3576.7
613.532,3567.1
613.697,3600.1
613.862,3562.5
614.027,3545.8
614.192,3584.6
614.356,3511.6
614.521,3556.4
614.686,3568.7
614.851,3508.9
615.016,3533.6
615.18,3438.5
615.345,3515.8
615.51,3518.9
615.675,3473.8
615.839,3538.2
616.004,3531.7
616.169,3485.7
616.333,3511.5
616.498,3495.4
616.663,3458.2
616.827,3501.7
616.992,3493.0
617.157,3548.3
617.321,3562.5
617.486,3548.2
617.651,3554.7
617.815,3530.8
617.98,3497.2
618.145,3538.6
618.309,3515.0
618.474,3504.6
618.638,3489.6
618.803,3484.8
618.968,3493.7
619.132,3487.4
619.297,3552.7
619.461,3548.8
619.626,3580.4
619.79,3538.1
619.955,3511.3
620.119,3587.3
620.284,3541.1
620.448,3516.9
620.613,3552.8
620.777,3594.4
620.942,3674.4
621.106,3595.1
621.271,3663.8
621.435,3752.6
621.599,3802.6
621.764,3946.1
621.928,3976.7
622.093,4040.5
622.257,4017.7
622.421,3926.0
622.586,3876.2
622.75,3750.4
622.915,3660.3
623.079,3591.6
623.243,3611.3
623.408,3565.1
623.572,3512.5
623.736,3411.6
623.9,3493.4
624.065,3481.1
624.229,3463.2
624.393,3477.3
624.558,3514.9
624.722,3550.7
624.886,3541.8
625.05,3572.8
625.215,3513.0
625.379,3546.4
625.543,3629.7
625.707,3678.1
625.871,3734.3
626.036,3822.8
626.2,3993.2
626.364,4210.6
626.528,4947.6
626.692,6437.7
626.856,8749.5
627.02,11230.4
627.185,12582.5
627.349,12501.8
627.513,11086.8
627.677,9802.3
627.841,9067.0
628.005,9381.7
628.169,9652.2
628.333,11215.0
628.497,13031.6
628.661,11894.5
628.825,10204.0
628.989,9977.8
629.153,9553.9
629.317,9365.8
629.481,8452.4
629.645,8074.0
629.809,7680.4
629.973,7662.4
630.137,7485.1
630.301,7336.3
630.465,7061.5
630.629,6555.7
630.793,6230.0
630.957,5384.7
631.121,4866.3
631.285,4488.1
631.449,4258.2
631.612,4212.2
631.776,4071.8
631.94,3987.4
632.104,3951.9
632.268,3805.1
632.432,3687.9
632.596,3678.5
632.759,3642.3
632.923,3621.8
633.087,3623.1
633.251,3627.8
633.414,3599.1
633.578,3598.0
633.742,3559.3
633.906,3586.1
634.069,3532.3
634.233,3474.6
634.397,3565.9
634.561,3527.6
634.724,3497.7
634.888,3464.8
635.052,3587.6
635.215,3480.4
635.379,3463.3
635.543,3472.3
635.706,3438.4
635.87,3506.4
636.034,3459.5
636.197,3467.3
636.361,3488.7
636.524,3443.2
636.688,3442.2
636.852,3439.2
637.015,3469.3
637.179,3390.8
637.342,3416.8
637.506,3387.0
637.669,3422.4
637.833,3462.4
637.996,3424.8
638.16,3403.5
638.323,3390.4
638.487,3391.7
638.65,3359.5
638.814,3395.9
638.977,3390.7
639.141,3387.4
639.304,3427.5
639.468,3429.7
639.631,3343.8
639.794,3342.4
639.958,3403.0
640.121,3401.8
640.285,3388.4
640.448,3319.9
640.611,3370.6
640.775,3361.5
640.938,3373.3
641.101,3370.3
641.265,3391.5
641.428,3412.6
641.591,3402.3
641.755,3347.5
641.918,3311.6
642.081,3410.4
642.244,3420.9
642.408,3375.0
642.571,3372.4
642.734,3338.1
642.897,3374.6
643.061,3420.0
643.224,3280.1
643.387,3339.0
643.55,3328.4
643.713,3424.0
643.876,3332.0
644.04,3333.9
644.203,3305.8
644.366,3363.0
644.529,3294.0
644.692,3333.8
644.855,3319.8
645.018,3356.0
645.181,3346.2
645.345,3361.7
645.508,3273.5
645.671,3267.6
645.834,3326.5
645.997,3326.9
646.16,3238.6
646.323,3290.1
646.486,3287.6
646.649,3291.0
646.812,3273.1
646.975,3235.1
647.138,3253.6
647.301,3320.1
647.464,3274.0
647.627,3260.7
647.79,3225.8
647.953,3275.4
648.115,3214.0
648.278,3196.5
648.441,3236.5
648.604,3217.8
648.767,3202.2
648.93,3192.6
649.093,3205.0
649.256,3144.9
649.418,3178.6
649.581,3247.1
649.744,3176.0
649.907,3139.8
650.07,3170.8
650.233,3169.1
650.395,3193.8
650.558,3182.7
650.721,3121.6
650.884,3158.3
651.046,3154.0
651.209,3148.5
651.372,3199.6
651.534,3152.9
651.697,3144.5
651.86,3098.5
652.023,3142.5
652.185,3122.3
652.348,3115.6
652.511,3081.4
652.673,3138.8
652.836,3104.9
652.998,3032.5
653.161,3072.0
653.324,3086.3
653.486,3014.5
653.649,3085.1
653.811,3096.0
653.974,3051.5
654.137,3047.6
654.299,3012.3
654.462,2985.5
654.624,3026.2
654.787,3028.1
654.949,3007.8
655.112,2980.2
655.274,2995.2
655.437,3001.7
655.599,2983.5
655.761,2972.6
655.924,2962.4
656.086,2955.7
656.249,2908.9
656.411,2945.1
656.574,2959.3
656.736,2938.8
656.898,2945.6
657.061,2917.6
657.223,2830.3
657.385,2923.8
657.548,2878.2
657.71,2885.3
657.872,2844.1
658.035,2891.6
658.197,2848.8
658.359,2871.2
658.522,2810.8
658.684,2817.5
658.846,2817.5
659.008,2783.4
659.171,2787.1
659.333,2754.6
659.495,2740.5
659.657,2736.3
659.82,2754.1
659.982,2745.4
660.144,2763.6
660.306,2742.2
660.468,2709.7
660.63,2725.0
660.793,2675.2
660.955,2668.8
661.036,2688.0