File: spectra/VLFR_08-PLA_bio_Raman_e9a29d0e.csv
nm,Intensity
528.637,1836.7
528.806,1838.3
528.974,1838.0
529.143,1838.2
529.311,1838.2
529.48,1836.2
529.648,1839.1
529.816,1837.1
529.985,1838.5
530.153,1837.6
530.322,1840.2
530.49,1838.8
530.659,1838.7
530.827,1839.8
530.995,1838.5
531.164,1840.9
531.332,1843.2
531.5,1850.9
531.669,1894.9
531.837,2588.2
532.006,4876.9
532.174,3832.2
532.342,1969.1
532.511,1844.0
532.679,1842.1
532.847,1841.5
533.016,1841.1
533.184,1845.0
533.352,1851.3
533.521,1942.8
533.689,2381.9
533.857,3137.2
534.025,3500.6
534.194,3485.0
534.362,3280.2
534.53,3229.3
534.699,3196.1
534.867,3103.8
535.035,3027.7
535.203,2952.4
535.372,2961.9
535.54,2852.2
535.708,2800.4
535.876,2749.0
536.045,2695.4
536.213,2733.2
536.381,2779.0
536.549,2801.0
536.717,2759.4
536.886,2717.1
537.054,2694.6
537.222,2669.8
537.39,2704.6
537.558,2705.6
537.726,2715.1
537.895,2669.3
538.063,2641.0
538.231,2582.3
538.399,2575.4
538.567,2533.2
538.735,2548.0
538.903,2554.0
539.072,2556.9
539.24,2561.2
539.408,2537.0
539.576,2490.1
539.744,2453.1
539.912,2458.2
540.08,2515.4
540.248,2559.7
540.416,2619.9
540.584,2637.4
540.752,2667.6
540.92,2673.6
541.088,2656.9
541.256,2625.3
541.425,2633.4
541.593,2595.5
541.761,2565.3
541.929,2545.5
542.097,2524.9
542.265,2504.0
542.433,2515.3
542.601,2557.8
542.769,2540.8
542.937,2588.6
543.104,2679.4
543.272,2780.5
543.44,2806.0
543.608,2883.7
543.776,2850.1
543.944,2798.3
544.112,2798.9
544.28,2677.3
544.448,2600.9
544.616,2535.4
544.784,2554.4
544.952,2537.0
545.12,2516.9
545.288,2522.9
545.455,2510.8
545.623,2499.8
545.791,2482.3
545.959,2488.8
546.127,2487.7
546.295,2515.5
546.463,2483.1
546.63,2509.9
546.798,2523.8
546.966,2510.5
547.134,2546.7
547.302,2525.1
547.47,2508.0
547.637,2531.9
547.805,2519.3
547.973,2526.2
548.141,2527.9
548.308,2552.6
548.476,2541.7
548.644,2581.5
548.812,2547.8
548.98,2553.1
549.147,2555.1
549.315,2582.0
549.483,2559.5
549.65,2559.6
549.818,2545.4
549.986,2557.8
550.154,2568.6
550.321,2580.6
550.489,2582.8
550.657,2606.5
550.824,2617.9
550.992,2636.1
551.16,2636.6
551.327,2621.0
551.495,2677.8
551.663,2678.8
551.83,2689.0
551.998,2676.6
552.166,2713.8
552.333,2694.2
552.501,2678.2
552.668,2706.1
552.836,2710.7
553.004,2673.2
553.171,2672.6
553.339,2642.7
553.506,2637.0
553.674,2695.1
553.842,2771.0
554.009,2801.2
554.177,2747.0
554.344,2707.3
554.512,2699.7
554.679,2680.1
554.847,2672.2
555.014,2664.2
555.182,2641.9
555.349,2610.6
555.517,2597.4
555.684,2592.5
555.852,2606.2
556.019,2600.2
556.187,2587.7
556.354,2618.6
556.522,2617.5
556.689,2638.3
556.857,2654.8
557.024,2687.9
557.192,2740.5
557.359,2843.7
557.526,2994.3
557.694,3383.0
557.861,3877.7
558.029,4229.4
558.196,4009.7
558.363,3418.9
558.531,2996.8
558.698,2828.9
558.866,2880.8
559.033,2835.3
559.2,2804.0
559.368,2788.9
559.535,2758.0
559.702,2798.0
559.87,2736.7
560.037,2696.7
560.204,2726.4
560.372,2705.1
560.539,2731.6
560.706,2703.0
560.873,2699.5
561.041,2697.6
561.208,2669.8
561.375,2670.5
561.543,2676.5
561.71,2727.1
561.877,2694.7
562.044,2682.4
562.211,2711.5
562.379,2715.9
562.546,2724.0
562.713,2811.5
562.88,2875.3
563.048,2958.9
563.215,3048.4
563.382,3161.8
563.549,3152.1
563.716,3032.8
563.883,2964.7
564.051,2829.3
564.218,2800.6
564.385,2837.6
564.552,2852.0
564.719,2987.4
564.886,3025.2
565.053,3048.3
565.221,3084.5
565.388,3048.3
565.555,3039.0
565.722,3070.1
565.889,3244.1
566.056,3371.1
566.223,3325.2
566.39,3150.4
566.557,2986.0
566.724,2872.8
566.891,2794.2
567.058,2803.1
567.225,2778.9
567.392,2803.9
567.559,2814.8
567.726,2858.6
567.893,2903.0
568.06,2886.0
568.227,2851.3
568.394,2851.5
568.561,2842.0
568.728,2856.0
568.895,2855.6
569.062,2877.6
569.229,2855.8
569.396,2832.7
569.563,2813.4
569.73,2815.9
569.897,2824.3
570.064,2821.2
570.231,2851.7
570.398,2816.9
570.564,2834.8
570.731,2826.2
570.898,2865.9
571.065,2868.6
571.232,2951.2
571.399,3025.2
571.566,3140.4
571.732,3147.6
571.899,3108.4
572.066,3051.9
572.233,3019.2
572.4,3008.1
572.566,2976.2
572.733,3016.8
572.9,2998.5
573.067,3031.5
573.234,3023.0
573.4,3035.4
573.567,3015.7
573.734,3043.2
573.901,2987.4
574.067,2974.8
574.234,2998.0
574.401,3123.0
574.568,3076.3
574.734,3040.6
574.901,2915.1
575.068,2861.8
575.234,2885.9
575.401,2844.6
575.568,2880.0
575.734,2915.1
575.901,2933.9
576.068,2992.2
576.234,3106.1
576.401,3391.6
576.568,3624.6
576.734,3720.3
576.901,3705.1
577.067,3470.1
577.234,3219.2
577.401,3012.1
577.567,2919.0
577.734,2907.2
577.9,2898.4
578.067,2871.0
578.233,2853.1
578.4,2875.0
578.567,2881.8
578.733,2877.4
578.9,2822.4
579.066,2851.7
579.233,2842.8
579.399,2852.4
579.566,2834.6
579.732,2864.2
579.899,2859.1
580.065,2831.2
580.231,2826.2
580.398,2860.4
580.564,2863.0
580.731,2878.2
580.897,2860.5
581.064,2903.2
581.23,2836.0
581.397,2851.2
581.563,2844.0
581.729,2873.1
581.896,2851.1
582.062,2852.3
582.228,2882.0
582.395,2869.4
582.561,2831.7
582.728,2863.9
582.894,2872.6
583.06,2869.4
583.227,2888.1
583.393,2865.0
583.559,2872.4
583.726,2866.7
583.892,2847.5
584.058,2911.3
584.224,2866.9
584.391,2897.9
584.557,2856.1
584.723,2873.5
584.889,2872.0
585.056,2884.5
585.222,2913.1
585.388,2887.3
585.554,2851.1
585.721,2906.7
585.887,2865.2
586.053,2910.2
586.219,2932.1
586.385,3012.0
586.552,3171.7
586.718,3332.2
586.884,3413.4
587.05,3461.5
587.216,3524.2
587.382,3609.4
587.549,3620.0
587.715,3488.9
587.881,3281.6
588.047,3079.8
588.213,2990.3
588.379,2911.7
588.545,2873.1
588.711,2905.9
588.877,2891.3
589.043,2872.3
589.209,2861.1
589.375,2860.6
589.542,2842.6
589.708,2842.7
589.874,2840.8
590.04,2836.6
590.206,2850.8
590.372,2864.1
590.538,2867.8
590.704,2830.8
590.87,2845.0
591.036,2859.6
591.201,2852.8
591.367,2841.6
591.533,2850.9
591.699,2832.1
591.865,2857.0
592.031,2846.7
592.197,2861.7
592.363,2856.2
592.529,2863.5
592.695,2856.4
592.861,2817.6
593.027,2833.4
593.192,2840.9
593.358,2860.3
593.524,2838.2
593.69,2817.6
593.856,2840.7
594.022,2840.8
594.187,2855.8
594.353,2846.8
594.519,2847.2
594.685,2844.2
594.851,2817.2
595.016,2855.6
595.182,2845.8
595.348,2837.8
595.514,2855.3
595.679,2886.0
595.845,2852.9
596.011,2851.6
596.177,2827.6
596.342,2872.9
596.508,2862.7
596.674,2850.3
596.84,2841.1
597.005,2875.1
597.171,2860.7
597.337,2843.0
597.502,2855.7
597.668,2834.5
597.833,2850.5
597.999,2849.9
598.165,2849.1
598.33,2882.1
598.496,2839.6
598.662,2865.6
598.827,2865.0
598.993,2846.0
599.158,2856.3
599.324,2822.6
599.489,2847.6
599.655,2875.7
599.821,2849.2
599.986,2837.6
600.152,2869.1
600.317,2855.8
600.483,2851.5
600.648,2858.1
600.814,2846.6
600.979,2857.8
601.145,2828.8
601.31,2841.9
601.476,2854.2
601.641,2860.4
601.807,2838.9
601.972,2844.5
602.137,2836.5
602.303,2865.8
602.468,2861.9
602.634,2823.0
602.799,2819.3
602.964,2891.1
603.13,2879.4
603.295,2834.4
603.461,2835.7
603.626,2798.2
603.791,2837.0
603.957,2865.3
604.122,2851.4
604.287,2833.2
604.453,2816.2
604.618,2802.4
604.783,2837.4
604.949,2833.8
605.114,2833.7
605.279,2850.4
605.444,2829.0
605.61,2847.2
605.775,2838.1
605.94,2831.3
606.105,2816.2
606.271,2823.0
606.436,2847.7
606.601,2844.5
606.766,2832.9
606.931,2862.4
607.097,2828.2
607.262,2815.8
607.427,2830.1
607.592,2841.9
607.757,2869.3
607.922,2831.8
608.088,2815.9
608.253,2841.3
608.418,2834.3
608.583,2773.6
608.748,2828.4
608.913,2856.5
609.078,2841.5
609.243,2787.3
609.408,2830.5
609.573,2811.6
609.738,2824.8
609.903,2858.1
610.068,2826.7
610.233,2827.4
610.399,2851.6
610.564,2797.3
610.729,2843.3
610.894,2823.9
611.058,2837.2
611.223,2828.2
611.388,2834.7
611.553,2783.1
611.718,2804.5
611.883,2847.1
612.048,2791.5
612.213,2817.2
612.378,2796.7
612.543,2832.7
612.708,2757.2
612.873,2809.9
613.038,2816.2
613.202,2835.3
613.367,2783.0
613.532,2803.0
613.697,2803.7
613.862,2832.4
614.027,2848.3
614.192,2823.2
614.356,2799.3
614.521,2777.7
614.686,2814.0
614.851,2843.2
615.016,2805.6
615.18,2828.4
615.345,2818.1
615.51,2821.6
615.675,2788.7
615.839,2828.0
616.004,2800.5
616.169,2784.8
616.333,2822.9
616.498,2784.8
616.663,2841.3
616.827,2782.5
616.992,2805.9
617.157,2808.7
617.321,2781.0
617.486,2847.0
617.651,2797.3
617.815,2777.3
617.98,2802.4
618.145,2810.3
618.309,2772.2
618.474,2786.3
618.638,2782.2
618.803,2781.6
618.968,2808.9
619.132,2784.3
619.297,2809.1
619.461,2776.6
619.626,2779.0
619.79,2800.9
619.955,2794.6
620.119,2788.3
620.284,2770.4
620.448,2796.0
620.613,2782.0
620.777,2805.8
620.942,2796.3
621.106,2791.6
621.271,2771.5
621.435,2777.0
621.599,2803.9
621.764,2804.9
621.928,2800.8
622.093,2815.6
622.257,2846.5
622.421,2823.5
622.586,2861.0
622.75,2909.3
622.915,2924.3
623.079,2947.9
623.243,2873.7
623.408,2929.6
623.572,2853.9
623.736,2797.2
623.9,2855.3
624.065,2801.9
624.229,2848.1
624.393,2803.6
624.558,2766.9
624.722,2784.5
624.886,2786.1
625.05,2770.0
625.215,2736.6
625.379,2753.7
625.543,2765.3
625.707,2763.9
625.871,2767.0
626.036,2733.8
626.2,2776.5
626.364,2755.4
626.528,2738.0
626.692,2783.9
626.856,2761.0
627.02,2755.4
627.185,2755.4
627.349,2783.3
627.513,2796.1
627.677,2822.2
627.841,2883.8
628.005,3077.3
628.169,3321.6
628.333,3481.7
628.497,3556.9
628.661,3505.7
628.825,3410.8
628.989,3348.0
629.153,3358.9
629.317,3368.1
629.481,3444.0
629.645,3436.9
629.809,3388.8
629.973,3471.4
630.137,3638.1
630.301,3729.2
630.465,4171.1
630.629,4924.5
630.793,6161.4
630.957,7340.2
631.121,7584.1
631.285,6955.5
631.449,5779.8
631.612,5025.3
631.776,4439.3
631.94,4170.7
632.104,4094.9
632.268,3886.0
632.432,3876.8
632.596,3962.5
632.759,4194.7
632.923,4598.9
633.087,4804.2
633.251,4970.4
633.414,4809.9
633.578,4513.8
633.742,4267.4
633.906,3899.5
634.069,3607.8
634.233,3366.8
634.397,3183.2
634.561,3031.3
634.724,2963.0
634.888,2835.8
635.052,2817.2
635.215,2757.2
635.379,2740.7
635.543,2716.6
635.706,2736.2
635.87,2689.1
636.034,2679.3
636.197,2729.0
636.361,2700.2
636.524,2663.6
636.688,2684.0
636.852,2666.5
637.015,2652.4
637.179,2639.5
637.342,2642.2
637.506,2663.5
637.669,2627.1
637.833,2623.1
637.996,2628.7
638.16,2657.8
638.323,2647.8
638.487,2589.7
638.65,2621.9
638.814,2642.1
638.977,2637.2
639.141,2603.8
639.304,2596.7
639.468,2634.3
639.631,2617.3
639.794,2601.4
639.958,2610.5
640.121,2615.5
640.285,2612.9
640.448,2570.3
640.611,2561.7
640.775,2610.7
640.938,2599.9
641.101,2572.2
641.265,2602.8
641.428,2611.9
641.591,2594.2
641.755,2590.5
641.918,2591.8
642.081,2592.5
642.244,2601.1
642.408,2588.9
642.571,2596.6
642.734,2577.6
642.897,2559.3
643.061,2556.8
643.224,2542.8
643.387,2544.0
643.55,2563.5
643.713,2564.6
643.876,2550.7
644.04,2554.2
644.203,2546.1
644.366,2543.8
644.529,2506.5
644.692,2501.4
644.855,2518.1
645.018,2523.6
645.181,2540.8
645.345,2561.3
645.508,2504.1
645.671,2496.6
645.834,2526.3
645.997,2515.7
646.16,2495.5
646.323,2483.0
646.486,2512.0
646.649,2489.6
646.812,2482.7
646.975,2496.4
647.138,2502.3
647.301,2485.8
647.464,2483.7
647.627,2469.3
647.79,2462.8
647.953,2481.6
648.115,2478.7
648.278,2441.5
648.441,2448.9
648.604,2471.8
648.767,2462.3
648.93,2460.6
649.093,2470.7
649.256,2438.3
649.418,2455.8
649.581,2454.6
649.744,2454.8
649.907,2434.8
650.07,2435.3
650.233,2417.0
650.395,2422.6
650.558,2455.5
650.721,2425.0
650.884,2420.1
651.046,2432.3
651.209,2453.7
651.372,2411.0
651.534,2390.5
651.697,2419.8
651.86,2427.7
652.023,2392.7
652.185,2385.5
652.348,2410.9
652.511,2404.5
652.673,2390.7
652.836,2389.4
652.998,2411.8
653.161,2398.0
653.324,2383.8
653.486,2389.8
653.649,2412.0
653.811,2359.4
653.974,2391.5
654.137,2380.2
654.299,2355.2
654.462,2359.2
654.624,2378.3
654.787,2374.9
654.949,2348.7
655.112,2374.9
655.274,2375.3
655.437,2363.3
655.599,2370.4
655.761,2359.9
655.924,2344.9
656.086,2344.3
656.249,2339.7
656.411,2344.0
656.574,2360.4
656.736,2376.2
656.898,2332.9
657.061,2363.6
657.223,2358.1
657.385,2334.4
657.548,2320.8
657.71,2361.6
657.872,2345.4
658.035,2315.8
658.197,2320.1
658.359,2331.0
658.522,2320.8
658.684,2321.5
658.846,2312.4
659.008,2281.4
659.171,2301.3
659.333,2310.5
659.495,2285.5
659.657,2261.3
659.82,2291.3
659.982,2259.3
660.144,2287.5
660.306,2297.1
660.468,2319.5
660.63,2275.6
660.793,2297.3
660.955,2310.3
661.036,2286.2