File: spectra/VLFR_06-PET_bio_Raman_cd2211c6.csv
nm,Intensity
528.637,1839.1
528.806,1840.9
528.974,1838.9
529.143,1838.6
529.311,1840.2
529.48,1840.8
529.648,1839.6
529.816,1840.9
529.985,1839.3
530.153,1839.6
530.322,1838.9
530.49,1841.1
530.659,1841.4
530.827,1841.1
530.995,1845.1
531.164,1844.4
531.332,1849.8
531.5,1853.9
531.669,1903.6
531.837,2953.5
532.006,5307.9
532.174,4840.5
532.342,2058.1
532.511,1851.7
532.679,1850.2
532.847,1850.4
533.016,1859.4
533.184,1868.1
533.352,1929.2
533.521,2496.9
533.689,5676.1
533.857,10522.6
534.025,12667.5
534.194,12543.9
534.362,11426.1
534.53,10481.1
534.699,9968.8
534.867,8838.8
535.035,7861.0
535.203,7048.6
535.372,6381.4
535.54,5647.1
535.708,5015.9
535.876,4479.9
536.045,4097.1
536.213,3783.2
536.381,3572.3
536.549,3453.3
536.717,3328.7
536.886,3234.5
537.054,3170.3
537.222,3087.4
537.39,3064.7
537.558,3021.7
537.726,2975.1
537.895,3015.2
538.063,3026.7
538.231,3021.2
538.399,3036.0
538.567,2990.8
538.735,2974.3
538.903,2972.9
539.072,3001.7
539.24,3038.9
539.408,3134.7
539.576,3230.5
539.744,3319.5
539.912,3309.6
540.08,3237.5
540.248,3036.1
540.416,2894.1
540.584,2819.3
540.752,2721.7
540.92,2691.6
541.088,2648.6
541.256,2624.7
541.425,2594.8
541.593,2580.0
541.761,2592.9
541.929,2630.8
542.097,2577.2
542.265,2588.5
542.433,2605.6
542.601,2612.9
542.769,2607.5
542.937,2556.3
543.104,2592.2
543.272,2587.3
543.44,2570.7
543.608,2601.0
543.776,2692.4
543.944,2675.2
544.112,2626.9
544.28,2611.8
544.448,2615.6
544.616,2603.0
544.784,2610.6
544.952,2619.5
545.12,2610.7
545.288,2632.8
545.455,2642.1
545.623,2647.0
545.791,2662.5
545.959,2620.0
546.127,2648.3
546.295,2649.6
546.463,2665.1
546.63,2673.4
546.798,2702.3
546.966,2697.6
547.134,2705.8
547.302,2713.2
547.47,2734.6
547.637,2726.8
547.805,2693.6
547.973,2740.9
548.141,2728.6
548.308,2735.4
548.476,2742.5
548.644,2739.7
548.812,2725.2
548.98,2758.0
549.147,2735.1
549.315,2695.6
549.483,2738.4
549.65,2709.0
549.818,2746.7
549.986,2768.7
550.154,2810.1
550.321,3069.5
550.489,3964.6
550.657,4715.8
550.824,3613.7
550.992,2905.4
551.16,2866.6
551.327,2855.3
551.495,2857.3
551.663,2852.1
551.83,2873.4
551.998,2885.0
552.166,2908.2
552.333,2932.2
552.501,3011.8
552.668,3384.6
552.836,3633.0
553.004,3325.2
553.171,3026.2
553.339,2933.6
553.506,2937.0
553.674,2983.6
553.842,2973.9
554.009,2964.4
554.177,2952.5
554.344,2975.6
554.512,3007.2
554.679,2999.8
554.847,3020.8
555.014,3120.7
555.182,3198.1
555.349,3425.0
555.517,3764.9
555.684,3903.3
555.852,3790.3
556.019,3844.1
556.187,3882.2
556.354,3970.9
556.522,3999.4
556.689,4036.8
556.857,4068.0
557.024,4312.5
557.192,4819.6
557.359,5770.0
557.526,6105.6
557.694,5686.6
557.861,4666.3
558.029,4300.9
558.196,4242.8
558.363,4314.4
558.531,4227.5
558.698,4056.7
558.866,3888.0
559.033,3658.3
559.2,3497.6
559.368,3362.1
559.535,3302.1
559.702,3335.5
559.87,3330.9
560.037,3298.5
560.204,3322.4
560.372,3309.9
560.539,3326.8
560.706,3318.0
560.873,3356.4
561.041,3378.9
561.208,3420.8
561.375,3475.6
561.543,3476.8
561.71,3476.1
561.877,3567.1
562.044,3675.1
562.211,3728.3
562.379,3625.6
562.546,3696.3
562.713,3836.9
562.88,3895.1
563.048,3836.6
563.215,3807.9
563.382,3763.1
563.549,3739.9
563.716,3686.6
563.883,3642.5
564.051,3634.1
564.218,3657.4
564.385,3730.0
564.552,3872.6
564.719,4006.0
564.886,4310.5
565.053,4609.3
565.221,4899.0
565.388,5043.0
565.555,5407.5
565.722,5448.0
565.889,5496.8
566.056,5128.2
566.223,4678.7
566.39,4276.7
566.557,3984.1
566.724,3845.7
566.891,3803.7
567.058,3839.7
567.225,3928.5
567.392,4294.3
567.559,4692.1
567.726,4821.0
567.893,4462.6
568.06,4044.8
568.227,3959.2
568.394,3834.3
568.561,3812.4
568.728,3870.8
568.895,3835.3
569.062,3860.3
569.229,3858.2
569.396,3975.6
569.563,4098.5
569.73,4210.4
569.897,4315.7
570.064,4455.1
570.231,4738.2
570.398,5204.1
570.564,5612.4
570.731,6184.3
570.898,6864.9
571.065,7552.0
571.232,8159.5
571.399,7926.0
571.566,7304.6
571.732,6477.8
571.899,5978.4
572.066,5503.2
572.233,5080.1
572.4,4746.0
572.566,4349.2
572.733,4326.4
572.9,4206.0
573.067,4197.3
573.234,4144.5
573.4,4113.6
573.567,4205.6
573.734,4268.8
573.901,4419.9
574.067,4521.2
574.234,4339.1
574.401,4268.6
574.568,4324.0
574.734,4321.1
574.901,4361.5
575.068,4569.5
575.234,4843.5
575.401,4825.1
575.568,4533.8
575.734,4392.9
575.901,4513.1
576.068,4547.0
576.234,4674.1
576.401,4907.2
576.568,4918.9
576.734,4915.4
576.901,4779.4
577.067,4675.9
577.234,4459.3
577.401,4433.7
577.567,4347.7
577.734,4250.5
577.9,4263.0
578.067,4317.2
578.233,4303.6
578.4,4275.5
578.567,4253.7
578.733,4326.9
578.9,4304.6
579.066,4301.4
579.233,4367.3
579.399,4389.2
579.566,4389.8
579.732,4401.3
579.899,4457.2
580.065,4418.0
580.231,4441.8
580.398,4500.0
580.564,4551.1
580.731,4674.1
580.897,4784.6
581.064,4831.5
581.23,4928.9
581.397,5237.5
581.563,6045.9
581.729,8220.3
581.896,12784.2
582.062,18046.3
582.228,17814.7
582.395,10465.5
582.561,6249.8
582.728,5173.8
582.894,4971.2
583.06,4797.1
583.227,4686.9
583.393,4591.7
583.559,4639.3
583.726,4749.5
583.892,4621.5
584.058,4668.0
584.224,4752.3
584.391,4862.4
584.557,4879.3
584.723,4907.9
584.889,5002.6
585.056,5212.8
585.222,5916.5
585.388,7129.7
585.554,9538.3
585.721,11921.9
585.887,13045.2
586.053,12725.8
586.219,11214.7
586.385,9677.8
586.552,7685.8
586.718,6355.7
586.884,5490.7
587.05,5208.0
587.216,5020.6
587.382,4909.2
587.549,4865.4
587.715,4830.2
587.881,4940.2
588.047,4713.5
588.213,4683.7
588.379,4802.2
588.545,4799.9
588.711,4720.4
588.877,4843.9
589.043,4731.3
589.209,4752.5
589.375,4756.2
589.542,4679.5
589.708,4719.0
589.874,4749.3
590.04,4700.1
590.206,4715.5
590.372,4771.4
590.538,4774.9
590.704,4709.6
590.87,4639.9
591.036,4726.0
591.201,4796.3
591.367,4677.4
591.533,4758.2
591.699,4722.5
591.865,4716.3
592.031,4829.7
592.197,4856.4
592.363,4728.7
592.529,4794.5
592.695,4803.5
592.861,4729.4
593.027,4838.4
593.192,4776.4
593.358,4819.2
593.524,4745.6
593.69,4775.0
593.856,4829.5
594.022,4752.9
594.187,4768.8
594.353,4885.2
594.519,4898.1
594.685,4828.5
594.851,4770.1
595.016,4866.2
595.182,4757.3
595.348,4842.1
595.514,4834.6
595.679,4903.4
595.845,4892.1
596.011,4903.8
596.177,4898.9
596.342,4886.1
596.508,4932.2
596.674,4897.4
596.84,4893.2
597.005,4839.2
597.171,4882.0
597.337,4933.2
597.502,4916.8
597.668,4927.5
597.833,4946.7
597.999,4882.0
598.165,4904.0
598.33,4916.2
598.496,4958.4
598.662,4946.9
598.827,4877.1
598.993,4973.3
599.158,4995.4
599.324,4869.3
599.489,4953.7
599.655,4994.7
599.821,4936.7
599.986,4916.8
600.152,5025.9
600.317,5002.3
600.483,4863.6
600.648,5005.4
600.814,4967.6
600.979,4911.8
601.145,4994.4
601.31,4964.5
601.476,5061.2
601.641,4999.6
601.807,5008.5
601.972,4962.0
602.137,5022.4
602.303,5013.8
602.468,5042.5
602.634,4969.0
602.799,5041.4
602.964,5114.5
603.13,5089.2
603.295,5050.2
603.461,5044.9
603.626,5030.4
603.791,5059.8
603.957,5031.0
604.122,5040.3
604.287,5055.5
604.453,4986.5
604.618,5006.6
604.783,5043.6
604.949,5020.4
605.114,5002.8
605.279,5121.0
605.444,5093.1
605.61,5090.2
605.775,5012.0
605.94,5021.2
606.105,5130.0
606.271,5077.6
606.436,5020.5
606.601,5135.0
606.766,5116.4
606.931,5119.5
607.097,5037.2
607.262,5003.7
607.427,5116.3
607.592,5137.9
607.757,5164.8
607.922,5068.0
608.088,5069.8
608.253,5113.6
608.418,5085.3
608.583,5010.2
608.748,5079.2
608.913,5120.3
609.078,5157.0
609.243,5117.3
609.408,5123.8
609.573,5214.5
609.738,5125.7
609.903,5095.3
610.068,5195.5
610.233,5075.0
610.399,5173.2
610.564,5128.7
610.729,5127.4
610.894,5081.1
611.058,5281.2
611.223,5077.3
611.388,5183.4
611.553,5149.4
611.718,5120.5
611.883,5221.9
612.048,5147.7
612.213,5198.2
612.378,5289.7
612.543,5174.4
612.708,5090.2
612.873,5284.2
613.038,5218.2
613.202,5120.3
613.367,5189.1
613.532,5189.6
613.697,5201.6
613.862,5141.2
614.027,5261.5
614.192,5277.4
614.356,5224.7
614.521,5280.0
614.686,5327.9
614.851,5238.6
615.016,5253.5
615.18,5246.2
615.345,5127.3
615.51,5294.1
615.675,5333.2
615.839,5278.4
616.004,5270.2
616.169,5298.2
616.333,5350.7
616.498,5249.0
616.663,5326.7
616.827,5391.7
616.992,5331.2
617.157,5334.3
617.321,5303.8
617.486,5452.4
617.651,5498.9
617.815,5396.7
617.98,5465.1
618.145,5390.6
618.309,5500.8
618.474,5447.3
618.638,5434.0
618.803,5508.2
618.968,5447.2
619.132,5457.0
619.297,5435.2
619.461,5398.1
619.626,5339.7
619.79,5403.2
619.955,5368.4
620.119,5319.7
620.284,5378.6
620.448,5409.2
620.613,5358.0
620.777,5416.1
620.942,5548.1
621.106,5287.3
621.271,5317.9
621.435,5474.2
621.599,5417.4
621.764,5398.2
621.928,5429.3
622.093,5480.0
622.257,5482.4
622.421,5484.9
622.586,5373.8
622.75,5536.5
622.915,5425.7
623.079,5532.2
623.243,5588.5
623.408,5540.3
623.572,5371.2
623.736,5596.8
623.9,5640.4
624.065,5692.6
624.229,5740.4
624.393,5612.0
624.558,5604.2
624.722,5678.1
624.886,5665.1
625.05,5752.1
625.215,5617.9
625.379,5732.7
625.543,5635.4
625.707,5591.9
625.871,5841.1
626.036,5547.5
626.2,5647.1
626.364,5563.0
626.528,5628.3
626.692,5632.0
626.856,5670.0
627.02,5570.6
627.185,5639.8
627.349,5751.1
627.513,5775.7
627.677,5716.6
627.841,5690.4
628.005,5890.4
628.169,5984.8
628.333,5971.9
628.497,6106.5
628.661,6161.2
628.825,6223.9
628.989,6303.7
629.153,6359.5
629.317,6286.5
629.481,6318.6
629.645,6159.6
629.809,6253.0
629.973,6235.2
630.137,6193.9
630.301,6151.0
630.465,6145.1
630.629,6357.4
630.793,6565.2
630.957,6867.8
631.121,7493.4
631.285,7953.6
631.449,8178.6
631.612,8721.2
631.776,8682.1
631.94,8448.5
632.104,8428.8
632.268,7883.1
632.432,7472.9
632.596,7346.2
632.759,7264.2
632.923,7166.7
633.087,7108.6
633.251,7301.5
633.414,7160.9
633.578,6913.5
633.742,6913.1
633.906,6855.5
634.069,6749.6
634.233,6701.9
634.397,6467.0
634.561,6389.6
634.724,6496.3
634.888,6457.1
635.052,6485.8
635.215,6618.7
635.379,6706.5
635.543,6767.0
635.706,7199.9
635.87,7500.7
636.034,7995.4
636.197,8557.1
636.361,9182.6
636.524,9352.1
636.688,9060.3
636.852,8330.3
637.015,7654.0
637.179,7228.9
637.342,6815.6
637.506,6886.7
637.669,6770.5
637.833,6641.6
637.996,6488.0
638.16,6624.2
638.323,6599.3
638.487,6433.9
638.65,6483.8
638.814,6436.5
638.977,6458.3
639.141,6530.6
639.304,6622.4
639.468,6562.1
639.631,6456.8
639.794,6439.2
639.958,6372.4
640.121,6485.3
640.285,6414.4
640.448,6392.4
640.611,6284.7
640.775,6507.1
640.938,6457.0
641.101,6495.9
641.265,6431.3
641.428,6521.9
641.591,6506.7
641.755,6502.5
641.918,6420.3
642.081,6538.9
642.244,6801.9
642.408,6769.3
642.571,6581.4
642.734,6484.1
642.897,6514.3
643.061,6567.1
643.224,6440.3
643.387,6325.4
643.55,6552.1
643.713,6570.8
643.876,6524.4
644.04,6432.2
644.203,6593.8
644.366,6378.8
644.529,6369.5
644.692,6533.0
644.855,6594.7
645.018,6484.1
645.181,6483.4
645.345,6617.6
645.508,6376.3
645.671,6574.6
645.834,6560.2
645.997,6608.5
646.16,6366.8
646.323,6585.5
646.486,6446.7
646.649,6475.4
646.812,6503.2
646.975,6511.0
647.138,6571.0
647.301,6595.6
647.464,6579.0
647.627,6654.7
647.79,6563.8
647.953,6431.6
648.115,6500.7
648.278,6347.2
648.441,6355.0
648.604,6352.5
648.767,6574.4
648.93,6309.5
649.093,6360.6
649.256,6396.1
649.418,6486.6
649.581,6415.8
649.744,6282.0
649.907,6394.3
650.07,6320.8
650.233,6374.7
650.395,6414.5
650.558,6362.0
650.721,6344.8
650.884,6521.0
651.046,6431.7
651.209,6416.1
651.372,6216.3
651.534,6285.8
651.697,6366.7
651.86,6534.4
652.023,6418.4
652.185,6162.6
652.348,6230.8
652.511,6192.3
652.673,6285.1
652.836,6129.2
652.998,6244.3
653.161,6247.0
653.324,6255.0
653.486,6058.2
653.649,6272.2
653.811,6118.9
653.974,6178.2
654.137,6154.7
654.299,6082.9
654.462,6135.7
654.624,6136.1
654.787,6069.3
654.949,6145.6
655.112,6011.2
655.274,6135.1
655.437,6144.3
655.599,5889.7
655.761,6010.3
655.924,6012.6
656.086,5904.0
656.249,5891.4
656.411,5983.3
656.574,5951.5
656.736,6050.8
656.898,5962.3
657.061,5783.7
657.223,5960.6
657.385,6006.4
657.548,5786.3
657.71,5766.8
657.872,5861.5
658.035,5868.8
658.197,5881.0
658.359,5890.8
658.522,5710.5
658.684,5858.5
658.846,5819.3
659.008,5580.5
659.171,5751.2
659.333,5670.6
659.495,5655.8
659.657,5675.7
659.82,5600.7
659.982,5688.1
660.144,5600.5
660.306,5737.9
660.468,5598.7
660.63,5563.4
660.793,5687.0
660.955,5557.4
661.036,5618.5