File: spectra/VLFR_01-LDPE_bio_Raman_4c1d0e24.csv
nm,Intensity
528.65,1837.5
528.819,1837.45
528.987,1836.85
529.155,1836.85
529.324,1837.6
529.492,1838.65
529.66,1837.95
529.829,1838.95
529.997,1838.55
530.165,1837.05
530.334,1837.9
530.502,1837.75
530.67,1837.15
530.839,1836.95
531.007,1839.15
531.175,1838.9
531.344,1839.7
531.512,1840.75
531.68,1850.8
531.848,2028.75
532.017,2480.35
532.185,2241.0
532.353,1857.3
532.521,1840.1
532.69,1839.65
532.858,1837.85
533.026,1838.7
533.194,1838.1
533.363,1841.6
533.531,1854.9
533.699,1923.0
533.867,2031.7
534.036,2078.6
534.204,2072.65
534.372,2056.0
534.54,2063.8
534.708,2054.6
534.877,2045.55
535.045,2025.8
535.213,2013.65
535.381,1998.45
535.549,1997.1
535.717,1976.5
535.886,1977.6
536.054,1963.3
536.222,1952.15
536.39,1954.7
536.558,1950.25
536.726,1949.35
536.894,1946.4
537.062,1942.85
537.231,1954.1
537.399,1951.45
537.567,1950.2
537.735,1949.9
537.903,1948.4
538.071,1949.2
538.239,1942.3
538.407,1942.9
538.575,1935.7
538.743,1933.05
538.911,1931.9
539.079,1928.3
539.247,1926.25
539.415,1920.35
539.583,1923.25
539.751,1921.6
539.919,1917.85
540.087,1920.65
540.255,1919.1
540.423,1917.75
540.591,1917.95
540.759,1908.8
540.927,1919.15
541.095,1912.15
541.263,1915.55
541.431,1908.75
541.599,1912.7
541.767,1915.65
541.935,1910.3
542.103,1909.55
542.271,1918.7
542.439,1914.7
542.607,1916.85
542.775,1914.2
542.943,1911.0
543.111,1914.65
543.279,1910.55
543.446,1909.25
543.614,1912.75
543.782,1914.2
543.95,1911.9
544.118,1916.35
544.286,1914.5
544.454,1909.75
544.622,1909.3
544.789,1909.05
544.957,1907.1
545.125,1911.05
545.293,1908.25
545.461,1905.8
545.629,1906.35
545.796,1912.3
545.964,1908.05
546.132,1911.0
546.3,1910.6
546.468,1909.05
546.635,1908.1
546.803,1911.35
546.971,1909.75
547.139,1910.3
547.306,1911.75
547.474,1907.25
547.642,1907.0
547.81,1908.05
547.977,1905.2
548.145,1907.1
548.313,1905.9
548.481,1915.45
548.648,1908.5
548.816,1906.8
548.984,1902.55
549.151,1903.05
549.319,1905.2
549.487,1906.55
549.655,1907.65
549.822,1910.9
549.99,1902.25
550.158,1905.25
550.325,1904.75
550.493,1904.3
550.66,1906.45
550.828,1909.1
550.996,1904.45
551.163,1903.65
551.331,1903.75
551.499,1904.4
551.666,1909.05
551.834,1904.45
552.001,1907.3
552.169,1904.4
552.337,1908.4
552.504,1907.9
552.672,1904.85
552.839,1910.55
553.007,1907.45
553.174,1914.15
553.342,1918.85
553.509,1922.05
553.677,1918.1
553.844,1916.75
554.012,1920.2
554.179,1922.5
554.347,1917.5
554.514,1921.6
554.682,1925.05
554.849,1926.9
555.017,1929.85
555.184,1928.1
555.352,1922.95
555.519,1930.95
555.687,1931.8
555.854,1935.55
556.022,1936.7
556.189,1935.75
556.357,1935.25
556.524,1942.4
556.691,1944.75
556.859,1946.25
557.026,1950.05
557.194,1955.05
557.361,1956.6
557.528,1961.05
557.696,1963.8
557.863,1966.3
558.031,1968.6
558.198,1970.6
558.365,1972.2
558.533,1972.25
558.7,1965.35
558.867,1967.2
559.035,1962.0
559.202,1955.45
559.369,1952.35
559.537,1953.5
559.704,1955.4
559.871,1952.1
560.038,1952.45
560.206,1947.5
560.373,1947.6
560.54,1950.0
560.708,1950.6
560.875,1954.05
561.042,1949.45
561.209,1948.8
561.377,1951.45
561.544,1953.2
561.711,1957.45
561.878,1954.1
562.045,1960.9
562.213,1973.15
562.38,1969.7
562.547,1973.05
562.714,1977.9
562.881,1989.2
563.049,1988.7
563.216,1988.8
563.383,2007.45
563.55,2028.7
563.717,2105.3
563.884,2289.7
564.052,2342.9
564.219,2186.0
564.386,2079.2
564.553,2078.7
564.72,2076.7
564.887,2070.55
565.054,2042.35
565.221,2029.95
565.388,2017.0
565.556,2031.7
565.723,2070.45
565.89,2179.65
566.057,2327.25
566.224,2294.35
566.391,2129.7
566.558,2039.2
566.725,2021.9
566.892,2010.3
567.059,2004.45
567.226,2016.65
567.393,2036.15
567.56,2023.6
567.727,1998.05
567.894,1985.35
568.061,1984.4
568.228,1987.8
568.395,1991.9
568.562,1989.95
568.729,1986.1
568.896,1996.25
569.063,1992.25
569.23,1992.6
569.396,1999.35
569.563,2006.75
569.73,2004.95
569.897,2010.65
570.064,2015.65
570.231,2015.55
570.398,2032.15
570.565,2032.8
570.732,2051.65
570.898,2065.4
571.065,2090.05
571.232,2207.95
571.399,2496.25
571.566,2631.6
571.733,2356.15
571.9,2208.45
572.066,2146.55
572.233,2122.7
572.4,2094.45
572.567,2081.8
572.734,2066.6
572.9,2061.8
573.067,2060.75
573.234,2066.2
573.401,2068.85
573.567,2077.6
573.734,2093.2
573.901,2116.95
574.068,2105.05
574.234,2087.25
574.401,2087.9
574.568,2076.3
574.734,2084.35
574.901,2095.2
575.068,2106.05
575.235,2160.1
575.401,2265.5
575.568,2344.55
575.735,2336.6
575.901,2397.95
576.068,2551.5
576.235,2716.2
576.401,2653.75
576.568,2569.65
576.734,2546.95
576.901,2541.9
577.068,2512.2
577.234,2428.55
577.401,2347.9
577.567,2309.35
577.734,2291.2
577.901,2282.85
578.067,2287.5
578.234,2298.45
578.4,2306.4
578.567,2302.1
578.733,2316.4
578.9,2329.85
579.066,2344.35
579.233,2372.1
579.399,2366.45
579.566,2401.1
579.732,2392.4
579.899,2425.15
580.065,2429.35
580.232,2472.1
580.398,2445.55
580.565,2488.75
580.731,2501.95
580.898,2497.45
581.064,2545.9
581.231,2544.25
581.397,2551.55
581.563,2558.45
581.73,2585.4
581.896,2579.3
582.063,2623.45
582.229,2628.75
582.395,2632.15
582.562,2683.8
582.728,2640.05
582.895,2697.15
583.061,2672.8
583.227,2683.25
583.394,2750.4
583.56,2723.9
583.726,2724.5
583.893,2735.8
584.059,2773.55
584.225,2780.5
584.391,2786.7
584.558,2778.8
584.724,2790.25
584.89,2800.95
585.057,2832.45
585.223,2817.9
585.389,2842.05
585.555,2843.0
585.722,2855.9
585.888,2867.4
586.054,2893.95
586.22,2896.75
586.386,2916.5
586.553,2919.75
586.719,2927.6
586.885,2952.1
587.051,2989.7
587.217,3007.15
587.384,3004.3
587.55,3032.7
587.716,3047.75
587.882,3043.95
588.048,3078.4
588.214,3072.85
588.38,3062.45
588.546,3116.9
588.713,3128.65
588.879,3161.75
589.045,3181.1
589.211,3141.4
589.377,3180.15
589.543,3189.8
589.709,3231.85
589.875,3249.7
590.041,3239.35
590.207,3275.1
590.373,3280.7
590.539,3278.35
590.705,3305.95
590.871,3335.55
591.037,3352.85
591.203,3380.25
591.369,3440.15
591.535,3388.2
591.701,3420.3
591.867,3467.35
592.033,3461.75
592.199,3487.0
592.365,3478.65
592.531,3466.65
592.697,3515.55
592.863,3517.25
593.029,3537.25
593.195,3563.85
593.361,3549.1
593.526,3531.4
593.692,3557.3
593.858,3599.8
594.024,3529.05
594.19,3632.1
594.356,3585.7
594.522,3682.6
594.687,3625.6
594.853,3598.45
595.019,3708.05
595.185,3714.3
595.351,3686.7
595.516,3723.55
595.682,3820.75
595.848,3753.65
596.014,3836.4
596.18,3822.7
596.345,3825.85
596.511,3852.75
596.677,3858.05
596.843,3905.55
597.008,3940.1
597.174,3933.85
597.34,3986.95
597.505,3955.5
597.671,4000.65
597.837,3968.6
598.002,4017.7
598.168,4029.45
598.334,4102.3
598.499,4090.5
598.665,4161.1
598.831,4117.35
598.996,4117.1
599.162,4196.1
599.328,4215.15
599.493,4157.05
599.659,4262.55
599.824,4236.55
599.99,4238.4
600.156,4209.5
600.321,4291.25
600.487,4272.15
600.652,4233.25
600.818,4277.3
600.983,4227.6
601.149,4249.65
601.314,4246.9
601.48,4292.6
601.645,4219.9
601.811,4202.05
601.976,4227.85
602.142,4217.4
602.307,4205.05
602.473,4206.45
602.638,4120.05
602.804,4144.45
602.969,4201.85
603.135,4094.5
603.3,4121.25
603.466,4000.6
603.631,4012.9
603.796,4011.35
603.962,4047.85
604.127,3926.7
604.293,3945.15
604.458,3887.45
604.623,3902.4
604.789,3842.15
604.954,3793.95
605.119,3807.85
605.285,3750.45
605.45,3729.2
605.615,3709.45
605.781,3662.8
605.946,3672.9
606.111,3657.9
606.277,3609.15
606.442,3512.65
606.607,3565.2
606.772,3534.2
606.938,3451.6
607.103,3535.1
607.268,3420.4
607.433,3451.6
607.599,3404.1
607.764,3378.55
607.929,3368.75
608.094,3309.1
608.259,3304.0
608.425,3343.35
608.59,3270.2
608.755,3286.95
608.92,3250.3
609.085,3252.2
609.25,3225.6
609.415,3220.6
609.581,3174.65
609.746,3165.25
609.911,3186.3
610.076,3164.05
610.241,3159.7
610.406,3124.55
610.571,3125.95
610.736,3100.35
610.901,3122.5
611.066,3079.15
611.231,3079.75
611.396,3045.6
611.561,3068.95
611.727,3073.4
611.892,3032.85
612.057,3017.7
612.222,2993.0
612.386,3005.85
612.551,2977.3
612.716,2967.3
612.881,2979.15
613.046,2971.3
613.211,2941.55
613.376,2932.7
613.541,2921.05
613.706,2930.05
613.871,2910.0
614.036,2924.9
614.201,2907.75
614.366,2881.2
614.531,2888.6
614.695,2856.45
614.86,2897.45
615.025,2860.85
615.19,2828.0
615.355,2840.2
615.52,2829.8
615.684,2834.25
615.849,2849.25
616.014,2779.35
616.179,2808.65
616.344,2788.6
616.508,2773.05
616.673,2804.3
616.838,2802.3
617.003,2784.25
617.168,2745.5
617.332,2774.95
617.497,2785.15
617.662,2757.7
617.826,2756.4
617.991,2766.9
618.156,2735.3
618.32,2734.85
618.485,2738.1
618.65,2733.6
618.814,2714.95
618.979,2737.05
619.144,2726.3
619.308,2711.9
619.473,2738.0
619.638,2728.7
619.802,2700.1
619.967,2695.85
620.131,2702.2
620.296,2697.25
620.461,2695.3
620.625,2700.65
620.79,2699.0
620.954,2736.8
621.119,2694.95
621.283,2729.45
621.448,2742.8
621.612,2762.75
621.777,2806.2
621.941,2809.25
622.106,2835.95
622.27,2850.25
622.435,2808.85
622.599,2789.1
622.764,2745.05
622.928,2708.75
623.093,2680.5
623.257,2675.6
623.422,2648.75
623.586,2628.5
623.75,2617.3
623.915,2651.0
624.079,2634.6
624.244,2623.5
624.408,2624.9
624.572,2618.45
624.737,2631.0
624.901,2650.2
625.065,2628.7
625.23,2617.1
625.394,2617.25
625.558,2667.7
625.723,2665.0
625.887,2681.4
626.051,2702.65
626.215,2768.85
626.38,2917.0
626.544,3120.6
626.708,3623.35
626.872,4468.25
627.037,5315.8
627.201,5690.1
627.365,5490.3
627.529,4928.1
627.693,4537.55
627.858,4414.35
628.022,4461.45
628.186,4659.35
628.35,5351.4
628.514,5681.75
628.678,5210.05
628.843,4828.8
629.007,4427.05
629.171,4413.75
629.335,4344.6
629.499,4142.6
629.663,3926.1
629.827,3793.0
629.991,3770.05
630.155,3737.1
630.319,3709.85
630.483,3604.7
630.647,3555.25
630.812,3320.5
630.976,3100.2
631.14,2915.35
631.304,2859.25
631.468,2799.75
631.632,2743.05
631.796,2719.9
631.959,2670.75
632.123,2657.25
632.287,2663.3
632.451,2636.9
632.615,2640.2
632.779,2619.55
632.943,2605.2
633.107,2584.65
633.271,2605.0
633.435,2615.45
633.599,2603.8
633.763,2615.55
633.926,2612.75
634.09,2607.55
634.254,2572.85
634.418,2593.8
634.582,2568.65
634.746,2604.9
634.909,2592.15
635.073,2586.05
635.237,2589.8
635.401,2594.85
635.564,2553.3
635.728,2560.4
635.892,2577.9
636.056,2596.95
636.219,2564.05
636.383,2588.45
636.547,2568.3
636.711,2595.5
636.874,2594.0
637.038,2594.3
637.202,2592.6
637.365,2576.85
637.529,2584.95
637.693,2596.25
637.856,2596.6
638.02,2590.55
638.184,2603.95
638.347,2597.5
638.511,2622.4
638.674,2589.65
638.838,2605.3
639.002,2636.7
639.165,2610.3
639.329,2573.9
639.492,2573.2
639.656,2601.65
639.819,2627.5
639.983,2632.95
640.146,2600.2
640.31,2611.1
640.473,2611.05
640.637,2631.4
640.8,2627.25
640.964,2617.35
641.127,2616.95
641.291,2661.25
641.454,2629.15
641.618,2651.05
641.781,2639.85
641.944,2641.0
642.108,2633.1
642.271,2653.0
642.435,2675.55
642.598,2657.1
642.761,2668.05
642.925,2702.0
643.088,2667.85
643.251,2696.3
643.415,2670.7
643.578,2677.2
643.741,2683.1
643.905,2702.65
644.068,2678.75
644.231,2692.65
644.394,2689.8
644.558,2681.0
644.721,2688.0
644.884,2706.3
645.047,2666.15
645.211,2699.5
645.374,2699.9
645.537,2688.2
645.7,2712.4
645.863,2706.35
646.027,2689.5
646.19,2711.8
646.353,2699.85
646.516,2715.0
646.679,2705.8
646.842,2705.1
647.005,2712.55
647.169,2671.25
647.332,2676.8
647.495,2728.0
647.658,2732.9
647.821,2696.35
647.984,2733.0
648.147,2715.65
648.31,2657.45
648.473,2711.95
648.636,2717.2
648.799,2731.1
648.962,2704.8
649.125,2702.1
649.288,2721.4
649.451,2700.7
649.614,2718.95
649.777,2706.85
649.94,2668.4
650.103,2702.65
650.266,2686.7
650.429,2689.9
650.592,2690.8
650.755,2729.25
650.918,2740.9
651.08,2668.25
651.243,2713.45
651.406,2707.75
651.569,2674.6
651.732,2680.85
651.895,2695.1
652.058,2694.5
652.22,2715.9
652.383,2700.7
652.546,2653.65
652.709,2719.0
652.872,2693.05
653.034,2679.15
653.197,2711.4
653.36,2703.75
653.523,2671.2
653.685,2660.35
653.848,2696.5
654.011,2681.9
654.173,2684.9
654.336,2670.75
654.499,2661.95
654.662,2656.35
654.824,2665.2
654.987,2711.05
655.149,2634.8
655.312,2626.2
655.475,2660.05
655.637,2648.3
655.8,2628.9
655.963,2685.8
656.125,2625.1
656.288,2623.25
656.45,2639.1
656.613,2615.3
656.775,2643.0
656.938,2591.5
657.1,2597.9
657.263,2635.85
657.425,2581.95
657.588,2559.65
657.75,2588.15
657.913,2542.5
658.075,2563.25
658.238,2560.4
658.4,2517.9
658.563,2537.15
658.725,2485.95
658.888,2531.5
659.05,2505.45
659.212,2492.0
659.375,2451.2
659.537,2476.75
659.7,2480.45
659.862,2445.65
660.024,2450.45
660.187,2420.65
660.349,2437.85
660.511,2463.5
660.674,2425.55
660.836,2403.55
660.998,2397.65
661.079,2418.15