File: spectra/VLFR_02-HDPE_nobio_Raman_77980cb2.csv
cm-1,Intensity
-123.878,1852.65
-117.855,1851.65
-111.836,1853.35
-105.821,1852.9
-99.8104,1851.9
-93.8036,1852.65
-87.8007,1852.75
-81.8019,1853.1
-75.807,1852.0
-69.8161,1853.6
-63.8293,1854.45
-57.8464,1853.3
-51.8675,1852.75
-45.8926,1852.95
-39.9216,1852.85
-33.9547,1855.5
-27.9917,1853.95
-22.0326,1858.15
-16.0776,1877.8
-10.1265,2252.15
-4.17932,3224.25
1.76388,3203.9
7.70313,1973.6
13.6384,1854.9
19.5698,1853.6
25.4972,1853.5
31.4207,1853.65
37.3403,1852.45
43.256,1853.9
49.1677,1859.9
55.0755,1905.45
60.9794,1971.35
66.8794,2017.4
72.7754,2033.4
78.6676,2026.9
84.5559,2020.35
90.4402,2025.6
96.3207,2029.65
102.197,2017.9
108.07,2020.0
113.939,2006.15
119.804,2004.6
125.665,1990.4
131.522,1981.15
137.375,1978.75
143.225,1976.85
149.07,1970.45
154.912,1974.5
160.75,1966.7
166.584,1972.05
172.414,1972.7
178.241,1971.35
184.063,1977.75
189.882,1975.3
195.697,1973.35
201.508,1981.45
207.315,1981.5
213.119,1969.15
218.918,1967.9
224.714,1966.55
230.506,1966.0
236.294,1968.6
242.078,1963.15
247.859,1961.05
253.636,1963.55
259.409,1962.9
265.178,1959.85
270.943,1957.35
276.705,1967.75
282.463,1960.2
288.217,1964.35
293.967,1964.15
299.713,1962.3
305.456,1965.85
311.195,1965.95
316.93,1964.8
322.662,1965.4
328.389,1972.7
334.113,1966.4
339.834,1964.0
345.55,1968.3
351.263,1965.3
356.972,1968.2
362.677,1970.4
368.379,1970.05
374.077,1973.7
379.771,1973.3
385.461,1971.15
391.148,1965.7
396.831,1967.35
402.51,1972.0
408.186,1977.0
413.858,1976.7
419.526,1971.0
425.19,1975.6
430.851,1974.6
436.508,1974.4
442.162,1976.3
447.811,1971.1
453.458,1976.15
459.1,1975.5
464.739,1978.35
470.374,1981.6
476.005,1973.65
481.633,1971.45
487.257,1976.3
492.878,1976.2
498.494,1979.0
504.107,1982.3
509.717,1981.8
515.323,1979.8
520.925,1979.35
526.524,1976.15
532.119,1972.65
537.71,1977.7
543.298,1980.45
548.882,1978.75
554.462,1980.0
560.039,1983.0
565.613,1982.25
571.182,1981.55
576.748,1980.05
582.311,1985.4
587.87,1979.45
593.425,1981.8
598.977,1977.95
604.525,1982.15
610.069,1977.25
615.61,1980.25
621.148,1982.95
626.682,1977.5
632.212,1984.15
637.739,1985.2
643.262,1987.75
648.781,1990.4
654.297,1984.5
659.81,1993.15
665.319,1987.35
670.824,1990.4
676.326,1988.45
681.824,1987.8
687.319,1985.0
692.81,1986.85
698.298,1986.75
703.782,1988.3
709.262,1988.3
714.739,1996.55
720.213,1997.25
725.683,1990.8
731.15,1995.75
736.613,1996.1
742.072,1999.4
747.528,1994.1
752.981,1998.75
758.43,2000.1
763.875,2003.65
769.317,2006.85
774.756,2006.0
780.191,1997.45
785.623,1997.3
791.051,2007.95
796.475,2008.05
801.897,2006.8
807.314,2003.85
812.729,2007.25
818.139,2003.5
823.547,2005.35
828.951,2006.2
834.351,2010.4
839.748,2012.3
845.142,2017.6
850.532,2019.75
855.918,2016.35
861.302,2014.2
866.681,2030.4
872.058,2024.0
877.431,2016.7
882.8,2019.85
888.166,2023.7
893.529,2016.15
898.888,2021.75
904.244,2018.3
909.596,2018.5
914.945,2019.6
920.291,2016.25
925.633,2029.55
930.972,2018.45
936.308,2018.55
941.64,2018.75
946.968,2017.55
952.294,2027.9
957.615,2023.5
962.934,2024.75
968.249,2031.75
973.561,2019.9
978.869,2018.25
984.174,2015.1
989.476,2025.8
994.774,2026.65
1000.07,2029.5
1005.36,2028.35
1010.65,2033.1
1015.93,2029.7
1021.22,2033.8
1026.49,2032.7
1031.77,2048.55
1037.04,2050.05
1042.31,2046.0
1047.57,2066.6
1052.83,2137.35
1058.09,2280.3
1063.35,2356.0
1068.6,2207.2
1073.85,2107.0
1079.09,2095.75
1084.33,2092.75
1089.57,2085.35
1094.81,2080.85
1100.04,2068.95
1105.27,2070.95
1110.49,2078.5
1115.71,2111.9
1120.93,2201.85
1126.15,2410.5
1131.36,2479.35
1136.57,2216.75
1141.77,2085.1
1146.98,2068.25
1152.18,2055.6
1157.37,2058.05
1162.56,2073.0
1167.75,2097.05
1172.94,2088.1
1178.12,2050.75
1183.3,2052.5
1188.48,2046.4
1193.65,2039.7
1198.82,2044.9
1203.99,2038.85
1209.15,2042.0
1214.31,2041.15
1219.46,2044.65
1224.62,2053.3
1229.77,2048.1
1234.92,2051.3
1240.06,2049.65
1245.2,2052.8
1250.34,2047.05
1255.47,2056.45
1260.6,2064.85
1265.73,2072.75
1270.85,2068.45
1275.97,2076.5
1281.09,2086.75
1286.21,2177.7
1291.32,2441.15
1296.43,2596.35
1301.53,2337.65
1306.63,2145.9
1311.73,2114.35
1316.83,2086.45
1321.92,2078.6
1327.01,2059.7
1332.1,2059.05
1337.18,2049.95
1342.26,2055.15
1347.34,2050.4
1352.41,2052.4
1357.48,2053.95
1362.55,2067.1
1367.61,2085.85
1372.67,2069.8
1377.73,2050.2
1382.78,2050.25
1387.84,2038.8
1392.88,2054.05
1397.93,2048.25
1402.97,2073.85
1408.01,2129.8
1413.05,2274.3
1418.08,2331.35
1423.11,2237.55
1428.14,2218.8
1433.16,2298.05
1438.18,2386.8
1443.2,2379.25
1448.21,2290.9
1453.22,2269.75
1458.23,2261.85
1463.23,2252.85
1468.23,2202.25
1473.23,2153.45
1478.23,2106.0
1483.22,2093.25
1488.21,2077.2
1493.2,2060.45
1498.18,2056.2
1503.16,2058.05
1508.14,2054.95
1513.11,2055.75
1518.08,2055.9
1523.05,2055.0
1528.01,2056.9
1532.97,2059.95
1537.93,2065.25
1542.89,2052.35
1547.84,2056.5
1552.79,2054.6
1557.73,2063.2
1562.68,2048.75
1567.62,2056.75
1572.56,2058.3
1577.49,2054.5
1582.42,2064.15
1587.35,2062.8
1592.27,2052.75
1597.19,2052.45
1602.11,2065.6
1607.03,2062.55
1611.94,2070.05
1616.85,2070.8
1621.76,2062.35
1626.66,2065.15
1631.56,2064.5
1636.46,2059.75
1641.36,2069.95
1646.25,2059.85
1651.14,2066.8
1656.02,2063.8
1660.9,2064.25
1665.78,2061.4
1670.66,2066.35
1675.54,2069.0
1680.41,2069.9
1685.27,2068.3
1690.14,2072.15
1695.0,2076.15
1699.86,2080.95
1704.71,2080.55
1709.57,2077.25
1714.42,2069.0
1719.26,2093.0
1724.11,2076.05
1728.95,2083.95
1733.79,2086.2
1738.62,2092.8
1743.46,2084.9
1748.28,2093.45
1753.11,2100.6
1757.93,2096.8
1762.75,2098.8
1767.57,2101.7
1772.39,2105.85
1777.2,2117.0
1782.01,2106.2
1786.81,2117.1
1791.62,2120.35
1796.41,2127.75
1801.21,2121.35
1806.01,2113.9
1810.8,2118.0
1815.59,2121.75
1820.37,2131.15
1825.15,2128.8
1829.93,2124.95
1834.71,2126.0
1839.48,2136.85
1844.25,2151.4
1849.02,2141.3
1853.79,2146.75
1858.55,2152.6
1863.31,2158.65
1868.06,2161.65
1872.82,2174.45
1877.57,2167.3
1882.31,2167.65
1887.06,2159.7
1891.8,2179.75
1896.54,2172.5
1901.28,2177.95
1906.01,2188.7
1910.74,2183.35
1915.47,2188.2
1920.19,2188.25
1924.91,2196.75
1929.63,2183.45
1934.35,2188.8
1939.06,2203.85
1943.77,2192.65
1948.48,2186.55
1953.19,2195.65
1957.89,2201.05
1962.59,2188.35
1967.28,2193.65
1971.98,2193.5
1976.67,2196.35
1981.35,2183.75
1986.04,2209.55
1990.72,2188.8
1995.4,2194.65
2000.08,2198.3
2004.75,2199.25
2009.42,2202.55
2014.09,2196.5
2018.75,2212.25
2023.42,2214.4
2028.08,2197.8
2032.73,2198.85
2037.39,2194.3
2042.04,2209.45
2046.69,2198.9
2051.33,2206.05
2055.97,2200.7
2060.61,2205.1
2065.25,2205.45
2069.88,2210.35
2074.52,2205.55
2079.15,2203.05
2083.77,2206.0
2088.39,2201.6
2093.01,2206.35
2097.63,2211.9
2102.25,2199.9
2106.86,2211.1
2111.47,2206.85
2116.08,2213.2
2120.68,2224.2
2125.28,2206.4
2129.88,2205.05
2134.47,2207.45
2139.07,2206.8
2143.66,2198.1
2148.24,2202.75
2152.83,2208.65
2157.41,2208.65
2161.99,2204.85
2166.57,2196.8
2171.14,2206.75
2175.71,2221.15
2180.28,2232.45
2184.84,2212.0
2189.41,2213.0
2193.97,2195.65
2198.52,2206.7
2203.08,2195.7
2207.63,2201.55
2212.18,2192.05
2216.73,2202.25
2221.27,2185.95
2225.81,2196.8
2230.35,2195.7
2234.89,2183.1
2239.42,2181.1
2243.95,2189.8
2248.48,2188.3
2253.0,2174.7
2257.52,2180.55
2262.04,2187.25
2266.56,2172.7
2271.07,2172.3
2275.58,2174.3
2280.09,2161.05
2284.6,2167.6
2289.1,2164.6
2293.6,2175.1
2298.1,2165.4
2302.6,2160.15
2307.09,2150.45
2311.58,2154.35
2316.07,2167.75
2320.55,2155.25
2325.03,2154.75
2329.51,2153.25
2333.99,2153.1
2338.46,2142.05
2342.93,2135.1
2347.4,2143.65
2351.87,2150.7
2356.33,2150.65
2360.79,2138.1
2365.25,2134.2
2369.71,2138.6
2374.16,2134.8
2378.61,2129.45
2383.06,2135.05
2387.5,2142.9
2391.94,2132.45
2396.38,2134.35
2400.82,2139.4
2405.26,2148.9
2409.69,2134.4
2414.12,2135.3
2418.54,2146.7
2422.97,2149.25
2427.39,2145.1
2431.81,2137.15
2436.22,2138.05
2440.64,2134.6
2445.05,2127.5
2449.46,2128.1
2453.86,2119.8
2458.27,2119.7
2462.67,2122.15
2467.06,2120.45
2471.46,2123.85
2475.85,2129.6
2480.24,2125.1
2484.63,2112.3
2489.02,2117.4
2493.4,2107.45
2497.78,2109.5
2502.16,2112.0
2506.53,2116.85
2510.9,2118.8
2515.27,2112.6
2519.64,2107.85
2524.0,2117.7
2528.37,2111.0
2532.73,2118.8
2537.08,2116.95
2541.44,2113.8
2545.79,2116.75
2550.14,2115.3
2554.48,2113.85
2558.83,2119.8
2563.17,2104.95
2567.51,2112.75
2571.85,2124.7
2576.18,2124.35
2580.51,2113.85
2584.84,2121.75
2589.17,2134.45
2593.49,2131.25
2597.81,2127.5
2602.13,2129.1
2606.45,2130.6
2610.76,2145.3
2615.07,2135.6
2619.38,2132.0
2623.69,2141.25
2627.99,2128.05
2632.29,2122.45
2636.59,2134.15
2640.89,2130.55
2645.18,2145.25
2649.47,2148.2
2653.76,2141.45
2658.05,2150.55
2662.33,2140.55
2666.61,2136.8
2670.89,2149.6
2675.17,2143.5
2679.44,2140.05
2683.71,2149.65
2687.98,2172.6
2692.25,2184.4
2696.51,2176.85
2700.77,2207.8
2705.03,2227.65
2709.29,2259.15
2713.54,2298.4
2717.79,2319.95
2722.04,2327.3
2726.29,2303.95
2730.53,2278.45
2734.77,2223.65
2739.01,2181.8
2743.25,2166.4
2747.48,2150.85
2751.71,2142.9
2755.94,2148.85
2760.17,2139.15
2764.39,2130.55
2768.61,2137.2
2772.83,2140.3
2777.05,2136.6
2781.27,2139.95
2785.48,2138.8
2789.69,2142.85
2793.89,2154.75
2798.1,2153.65
2802.3,2162.6
2806.5,2168.3
2810.7,2191.35
2814.89,2205.5
2819.09,2238.5
2823.28,2288.9
2827.46,2432.15
2831.65,2689.45
2835.83,3166.25
2840.01,3924.1
2844.19,4886.65
2848.37,5299.15
2852.54,4916.55
2856.71,4549.55
2860.88,4172.3
2865.05,3909.5
2869.21,3904.3
2873.37,4150.25
2877.53,4794.55
2881.69,5355.15
2885.84,4809.95
2889.99,4126.25
2894.14,3802.9
2898.29,3690.4
2902.43,3514.45
2906.58,3379.5
2910.72,3259.4
2914.85,3193.1
2918.99,3071.0
2923.12,3043.95
2927.25,3018.85
2931.38,2997.5
2935.5,2834.45
2939.63,2692.5
2943.75,2532.75
2947.87,2388.25
2951.98,2290.8
2956.1,2241.95
2960.21,2211.15
2964.32,2185.9
2968.42,2181.45
2972.53,2164.25
2976.63,2163.5
2980.73,2151.25
2984.83,2137.95
2988.92,2148.45
2993.01,2143.65
2997.1,2130.5
3001.19,2121.35
3005.28,2123.25
3009.36,2119.9
3013.44,2116.3
3017.52,2107.4
3021.6,2102.15
3025.67,2108.05
3029.74,2106.55
3033.81,2108.7
3037.88,2100.5
3041.94,2108.45
3046.01,2095.25
3050.07,2094.95
3054.12,2099.95
3058.18,2088.6
3062.23,2095.5
3066.28,2094.3
3070.33,2086.0
3074.38,2083.6
3078.42,2091.05
3082.46,2089.6
3086.5,2088.85
3090.54,2086.95
3094.57,2083.95
3098.6,2095.8
3102.63,2079.95
3106.66,2081.35
3110.69,2074.35
3114.71,2081.4
3118.73,2089.15
3122.75,2078.85
3126.77,2081.95
3130.78,2079.3
3134.79,2077.35
3138.8,2079.6
3142.81,2062.15
3146.81,2069.55
3150.82,2080.15
3154.82,2075.3
3158.81,2078.9
3162.81,2073.45
3166.8,2068.95
3170.79,2080.15
3174.78,2081.65
3178.77,2076.35
3182.75,2077.1
3186.74,2071.85
3190.72,2073.8
3194.69,2072.7
3198.67,2075.65
3202.64,2075.5
3206.61,2084.05
3210.58,2071.5
3214.55,2088.9
3218.51,2071.4
3222.47,2070.05
3226.43,2072.9
3230.39,2073.25
3234.35,2089.6
3238.3,2084.4
3242.25,2074.1
3246.2,2076.95
3250.15,2074.4
3254.09,2075.0
3258.03,2080.05
3261.97,2084.25
3265.91,2077.65
3269.84,2081.25
3273.78,2074.45
3277.71,2079.5
3281.64,2075.5
3285.56,2078.65
3289.49,2071.35
3293.41,2082.55
3297.33,2080.85
3301.25,2069.1
3305.16,2079.2
3309.07,2083.15
3312.99,2082.05
3316.89,2076.4
3320.8,2069.15
3324.7,2079.55
3328.61,2072.35
3332.51,2073.25
3336.4,2074.7
3340.3,2067.65
3344.19,2074.0
3348.08,2064.55
3351.97,2064.9
3355.86,2066.0
3359.74,2060.45
3363.63,2070.55
3367.51,2064.5
3371.39,2061.4
3375.26,2062.9
3379.13,2070.45
3383.01,2064.4
3386.88,2062.25
3390.74,2063.45
3394.61,2056.75
3398.47,2054.7
3402.33,2054.9
3406.19,2058.05
3410.05,2050.65
3413.9,2053.0
3417.75,2059.0
3421.6,2049.65
3425.45,2048.2
3429.3,2058.05
3433.14,2046.75
3436.98,2053.95
3440.82,2056.45
3444.66,2056.2
3448.49,2044.85
3452.32,2045.75
3456.15,2041.4
3459.98,2050.7
3463.81,2044.05
3467.63,2038.75
3471.46,2042.7
3475.28,2043.6
3479.09,2040.7
3482.91,2035.75
3486.72,2031.6
3490.53,2042.05
3494.34,2037.6
3498.15,2037.55
3501.96,2036.45
3505.76,2032.6
3509.56,2030.2
3513.36,2029.05
3517.15,2026.65
3520.95,2031.45
3524.74,2032.0
3528.53,2032.7
3532.32,2034.7
3536.11,2021.3
3539.89,2019.45
3543.67,2024.3
3547.45,2021.9
3551.23,2023.95
3555.0,2010.45
3558.78,2011.5
3562.55,2019.0
3566.32,2021.4
3570.09,2010.7
3573.85,2019.3
3577.61,2028.2
3581.37,2016.85
3585.13,2016.15
3588.89,2017.3
3592.64,2022.45
3596.4,2016.85
3600.15,2007.1
3603.9,2015.1
3607.64,2006.25
3611.39,2009.45
3615.13,2009.65
3618.87,2012.3
3622.61,2001.05
3626.34,1997.8
3630.08,2004.75
3633.81,2011.25
3637.54,2005.65
3641.27,2004.8
3644.99,2007.5
3648.72,2004.85
3652.44,2012.9
3656.16,1996.2
3659.87,1993.3
3663.59,1993.75
3665.45,1995.65