File: spectra/VLFR_01-LDPE_bio_Raman_5bdce56f.csv
nm,Intensity
526.495,829.64
526.632,829.28
526.768,829.06
526.905,829.24
527.042,829.64
527.179,829.24
527.315,829.28
527.452,829.14
527.589,828.82
527.725,829.38
527.862,829.06
527.999,829.38
528.136,829.34
528.272,828.76
528.409,829.14
528.546,829.34
528.682,829.46
528.819,829.38
528.955,828.9
529.092,829.58
529.229,828.48
529.365,829.72
529.502,829.36
529.639,829.3
529.775,829.18
529.912,829.6
530.048,828.66
530.185,828.88
530.321,829.04
530.458,829.02
530.594,829.5
530.731,828.92
530.867,828.68
531.004,828.84
531.14,829.44
531.277,828.78
531.413,829.46
531.55,829.06
531.686,829.24
531.823,829.28
531.959,831.32
532.096,848.66
532.232,852.48
532.369,834.76
532.505,829.6
532.641,829.26
532.778,828.52
532.914,828.86
533.051,829.2
533.187,829.12
533.323,829.0
533.46,829.38
533.596,829.6
533.732,832.96
533.869,846.38
534.005,868.62
534.141,876.1
534.278,876.1
534.414,872.22
534.55,871.3
534.687,869.34
534.823,868.72
534.959,866.24
535.095,864.58
535.232,861.36
535.368,859.54
535.504,857.94
535.64,854.46
535.777,853.8
535.913,851.04
536.049,852.82
536.185,850.4
536.321,850.18
536.457,849.64
536.594,849.04
536.73,848.96
536.866,848.58
537.002,847.74
537.138,848.38
537.274,847.88
537.41,847.52
537.547,847.88
537.683,847.8
537.819,847.98
537.955,848.42
538.091,847.5
538.227,847.72
538.363,848.26
538.499,848.18
538.635,847.26
538.771,847.6
538.907,847.28
539.043,848.16
539.179,847.36
539.315,848.28
539.451,845.86
539.587,844.64
539.723,844.44
539.859,844.46
539.995,844.24
540.131,842.92
540.267,843.04
540.403,842.98
540.539,841.9
540.675,842.9
540.811,843.12
540.947,842.92
541.083,841.42
541.219,841.88
541.354,841.04
541.49,841.84
541.626,841.68
541.762,842.0
541.898,841.94
542.034,842.2
542.17,842.04
542.305,842.62
542.441,843.32
542.577,842.22
542.713,843.06
542.849,842.16
542.984,842.04
543.12,842.08
543.256,841.84
543.392,842.1
543.528,841.66
543.663,841.74
543.799,841.36
543.935,841.2
544.071,842.46
544.206,840.8
544.342,840.98
544.478,841.02
544.613,841.64
544.749,840.48
544.885,841.16
545.02,840.24
545.156,841.08
545.292,841.34
545.427,840.62
545.563,841.22
545.699,839.52
545.834,841.5
545.97,840.18
546.106,840.02
546.241,840.12
546.377,839.54
546.512,840.1
546.648,840.82
546.784,840.44
546.919,839.98
547.055,840.46
547.19,839.92
547.326,840.68
547.461,840.08
547.597,840.38
547.732,840.18
547.868,839.9
548.003,839.8
548.139,840.52
548.274,840.16
548.41,839.92
548.545,839.38
548.681,839.84
548.816,840.2
548.952,840.2
549.087,840.74
549.223,840.0
549.358,839.92
549.494,840.8
549.629,840.1
549.764,840.02
549.9,840.22
550.035,840.28
550.171,840.1
550.306,840.06
550.441,840.38
550.577,841.12
550.712,840.54
550.847,840.44
550.983,840.58
551.118,840.88
551.253,841.42
551.389,840.6
551.524,840.6
551.659,840.94
551.795,840.78
551.93,841.02
552.065,840.38
552.201,840.36
552.336,840.6
552.471,840.7
552.606,841.44
552.742,839.54
552.877,841.24
553.012,840.98
553.147,841.6
553.283,842.1
553.418,842.22
553.553,843.38
553.688,842.94
553.823,842.76
553.959,842.36
554.094,842.62
554.229,843.46
554.364,842.64
554.499,842.8
554.634,842.92
554.769,842.64
554.905,843.0
555.04,843.36
555.175,843.82
555.31,843.24
555.445,843.88
555.58,842.9
555.715,844.14
555.85,844.34
555.985,845.1
556.121,844.12
556.256,844.48
556.391,845.96
556.526,845.32
556.661,845.68
556.796,846.26
556.931,847.18
557.066,847.56
557.201,847.42
557.336,847.96
557.471,848.24
557.606,848.36
557.741,848.58
557.876,848.32
558.011,848.62
558.146,849.9
558.281,849.34
558.416,849.52
558.551,849.76
558.685,850.52
558.82,849.32
558.955,849.88
559.09,848.38
559.225,848.02
559.36,847.4
559.495,848.04
559.63,848.68
559.765,849.38
559.9,847.6
560.034,849.0
560.169,848.4
560.304,848.3
560.439,847.8
560.574,849.24
560.709,848.62
560.843,848.68
560.978,849.38
561.113,850.04
561.248,849.0
561.383,848.22
561.517,850.32
561.652,849.74
561.787,850.98
561.922,850.06
562.057,850.24
562.191,851.36
562.326,851.76
562.461,852.02
562.596,854.02
562.73,852.96
562.865,853.12
563.0,855.68
563.134,855.22
563.269,856.74
563.404,857.08
563.539,859.0
563.673,862.04
563.808,867.88
563.943,886.94
564.077,904.74
564.212,890.66
564.346,873.2
564.481,867.94
564.616,869.0
564.75,869.54
564.885,866.48
565.02,867.06
565.154,863.86
565.289,863.12
565.423,862.14
565.558,863.64
565.693,865.2
565.827,867.52
565.962,877.06
566.096,893.78
566.231,900.24
566.365,883.08
566.5,871.76
566.634,865.72
566.769,864.88
566.903,864.02
567.038,863.78
567.172,865.28
567.307,864.8
567.441,869.1
567.576,870.16
567.71,866.0
567.845,864.14
567.979,865.58
568.114,863.92
568.248,863.1
568.383,865.1
568.517,863.7
568.652,865.14
568.786,866.02
568.92,865.66
569.055,867.82
569.189,868.4
569.324,868.86
569.458,868.66
569.592,869.04
569.727,868.7
569.861,870.44
569.996,871.1
570.13,870.8
570.264,872.94
570.399,873.74
570.533,876.5
570.667,876.66
570.802,878.66
570.936,879.96
571.07,880.86
571.205,885.46
571.339,893.28
571.473,931.88
571.607,965.9
571.742,928.54
571.876,905.12
572.01,900.2
572.144,895.9
572.279,891.6
572.413,887.94
572.547,888.72
572.681,886.94
572.816,886.6
572.95,884.68
573.084,887.26
573.218,885.4
573.353,886.72
573.487,887.62
573.621,888.18
573.755,889.66
573.889,894.14
574.023,894.26
574.158,893.92
574.292,893.32
574.426,891.72
574.56,891.18
574.694,893.8
574.828,894.22
574.963,894.76
575.097,897.22
575.231,897.34
575.365,901.42
575.499,913.28
575.633,924.96
575.767,922.66
575.901,921.92
576.035,937.46
576.169,961.68
576.303,982.8
576.438,978.16
576.572,962.0
576.706,956.26
576.84,956.8
576.974,958.08
577.108,957.4
577.242,949.0
577.376,939.74
577.51,932.9
577.644,926.84
577.778,923.78
577.912,925.38
578.046,924.56
578.18,924.02
578.314,924.58
578.448,925.88
578.582,926.66
578.716,927.18
578.85,928.34
578.984,931.86
579.117,933.32
579.251,933.06
579.385,935.62
579.519,936.78
579.653,937.66
579.787,938.9
579.921,940.36
580.055,943.0
580.189,942.44
580.323,942.64
580.456,945.36
580.59,948.0
580.724,950.82
580.858,948.64
580.992,953.02
581.126,954.7
581.26,957.3
581.393,958.02
581.527,959.42
581.661,959.66
581.795,960.82
581.929,964.26
582.063,966.1
582.196,966.86
582.33,969.62
582.464,970.9
582.598,972.56
582.731,976.22
582.865,975.68
582.999,978.04
583.133,981.58
583.267,983.84
583.4,983.18
583.534,985.64
583.668,987.62
583.801,993.38
583.935,991.76
584.069,993.82
584.203,994.9
584.336,999.88
584.47,1002.32
584.604,999.62
584.737,1003.12
584.871,1004.66
585.005,1009.5
585.138,1013.54
585.272,1011.68
585.406,1015.52
585.539,1015.42
585.673,1020.88
585.807,1023.7
585.94,1024.88
586.074,1030.06
586.208,1035.26
586.341,1034.74
586.475,1035.9
586.608,1037.22
586.742,1040.7
586.876,1043.76
587.009,1046.54
587.143,1049.46
587.276,1049.52
587.41,1055.1
587.543,1054.02
587.677,1059.52
587.811,1059.3
587.944,1062.02
588.078,1062.38
588.211,1067.34
588.345,1068.34
588.478,1069.98
588.612,1071.94
588.745,1074.9
588.879,1077.8
589.012,1078.84
589.146,1079.5
589.279,1080.16
589.413,1084.56
589.546,1085.94
589.68,1086.04
589.813,1088.64
589.947,1090.86
590.08,1093.88
590.214,1095.02
590.347,1099.02
590.48,1099.46
590.614,1100.48
590.747,1102.98
590.881,1103.78
591.014,1103.32
591.148,1107.54
591.281,1107.64
591.414,1105.44
591.548,1111.2
591.681,1110.76
591.815,1107.98
591.948,1112.48
592.081,1113.36
592.215,1112.2
592.348,1110.22
592.481,1113.3
592.615,1110.48
592.748,1113.06
592.881,1112.6
593.015,1112.74
593.148,1110.16
593.281,1113.6
593.415,1113.46
593.548,1111.84
593.681,1113.04
593.815,1114.3
593.948,1113.32
594.081,1111.98
594.215,1112.88
594.348,1115.98
594.481,1115.56
594.614,1117.5
594.748,1116.28
594.881,1117.14
595.014,1116.02
595.147,1119.78
595.281,1119.18
595.414,1122.54
595.547,1121.98
595.68,1122.86
595.814,1123.48
595.947,1125.84
596.08,1125.98
596.213,1125.64
596.347,1127.44
596.48,1129.92
596.613,1130.98
596.746,1133.28
596.879,1134.98
597.012,1137.58
597.146,1137.3
597.279,1141.1
597.412,1139.54
597.545,1143.32
597.678,1145.38
597.811,1143.24
597.945,1142.96
598.078,1150.86
598.211,1154.06
598.344,1154.5
598.477,1155.04
598.61,1156.08
598.743,1159.94
598.876,1157.06
599.009,1162.16
599.143,1160.56
599.276,1166.44
599.409,1165.32
599.542,1167.22
599.675,1164.4
599.808,1168.46
599.941,1167.54
600.074,1167.86
600.207,1168.08
600.34,1169.42
600.473,1167.88
600.606,1165.94
600.739,1166.86
600.872,1164.0
601.005,1166.28
601.138,1162.18
601.271,1165.98
601.404,1162.8
601.537,1160.52
601.67,1161.52
601.803,1161.44
601.936,1159.98
602.069,1160.04
602.202,1155.58
602.335,1154.38
602.468,1155.2
602.601,1153.1
602.734,1152.58
602.867,1150.26
603.0,1148.7
603.133,1148.58
603.266,1143.4
603.399,1141.86
603.532,1140.68
603.665,1137.88
603.798,1137.5
603.931,1132.26
604.064,1129.72
604.196,1126.8
604.329,1125.26
604.462,1119.78
604.595,1116.8
604.728,1113.66
604.861,1111.84
604.994,1105.72
605.127,1100.92
605.259,1098.28
605.392,1096.02
605.525,1092.0
605.658,1087.42
605.791,1086.52
605.924,1081.88
606.057,1080.56
606.189,1077.84
606.322,1076.4
606.455,1071.82
606.588,1068.32
606.721,1069.44
606.853,1065.22
606.986,1062.3
607.119,1061.5
607.252,1059.5
607.385,1057.78
607.517,1057.38
607.65,1053.62
607.783,1053.24
607.916,1051.64
608.049,1049.64
608.181,1046.8
608.314,1046.16
608.447,1044.26
608.58,1042.28
608.712,1039.84
608.845,1040.92
608.978,1038.4
609.111,1037.26
609.243,1037.24
609.376,1032.8
609.509,1031.24
609.641,1028.6
609.774,1027.82
609.907,1027.06
610.039,1023.82
610.172,1024.96
610.305,1020.28
610.438,1023.5
610.57,1018.4
610.703,1021.34
610.836,1017.92
610.968,1016.46
611.101,1018.32
611.234,1016.68
611.366,1013.72
611.499,1014.08
611.631,1014.8
611.764,1010.12
611.897,1010.2
612.029,1009.26
612.162,1010.42
612.295,1010.34
612.427,1009.56
612.56,1008.46
612.692,1005.44
612.825,1006.34
612.958,1005.68
613.09,1005.1
613.223,1006.4
613.355,1004.52
613.488,1003.9
613.621,1002.76
613.753,1001.46
613.886,1000.42
614.018,999.56
614.151,1000.66
614.283,999.7
614.416,998.18
614.548,995.84
614.681,994.44
614.814,993.52
614.946,994.76
615.079,993.36
615.211,990.78
615.344,988.84
615.476,991.28
615.609,987.5
615.741,987.02
615.874,987.8
616.006,986.42
616.139,985.4
616.271,984.84
616.404,984.62
616.536,984.02
616.669,984.5
616.801,983.24
616.933,983.92
617.066,984.24
617.198,984.36
617.331,984.78
617.463,983.4
617.596,982.52
617.728,981.7
617.861,982.54
617.993,981.4
618.125,980.36
618.258,979.54
618.39,981.4
618.523,980.24
618.655,979.02
618.788,976.2
618.92,978.34
619.052,975.9
619.185,977.88
619.317,974.44
619.45,975.58
619.582,975.1
619.714,975.68
619.847,976.38
619.979,975.56
620.111,973.84
620.244,973.56
620.376,972.4
620.509,973.08
620.641,972.44
620.773,972.36
620.906,973.82
621.038,975.34
621.17,976.98
621.303,975.96
621.435,978.54
621.567,980.88
621.7,984.8
621.832,986.0
621.964,990.96
622.096,992.3
622.229,999.26
622.361,998.9
622.493,999.88
622.626,994.2
622.758,986.58
622.89,982.64
623.022,976.38
623.155,973.6
623.287,973.36
623.419,970.96
623.552,969.28
623.684,969.92
623.816,970.68
623.948,968.52
624.081,968.6
624.213,965.58
624.345,965.96
624.477,967.42
624.61,967.5
624.742,966.24
624.874,966.64
625.006,967.46
625.138,970.22
625.271,968.48
625.403,972.4
625.535,969.96
625.667,970.08
625.799,973.58
625.932,973.46
626.064,977.9
626.196,982.78
626.328,988.98
626.46,1002.12
626.593,1025.0
626.725,1065.34
626.857,1140.6
626.989,1257.36
627.121,1387.0
627.253,1447.24
627.386,1429.38
627.518,1364.48
627.65,1309.18
627.782,1270.62
627.914,1244.16
628.046,1235.06
628.178,1244.2
628.311,1284.08
628.443,1386.98
628.575,1496.68
628.707,1430.02
628.839,1316.0
628.971,1270.56
629.103,1251.84
629.235,1238.24
629.367,1222.42
629.5,1203.6
629.632,1182.64
629.764,1163.68
629.896,1149.42
630.028,1139.62
630.16,1137.0
630.292,1131.82
630.424,1131.02
630.556,1118.9
630.688,1110.96
630.82,1092.08
630.952,1070.16
631.084,1042.88
631.216,1019.42
631.349,1006.26
631.481,1000.0
631.613,997.14
631.745,992.0
631.877,986.74
632.009,980.18
632.141,978.66
632.273,976.5
632.405,975.92
632.537,970.94
632.669,971.76
632.801,968.74
632.933,968.76
633.065,970.3
633.197,965.78
633.329,970.44
633.461,968.86
633.593,968.66
633.725,966.54
633.857,965.18
633.989,966.68
634.121,966.92
634.253,964.14
634.385,965.5
634.517,965.7
634.649,964.32
634.781,966.38
634.912,965.1
635.044,966.48
635.176,966.08
635.308,966.68
635.44,966.3
635.572,968.6
635.704,966.26
635.836,967.28
635.968,968.58
636.1,968.38
636.232,969.14
636.364,968.34
636.496,970.34
636.628,969.1
636.76,970.06
636.891,969.68
637.023,967.76
637.155,969.16
637.287,972.62
637.419,970.2
637.551,970.38
637.683,971.08
637.815,968.44
637.947,970.42
638.078,970.94
638.21,971.46
638.342,972.1
638.474,971.56
638.606,974.62
638.738,972.82
638.87,973.56
639.002,974.54
639.133,974.02
639.265,973.96
639.397,973.72
639.529,976.04
639.661,973.52
639.793,974.84
639.924,973.92
640.056,977.54
640.188,977.52
640.32,977.0
640.452,977.94
640.584,979.16
640.715,980.86
640.847,979.18
640.979,981.04
641.111,981.86
641.243,978.66
641.374,982.68
641.506,981.32
641.638,981.72
641.77,981.94
641.902,982.02
642.033,982.7
642.165,983.18
642.297,984.14
642.429,985.28
642.561,982.26
642.692,985.08
642.824,984.54
642.956,984.1
643.088,981.38
643.219,983.52
643.351,984.08
643.483,985.56
643.615,983.0
643.746,984.6
643.878,983.18
644.01,983.76
644.142,983.36
644.273,984.84
644.405,984.68
644.537,984.16
644.669,984.66
644.8,984.76
644.932,983.9
645.064,983.88
645.195,984.44
645.327,985.32
645.459,984.3
645.591,986.56
645.722,985.4
645.854,985.64
645.986,985.62
646.117,984.48
646.249,982.98
646.381,985.84
646.512,984.62
646.644,985.2
646.776,984.74
646.908,983.64
647.039,983.4
647.171,984.44
647.303,985.42
647.434,986.52
647.566,986.42
647.698,985.7
647.829,983.7
647.961,986.88
648.093,985.08
648.224,983.72
648.356,985.02
648.488,986.36
648.619,982.92
648.751,983.52
648.883,982.68
649.014,984.04
649.146,983.12
649.277,984.22
649.409,981.74
649.541,980.88
649.672,982.42
649.804,980.42
649.936,982.28
650.067,983.34
650.199,983.42
650.33,983.8
650.462,982.98
650.594,982.24
650.725,978.78
650.857,981.62
650.988,982.48
651.12,984.18
651.252,982.72
651.383,983.38
651.515,984.86
651.646,983.62
651.778,982.44
651.91,982.18
652.041,985.62
652.173,985.2
652.304,982.78
652.436,982.9
652.568,984.64
652.699,982.0
652.831,984.74
652.962,986.2
653.094,983.5
653.225,984.36
653.357,983.66
653.489,985.0
653.62,984.96
653.752,984.32
653.883,985.34
654.015,984.94
654.146,986.42
654.278,983.18
654.409,981.72
654.541,984.34
654.672,985.94
654.804,982.6
654.935,984.14
655.067,984.18
655.199,983.78
655.33,980.04
655.462,982.44
655.593,980.48
655.725,981.0
655.856,981.1
655.988,980.0
656.119,980.42
656.251,977.26
656.382,978.3
656.514,978.78
656.645,978.84
656.777,976.38
656.908,977.0
657.04,975.38
657.171,974.82
657.303,975.0
657.434,974.06
657.566,972.5
657.697,971.02
657.829,971.74
657.96,970.52
658.092,971.38
658.223,968.36
658.355,966.62
658.486,969.36
658.617,968.6
658.749,969.2
658.88,964.64
659.012,962.74
659.143,964.76
659.275,961.94
659.406,960.14
659.538,963.36
659.669,959.12
659.801,959.38
659.932,959.34
660.064,959.14
660.195,956.2
660.326,955.14
660.458,955.38
660.589,953.72
660.721,950.38
660.852,950.16
660.984,947.32
661.115,947.16
661.246,946.96
661.378,946.86
661.509,942.98
661.641,941.52
661.772,940.72
661.904,943.58
662.035,938.24
662.166,939.38
662.298,938.2
662.429,936.96
662.561,936.32
662.692,936.06
662.823,932.42
662.955,934.7
663.086,932.14