File: spectra/VLFR_07-PET_bio_Raman_20da9aee.csv
nm,Intensity
791.75,8358.7
792.024,8320.5
792.298,8266.1
792.572,8181.9
792.846,8087.9
793.12,8051.35
793.394,7992.55
793.668,8014.2
793.942,7938.0
794.215,7856.95
794.489,7867.35
794.763,7832.2
795.037,7816.15
795.311,7808.7
795.585,7768.5
795.859,7813.4
796.133,7765.25
796.407,7694.05
796.681,7738.1
796.955,7719.6
797.228,7780.65
797.502,7744.9
797.776,7787.1
798.05,7750.8
798.324,7676.65
798.598,7717.55
798.871,7789.5
799.145,7716.15
799.419,7629.3
799.693,7681.0
799.967,7745.15
800.241,7666.85
800.514,7699.7
800.788,7753.75
801.062,7822.8
801.336,7663.65
801.61,7626.75
801.883,7590.9
802.157,7681.05
802.431,7684.35
802.705,7602.85
802.978,7557.75
803.252,7609.3
803.526,7597.65
803.8,7537.95
804.073,7617.65
804.347,7533.0
804.621,7532.9
804.894,7520.5
805.168,7527.05
805.442,7492.5
805.715,7399.2
805.989,7434.0
806.263,7497.6
806.536,7468.5
806.81,7421.7
807.084,7354.95
807.357,7425.65
807.631,7417.15
807.905,7356.6
808.178,7372.75
808.452,7383.2
808.726,7299.85
808.999,7311.05
809.273,7243.25
809.546,7314.0
809.82,7289.9
810.094,7311.65
810.367,7237.5
810.641,7202.5
810.914,7267.1
811.188,7287.5
811.461,7234.9
811.735,7075.55
812.008,7149.7
812.282,7145.35
812.556,7150.5
812.829,7105.9
813.103,7118.45
813.376,7106.95
813.65,7051.7
813.923,7048.3
814.197,7074.3
814.47,7045.7
814.744,7028.65
815.017,6959.4
815.29,6959.4
815.564,7030.3
815.837,6937.85
816.111,6974.55
816.384,6960.05
816.658,6904.5
816.931,6841.35
817.205,6887.35
817.478,6885.65
817.751,6860.45
818.025,6833.65
818.298,6877.4
818.572,6868.2
818.845,6863.7
819.118,6764.55
819.392,6744.6
819.665,6748.3
819.938,6737.25
820.212,6794.55
820.485,6797.05
820.758,6729.8
821.032,6732.4
821.305,6703.3
821.578,6717.55
821.852,6735.2
822.125,6601.55
822.398,6586.85
822.672,6623.45
822.945,6587.05
823.218,6631.85
823.491,6630.85
823.765,6544.35
824.038,6589.05
824.311,6611.15
824.585,6575.55
824.858,6616.65
825.131,6575.9
825.404,6603.2
825.677,6640.65
825.951,6637.5
826.224,6531.55
826.497,6438.4
826.77,6524.9
827.043,6530.0
827.317,6432.5
827.59,6438.7
827.863,6469.3
828.136,6447.75
828.409,6415.45
828.682,6388.1
828.956,6333.6
829.229,6373.6
829.502,6353.95
829.775,6391.55
830.048,6356.1
830.321,6367.7
830.594,6390.2
830.867,6420.05
831.14,6400.6
831.413,6313.1
831.687,6317.2
831.96,6298.35
832.233,6327.35
832.506,6311.6
832.779,6286.9
833.052,6201.7
833.325,6218.1
833.598,6261.2
833.871,6275.35
834.144,6270.6
834.417,6277.2
834.69,6205.65
834.963,6175.6
835.236,6216.85
835.509,6141.5
835.782,6176.2
836.055,6222.7
836.328,6212.15
836.601,6193.95
836.874,6205.35
837.147,6203.65
837.419,6216.65
837.692,6190.95
837.965,6178.95
838.238,6187.8
838.511,6196.25
838.784,6194.8
839.057,6149.65
839.33,6167.65
839.603,6144.95
839.876,6139.1
840.148,6135.45
840.421,6157.7
840.694,6212.6
840.967,6203.25
841.24,6222.15
841.513,6264.8
841.785,6264.95
842.058,6216.2
842.331,6150.5
842.604,6053.35
842.877,6056.9
843.149,6052.3
843.422,6070.8
843.695,6086.35
843.968,6079.55
844.24,6024.65
844.513,5994.6
844.786,5997.75
845.059,5987.2
845.331,5968.7
845.604,5912.95
845.877,5943.0
846.15,5888.7
846.422,5834.15
846.695,5869.7
846.968,5888.05
847.24,5889.75
847.513,5871.6
847.786,5897.4
848.058,5947.6
848.331,5851.15
848.604,5849.2
848.876,5836.25
849.149,5813.4
849.421,5836.95
849.694,5818.75
849.967,5824.05
850.239,5829.75
850.512,5822.3
850.784,5777.7
851.057,5791.95
851.33,5795.6
851.602,5821.9
851.875,5815.65
852.147,5771.45
852.42,5793.15
852.692,5765.5
852.965,5765.8
853.237,5779.05
853.51,5783.45
853.782,5785.6
854.055,5742.7
854.327,5734.9
854.6,5748.6
854.872,5756.65
855.145,5716.15
855.417,5689.85
855.69,5709.4
855.962,5691.35
856.235,5704.7
856.507,5703.95
856.779,5678.05
857.052,5660.2
857.324,5687.8
857.597,5670.8
857.869,5678.05
858.142,5720.25
858.414,5708.85
858.686,5696.7
858.959,5684.55
859.231,5686.6
859.503,5712.5
859.776,5733.15
860.048,5778.8
860.32,5729.95
860.593,5703.6
860.865,5661.95
861.137,5602.0
861.41,5633.4
861.682,5610.9
861.954,5625.0
862.226,5584.9
862.499,5599.55
862.771,5593.7
863.043,5544.2
863.315,5582.95
863.588,5597.7
863.86,5567.4
864.132,5573.6
864.404,5585.4
864.677,5600.4
864.949,5563.2
865.221,5516.35
865.493,5534.8
865.765,5539.95
866.038,5511.4
866.31,5532.55
866.582,5528.6
866.854,5474.7
867.126,5468.75
867.398,5476.05
867.67,5474.2
867.943,5489.15
868.215,5486.15
868.487,5493.6
868.759,5486.65
869.031,5481.65
869.303,5510.9
869.575,5502.35
869.847,5503.85
870.119,5491.9
870.391,5470.4
870.663,5457.4
870.935,5468.1
871.207,5487.15
871.479,5504.7
871.751,5544.4
872.023,5553.95
872.295,5592.7
872.567,5623.15
872.839,5636.15
873.111,5621.4
873.383,5623.8
873.655,5568.95
873.927,5567.15
874.199,5535.55
874.471,5508.1
874.743,5444.9
875.015,5413.05
875.287,5464.45
875.559,5427.65
875.831,5411.0
876.103,5413.65
876.374,5388.85
876.646,5364.25
876.918,5391.75
877.19,5372.25
877.462,5334.4
877.734,5323.75
878.006,5354.4
878.277,5326.5
878.549,5335.1
878.821,5346.45
879.093,5327.55
879.365,5319.0
879.636,5309.1
879.908,5280.95
880.18,5283.2
880.452,5300.95
880.723,5284.9
880.995,5308.8
881.267,5292.4
881.539,5255.5
881.81,5269.95
882.082,5277.6
882.354,5286.7
882.626,5304.45
882.897,5317.7
883.169,5240.95
883.441,5215.6
883.712,5230.85
883.984,5228.3
884.256,5256.5
884.527,5227.0
884.799,5227.2
885.07,5264.4
885.342,5262.85
885.614,5221.5
885.885,5225.3
886.157,5188.9
886.428,5231.6
886.7,5221.65
886.972,5172.95
887.243,5167.05
887.515,5187.25
887.786,5190.4
888.058,5161.2
888.329,5144.5
888.601,5135.5
888.872,5134.5
889.144,5140.1
889.415,5102.55
889.687,5133.7
889.958,5158.0
890.23,5132.05
890.501,5126.55
890.773,5103.4
891.044,5059.4
891.316,5075.5
891.587,5067.0
891.859,5087.05
892.13,5091.05
892.401,5095.0
892.673,5061.7
892.944,5064.95
893.216,5063.05
893.487,5047.3
893.758,5045.4
894.03,5038.25
894.301,5030.5
894.572,5029.0
894.844,4988.55
895.115,4993.3
895.386,5012.2
895.658,4983.15
895.929,4961.55
896.2,5000.9
896.472,4996.7
896.743,4999.05
897.014,5015.8
897.285,5061.05
897.557,5094.85
897.828,5180.15
898.099,5287.85
898.37,5252.1
898.642,5245.15
898.913,5218.8
899.184,5204.1
899.455,5126.9
899.726,5078.55
899.998,4979.75
900.269,4915.7
900.54,4892.6
900.811,4890.55
901.082,4891.25
901.353,4881.1
901.625,4874.2
901.896,4842.55
902.167,4827.95
902.438,4842.65
902.709,4847.0
902.98,4832.4
903.251,4839.9
903.522,4836.75
903.793,4843.6
904.064,4824.95
904.335,4839.5
904.606,4834.75
904.877,4827.0
905.148,4806.9
905.419,4808.65
905.69,4834.4
905.961,4865.25
906.232,4905.7
906.503,4919.8
906.774,4943.9
907.045,4952.4
907.316,4985.25
907.587,4999.3
907.858,5003.9
908.129,4992.65
908.4,4981.45
908.671,4936.5
908.942,4882.9
909.213,4822.7
909.484,4785.15
909.755,4765.15
910.025,4731.05
910.296,4732.35
910.567,4713.55
910.838,4686.9
911.109,4700.4
911.38,4703.15
911.65,4697.05
911.921,4666.8
912.192,4643.75
912.463,4629.8
912.734,4604.7
913.004,4632.0
913.275,4636.75
913.546,4629.45
913.817,4621.65
914.087,4627.2
914.358,4604.3
914.629,4603.8
914.9,4598.35
915.17,4570.35
915.441,4559.15
915.712,4553.05
915.982,4570.3
916.253,4579.4
916.524,4556.55
916.794,4567.25
917.065,4546.1
917.336,4539.75
917.606,4548.35
917.877,4551.75
918.147,4536.45
918.418,4502.1
918.689,4519.8
918.959,4520.5
919.23,4535.0
919.5,4521.7
919.771,4511.9
920.042,4500.75
920.312,4487.95
920.583,4482.65
920.853,4472.9
921.124,4463.3
921.394,4469.7
921.665,4471.85
921.935,4470.55
922.206,4471.25
922.476,4459.1
922.747,4440.35
923.017,4426.0
923.287,4434.75
923.558,4434.35
923.828,4430.45
924.099,4413.85
924.369,4414.5
924.639,4420.7
924.91,4401.9
925.18,4395.05
925.451,4383.05
925.721,4389.15
925.991,4373.2
926.262,4381.3
926.532,4383.55
926.802,4370.25
927.073,4373.35
927.343,4356.45
927.613,4349.3
927.884,4343.45
928.154,4345.15
928.424,4349.85
928.694,4349.9
928.965,4331.6
929.235,4318.75
929.505,4312.85
929.775,4305.65
930.046,4295.65
930.316,4291.95
930.586,4290.9
930.856,4297.35
931.126,4304.35
931.397,4295.25
931.667,4282.45
931.937,4269.15
932.207,4276.8
932.477,4259.0
932.747,4258.0
933.017,4241.8
933.288,4266.2
933.558,4255.05
933.828,4247.8
934.098,4245.6
934.368,4246.45
934.638,4247.85
934.908,4239.3
935.178,4219.35
935.448,4215.3
935.718,4209.75
935.988,4218.4
936.258,4214.95
936.528,4206.3
936.798,4216.05
937.068,4205.4
937.338,4204.95
937.608,4195.25
937.878,4198.85
938.148,4184.95
938.418,4187.15
938.688,4183.55
938.958,4184.6
939.228,4176.15
939.498,4173.7
939.767,4162.75
940.037,4169.35
940.307,4168.15
940.577,4164.4
940.847,4155.6
941.117,4145.7
941.387,4152.3
941.656,4148.05
941.926,4147.8
942.196,4144.3
942.466,4154.05
942.736,4135.3
943.005,4124.05
943.275,4122.85
943.545,4113.4
943.815,4117.85
944.084,4116.6
944.354,4102.65
944.624,4101.15
944.894,4097.65
945.163,4102.65
945.433,4097.35
945.703,4100.6
945.972,4101.4
946.242,4095.7
946.512,4097.8
946.781,4093.75
947.051,4085.0
947.321,4084.95
947.59,4081.6
947.86,4076.35
948.13,4075.4
948.399,4074.3
948.669,4069.85
948.938,4067.0
949.208,4060.45
949.477,4066.55
949.747,4064.8
950.016,4052.5
950.286,4055.5
950.556,4048.3
950.825,4050.6
951.095,4056.65
951.364,4050.55
951.634,4040.75
951.903,4039.25
952.172,4042.95
952.442,4037.75
952.711,4039.55
952.981,4031.05
953.25,4022.75
953.52,4024.2
953.789,4022.25
954.058,4016.15
954.328,4013.1
954.597,4013.85
954.867,4012.6
955.136,4013.0
955.405,4008.4
955.675,4015.95
955.944,4007.85
956.213,4003.45
956.483,4002.35
956.752,3997.35
957.021,4001.5
957.29,3999.35
957.56,4000.9
957.829,3988.25
958.098,3985.55
958.367,3981.3
958.637,3981.35
958.906,3982.6
959.175,3978.1
959.444,3966.5
959.714,3974.9
959.983,3972.85
960.252,3968.85
960.521,3974.45
960.79,3973.75
961.059,3971.7
961.328,3970.05
961.598,3967.2
961.867,3968.45
962.136,3971.3
962.405,3961.7
962.674,3953.4
962.943,3948.7
963.212,3948.2
963.481,3949.65
963.75,3948.7
964.019,3949.9
964.288,3953.15
964.557,3947.55
964.826,3942.4
965.095,3947.95
965.364,3946.8
965.633,3933.15
965.902,3930.5
966.171,3928.25
966.44,3929.85
966.709,3929.9
966.978,3929.5
967.247,3929.65
967.516,3921.6
967.785,3920.35
968.054,3928.05
968.323,3929.3
968.591,3923.5
968.86,3920.45
969.129,3918.3
969.398,3917.6
969.667,3917.0
969.936,3910.4
970.204,3909.2
970.473,3909.7
970.742,3913.5
971.011,3905.9
971.28,3905.25
971.548,3900.3
971.817,3905.05
972.086,3907.95
972.355,3911.75
972.623,3903.0
972.892,3897.6
973.161,3896.9
973.429,3897.8
973.698,3893.3
973.967,3887.4
974.235,3894.35
974.504,3891.05
974.773,3891.2
975.041,3891.1
975.31,3891.9
975.579,3889.95
975.847,3888.35
976.116,3881.25
976.384,3877.7
976.653,3877.75
976.922,3882.0
977.19,3882.05
977.459,3878.35
977.727,3879.15
977.996,3879.0
978.264,3874.0
978.533,3871.55
978.801,3871.35
979.07,3867.3
979.338,3867.35
979.607,3868.7
979.875,3866.05
980.143,3866.35
980.412,3864.35
980.68,3868.55
980.949,3867.5
981.217,3863.25
981.486,3863.55
981.754,3859.65
982.022,3865.8
982.291,3863.0
982.559,3864.8
982.827,3860.5
983.096,3856.35
983.364,3849.1
983.632,3853.75
983.901,3850.3
984.169,3849.5
984.437,3850.55
984.705,3851.2
984.974,3850.95
985.242,3851.85
985.51,3846.25
985.778,3845.55
986.047,3847.2
986.315,3849.35
986.583,3847.3
986.851,3846.6
987.119,3846.5
987.388,3845.2
987.656,3839.15
987.924,3841.35
988.192,3839.3
988.46,3842.9
988.728,3836.9
988.996,3841.8
989.264,3841.75
989.533,3833.2
989.801,3833.5
990.069,3837.3
990.337,3829.95
990.605,3830.7
990.873,3831.45
991.141,3832.55
991.409,3832.85
991.677,3829.75
991.945,3829.55
992.213,3828.4
992.481,3826.5
992.749,3825.25
993.017,3823.5
993.285,3821.85
993.553,3823.7
993.82,3822.85
994.088,3820.9
994.356,3824.7
994.624,3817.45
994.892,3819.95
995.16,3817.8
995.428,3813.4
995.696,3811.25
995.963,3816.15
996.231,3813.3
996.499,3810.85
996.767,3815.55
997.035,3818.2
997.302,3812.05
997.57,3812.15
997.838,3813.4
998.106,3812.8
998.373,3812.0
998.641,3812.5
998.909,3807.85
999.177,3808.5
999.444,3805.3
999.712,3804.55
999.98,3807.55
1000.25,3803.6
1000.51,3807.15
1000.78,3804.05
1001.05,3803.75
1001.32,3800.8
1001.59,3801.9
1001.85,3801.6
1002.12,3803.75
1002.39,3800.4
1002.66,3800.15
1002.92,3798.15
1003.19,3799.25
1003.46,3798.9
1003.73,3798.3
1003.99,3795.55
1004.26,3796.6
1004.53,3795.05
1004.8,3793.9
1005.06,3795.15
1005.33,3793.55
1005.6,3797.55
1005.87,3792.15
1006.13,3793.05
1006.4,3792.75
1006.67,3790.3
1006.94,3790.0
1007.2,3792.75
1007.47,3789.9
1007.74,3792.5
1008.0,3787.9
1008.27,3786.45
1008.54,3787.4
1008.81,3787.65
1009.07,3784.85
1009.34,3784.25
1009.61,3784.5
1009.88,3783.15
1010.14,3784.35
1010.41,3784.95
1010.68,3782.5
1010.95,3782.35
1011.21,3782.75
1011.48,3780.05
1011.75,3783.2
1012.01,3781.4
1012.28,3779.55
1012.55,3780.3
1012.82,3780.3
1013.08,3781.85
1013.35,3778.25
1013.62,3778.7
1013.88,3780.25
1014.15,3780.05
1014.42,3778.05
1014.69,3778.05
1014.95,3778.35
1015.22,3777.3
1015.49,3776.95
1015.75,3776.6
1016.02,3776.65
1016.29,3776.35
1016.55,3776.75
1016.82,3775.3
1017.09,3773.05
1017.36,3775.6
1017.62,3775.05
1017.89,3772.0
1018.16,3771.45
1018.42,3772.35
1018.69,3773.0
1018.96,3772.7
1019.22,3773.35
1019.49,3772.4
1019.76,3769.45
1020.02,3772.8
1020.29,3772.75
1020.56,3774.0
1020.83,3774.4
1021.09,3772.6
1021.36,3774.55
1021.63,3775.95
1021.89,3776.1
1022.16,3774.9
1022.43,3773.2
1022.69,3776.45
1022.96,3773.3
1023.23,3771.1
1023.49,3771.7
1023.76,3772.8
1024.03,3770.2
1024.29,3772.25
1024.56,3770.2
1024.83,3766.6
1025.09,3768.15
1025.36,3767.55
1025.63,3766.75
1025.89,3764.3
1026.16,3764.85
1026.43,3763.8
1026.69,3762.5
1026.96,3762.45
1027.23,3761.35
1027.49,3760.85
1027.76,3761.65
1028.03,3761.65
1028.29,3761.6
1028.56,3761.9
1028.83,3759.75
1029.09,3762.4
1029.36,3759.7
1029.62,3760.55
1029.89,3757.05
1030.16,3759.75
1030.42,3758.55
1030.69,3757.2
1030.96,3757.5
1031.22,3754.95
1031.49,3758.05
1031.76,3758.8
1032.02,3757.65
1032.29,3758.9
1032.56,3756.9
1032.82,3756.55
1033.09,3756.95
1033.35,3756.9
1033.62,3759.15
1033.89,3759.85
1034.15,3760.05
1034.42,3757.5
1034.69,3759.25
1034.95,3759.5
1035.22,3757.45
1035.48,3758.2
1035.75,3758.35
1036.02,3759.0
1036.28,3755.5
1036.55,3758.15
1036.81,3756.65
1037.08,3754.6
1037.35,3753.7
1037.61,3754.1
1037.88,3751.3
1038.15,3753.9
1038.41,3753.5
1038.68,3752.2
1038.94,3751.5
1039.21,3751.85
1039.48,3751.8
1039.74,3751.25
1040.01,3752.0
1040.27,3749.85
1040.54,3749.7
1040.81,3751.8
1041.07,3749.9
1041.34,3751.4
1041.6,3749.35
1041.87,3747.85
1042.14,3748.9
1042.4,3749.0
1042.67,3748.75
1042.93,3748.35
1043.2,3747.45
1043.47,3748.65
1043.73,3748.9
1044.0,3748.45
1044.26,3747.55
1044.53,3747.95
1044.79,3745.65
1045.06,3747.85
1045.33,3745.15
1045.59,3747.05
1045.86,3746.2
1046.12,3748.45
1046.39,3747.2
1046.65,3747.85
1046.92,3746.3
1047.19,3746.65
1047.45,3746.05
1047.72,3745.75
1047.98,3746.1
1048.25,3747.3
1048.51,3746.8
1048.78,3745.9
1049.05,3745.95
1049.31,3746.85
1049.58,3745.8
1049.84,3746.15
1050.11,3745.15
1050.37,3746.65
1050.64,3745.65
1050.91,3746.4
1051.17,3744.8
1051.44,3746.35
1051.7,3745.75
1051.97,3746.15
1052.23,3744.6
1052.5,3744.1
1052.76,3746.0
1053.03,3744.45
1053.29,3746.75
1053.56,3745.45
1053.83,3744.7
1054.09,3745.3
1054.36,3745.9
1054.62,3745.35
1054.89,3744.35
1055.15,3747.1
1055.42,3744.05
1055.68,3743.8
1055.95,3744.15
1056.21,3745.0
1056.48,3743.65
1056.74,3742.4
1057.01,3744.5
1057.27,3743.1
1057.54,3743.7
1057.81,3742.7
1058.07,3743.1
1058.34,3743.55
1058.6,3743.35
1058.87,3743.15
1059.13,3743.45
1059.4,3743.65
1059.66,3744.4
1059.93,3744.0
1060.19,3744.05
1060.46,3743.4
1060.72,3743.65
1060.99,3742.9
1061.25,3743.6
1061.52,3743.25
1061.78,3742.9
1062.05,3744.6
1062.31,3742.85
1062.58,3742.85
1062.84,3742.35
1063.11,3742.1
1063.37,3742.9
1063.64,3742.8
1063.9,3742.35
1064.17,3743.1
1064.43,3741.05
1064.7,3743.0
1064.96,3742.55
1065.23,3743.9
1065.49,3742.7
1065.76,3743.25
1066.02,3742.25
1066.29,3741.7
1066.55,3741.75
1066.82,3743.75
1067.08,3741.95
1067.35,3741.9
1067.61,3741.7
1067.88,3741.45