File: spectra/VLFR_09-PET_bio_Raman_4ae55241.csv
nm,Intensity
528.626,1864.7
528.795,1864.8
528.963,1864.6
529.132,1862.3
529.3,1864.7
529.469,1865.4
529.637,1865.5
529.806,1862.7
529.974,1865.2
530.143,1865.0
530.311,1865.1
530.48,1864.9
530.648,1865.3
530.816,1866.2
530.985,1867.1
531.153,1869.6
531.322,1869.7
531.49,1875.4
531.658,1901.6
531.827,2439.4
531.995,3906.7
532.164,4350.3
532.332,2310.9
532.5,1871.1
532.669,1865.1
532.837,1865.5
533.006,1865.8
533.174,1866.3
533.342,1867.8
533.511,1886.1
533.679,1997.3
533.847,2230.0
534.016,2414.0
534.184,2490.8
534.352,2501.9
534.521,2516.9
534.689,2525.5
534.857,2539.0
535.025,2559.6
535.194,2573.4
535.362,2594.4
535.53,2610.8
535.699,2590.5
535.867,2572.7
536.035,2591.9
536.203,2589.0
536.372,2594.2
536.54,2601.1
536.708,2620.9
536.876,2630.4
537.044,2633.5
537.213,2645.2
537.381,2659.3
537.549,2650.7
537.717,2652.5
537.885,2691.1
538.054,2678.6
538.222,2654.5
538.39,2678.9
538.558,2678.3
538.726,2685.5
538.894,2728.3
539.063,2706.3
539.231,2718.1
539.399,2726.2
539.567,2724.9
539.735,2739.6
539.903,2767.0
540.071,2763.5
540.239,2765.0
540.408,2740.0
540.576,2768.9
540.744,2769.8
540.912,2772.2
541.08,2795.7
541.248,2777.2
541.416,2767.4
541.584,2791.1
541.752,2820.1
541.92,2806.5
542.088,2832.5
542.256,2805.2
542.424,2823.3
542.592,2871.0
542.76,2857.6
542.928,2868.6
543.096,2866.4
543.264,2859.3
543.432,2869.5
543.6,2855.4
543.768,2896.8
543.936,2901.5
544.104,2888.3
544.272,2888.8
544.44,2904.6
544.608,2899.9
544.776,2924.3
544.944,2926.0
545.112,2932.8
545.28,2938.9
545.448,2897.2
545.616,2928.2
545.784,2937.5
545.951,2971.6
546.119,2990.6
546.287,2989.8
546.455,2978.8
546.623,3003.8
546.791,2958.0
546.959,2975.7
547.127,3016.0
547.294,3008.8
547.462,3000.0
547.63,2988.0
547.798,3005.6
547.966,3032.7
548.134,3051.0
548.301,3040.4
548.469,3053.7
548.637,3033.5
548.805,3099.1
548.972,3075.6
549.14,3083.7
549.308,3078.3
549.476,3053.5
549.644,3070.1
549.811,3062.8
549.979,3064.0
550.147,3087.6
550.315,3070.2
550.482,3083.5
550.65,3113.6
550.818,3127.1
550.985,3145.8
551.153,3115.5
551.321,3147.9
551.488,3159.1
551.656,3139.1
551.824,3168.2
551.991,3193.7
552.159,3160.4
552.327,3159.3
552.494,3153.6
552.662,3182.9
552.83,3157.8
552.997,3177.8
553.165,3177.0
553.333,3209.2
553.5,3160.3
553.668,3211.1
553.835,3206.3
554.003,3187.1
554.171,3222.8
554.338,3211.4
554.506,3197.7
554.673,3210.9
554.841,3243.6
555.008,3218.6
555.176,3254.6
555.343,3242.8
555.511,3280.8
555.679,3255.9
555.846,3265.1
556.014,3269.4
556.181,3243.1
556.349,3287.0
556.516,3310.2
556.684,3251.7
556.851,3260.3
557.018,3249.3
557.186,3277.0
557.353,3269.2
557.521,3294.1
557.688,3315.1
557.856,3278.5
558.023,3288.0
558.191,3291.2
558.358,3316.8
558.525,3311.2
558.693,3296.5
558.86,3313.9
559.028,3321.0
559.195,3325.5
559.362,3309.0
559.53,3317.4
559.697,3355.7
559.864,3322.9
560.032,3332.5
560.199,3348.1
560.366,3319.0
560.534,3376.7
560.701,3352.9
560.868,3326.8
561.036,3388.5
561.203,3379.6
561.37,3406.3
561.538,3428.7
561.705,3402.8
561.872,3384.6
562.039,3361.4
562.207,3405.7
562.374,3424.4
562.541,3396.4
562.708,3414.8
562.876,3393.1
563.043,3439.2
563.21,3428.4
563.377,3439.0
563.545,3423.1
563.712,3436.9
563.879,3464.4
564.046,3436.4
564.213,3430.9
564.38,3486.4
564.548,3449.9
564.715,3468.9
564.882,3496.8
565.049,3463.6
565.216,3470.5
565.383,3503.4
565.551,3486.8
565.718,3539.2
565.885,3538.2
566.052,3512.0
566.219,3512.1
566.386,3521.2
566.553,3546.4
566.72,3492.8
566.887,3543.9
567.054,3533.7
567.221,3562.7
567.388,3542.3
567.555,3525.7
567.722,3511.9
567.889,3523.8
568.057,3544.5
568.224,3587.6
568.391,3591.0
568.558,3539.5
568.725,3584.1
568.892,3586.8
569.058,3582.1
569.225,3595.7
569.392,3623.7
569.559,3605.9
569.726,3612.4
569.893,3594.1
570.06,3633.8
570.227,3621.4
570.394,3611.3
570.561,3643.2
570.728,3658.1
570.895,3640.6
571.062,3634.5
571.229,3700.6
571.395,3671.3
571.562,3689.2
571.729,3676.9
571.896,3666.4
572.063,3724.2
572.23,3746.7
572.397,3695.3
572.563,3717.3
572.73,3729.7
572.897,3693.8
573.064,3736.1
573.231,3717.2
573.397,3703.4
573.564,3727.3
573.731,3706.3
573.898,3731.4
574.064,3709.0
574.231,3741.0
574.398,3697.8
574.565,3745.0
574.731,3738.8
574.898,3713.2
575.065,3736.1
575.232,3726.2
575.398,3764.7
575.565,3752.6
575.732,3734.4
575.898,3775.9
576.065,3779.3
576.232,3830.7
576.398,3776.2
576.565,3761.7
576.732,3780.6
576.898,3809.6
577.065,3776.1
577.232,3808.7
577.398,3808.1
577.565,3823.0
577.731,3743.9
577.898,3777.6
578.065,3832.9
578.231,3775.1
578.398,3821.5
578.564,3789.3
578.731,3789.7
578.897,3777.9
579.064,3822.6
579.23,3817.2
579.397,3838.9
579.563,3816.9
579.73,3820.8
579.896,3848.2
580.063,3853.8
580.229,3843.5
580.396,3823.4
580.562,3878.1
580.729,3843.7
580.895,3820.8
581.062,3856.3
581.228,3841.4
581.395,3808.3
581.561,3858.1
581.728,3893.2
581.894,3873.9
582.06,3921.1
582.227,3946.8
582.393,3852.0
582.56,3898.1
582.726,3868.6
582.892,3878.2
583.059,3851.8
583.225,3881.8
583.391,3866.1
583.558,3862.5
583.724,3873.4
583.89,3859.3
584.057,3876.8
584.223,3892.4
584.389,3893.6
584.556,3834.8
584.722,3830.0
584.888,3836.6
585.054,3837.9
585.221,3837.8
585.387,3847.0
585.553,3861.9
585.719,3877.2
585.886,3927.4
586.052,3932.5
586.218,3855.3
586.384,3910.5
586.55,3896.8
586.717,3862.5
586.883,3847.8
587.049,3848.7
587.215,3863.5
587.381,3883.9
587.548,3900.2
587.714,3870.7
587.88,3930.4
588.046,3876.5
588.212,3839.2
588.378,3871.8
588.544,3878.5
588.71,3831.2
588.876,3927.8
589.043,3888.4
589.209,3830.0
589.375,3799.5
589.541,3828.5
589.707,3833.3
589.873,3838.1
590.039,3864.4
590.205,3878.6
590.371,3816.0
590.537,3899.9
590.703,3826.3
590.869,3846.7
591.035,3849.3
591.201,3872.7
591.367,3888.9
591.533,3896.5
591.699,3870.6
591.865,3891.8
592.031,3870.4
592.197,3877.5
592.363,3833.6
592.529,3843.5
592.694,3907.9
592.86,3909.5
593.026,3872.6
593.192,3833.8
593.358,3844.8
593.524,3851.8
593.69,3865.0
593.856,3839.6
594.021,3854.2
594.187,3842.1
594.353,3861.3
594.519,3836.1
594.685,3871.0
594.851,3850.1
595.016,3881.2
595.182,3865.6
595.348,3876.4
595.514,3865.4
595.68,3853.5
595.845,3921.1
596.011,3880.5
596.177,3867.6
596.342,3850.5
596.508,3889.6
596.674,3896.5
596.84,3890.0
597.005,3882.6
597.171,3843.2
597.337,3907.6
597.502,3871.7
597.668,3871.9
597.834,3867.4
597.999,3839.4
598.165,3907.4
598.331,3855.5
598.496,3864.4
598.662,3874.7
598.828,3881.4
598.993,3889.7
599.159,3895.5
599.324,3900.8
599.49,3932.2
599.656,3887.2
599.821,3880.6
599.987,3898.6
600.152,3901.6
600.318,3878.3
600.483,3883.1
600.649,3844.5
600.814,3912.7
600.98,3910.2
601.145,3872.8
601.311,3907.8
601.476,3909.8
601.642,3918.4
601.807,3853.3
601.973,3893.9
602.138,3894.9
602.304,3905.2
602.469,3869.1
602.635,3858.0
602.8,3933.1
602.965,3884.4
603.131,3879.2
603.296,3907.7
603.462,3906.3
603.627,3851.9
603.792,3885.5
603.958,3960.1
604.123,3874.3
604.288,3881.8
604.454,3943.7
604.619,3893.1
604.784,3887.9
604.95,3871.0
605.115,3907.5
605.28,3909.1
605.446,3909.1
605.611,3906.1
605.776,3928.4
605.941,3878.2
606.107,3889.5
606.272,3936.1
606.437,3937.8
606.602,3929.0
606.767,3908.7
606.933,3969.5
607.098,3942.9
607.263,3878.5
607.428,3902.2
607.593,3921.5
607.759,3964.7
607.924,3926.3
608.089,3887.9
608.254,3909.7
608.419,3964.1
608.584,3884.4
608.749,3949.8
608.915,3939.0
609.08,3932.9
609.245,3936.0
609.41,3948.3
609.575,3949.1
609.74,3944.6
609.905,3963.4
610.07,3945.6
610.235,3892.4
610.4,3927.1
610.565,3967.3
610.73,4000.1
610.895,3947.9
611.06,3988.2
611.225,3947.7
611.39,3940.2
611.555,3945.1
611.72,3969.5
611.885,3974.4
612.05,3936.9
612.215,3947.1
612.38,3955.6
612.545,4001.1
612.71,3923.6
612.875,3932.0
613.04,3982.7
613.204,3968.0
613.369,3962.6
613.534,3964.1
613.699,3985.9
613.864,3960.8
614.029,3952.2
614.194,3899.0
614.358,3962.8
614.523,3972.5
614.688,4011.5
614.853,3961.3
615.018,3956.7
615.182,4012.8
615.347,3994.8
615.512,4015.3
615.677,3995.1
615.841,3973.4
616.006,4025.1
616.171,3991.7
616.336,3949.6
616.5,3969.2
616.665,3960.8
616.83,4047.9
616.994,4018.6
617.159,3965.0
617.324,3981.4
617.489,4046.1
617.653,4003.6
617.818,4014.4
617.982,4009.4
618.147,4030.8
618.312,4013.0
618.476,3995.4
618.641,3996.0
618.805,4017.6
618.97,3989.0
619.135,4009.6
619.299,4058.2
619.464,3985.8
619.628,4076.8
619.793,4037.3
619.957,4031.7
620.122,4062.3
620.286,4020.1
620.451,4032.2
620.615,4028.5
620.78,3970.5
620.944,4064.4
621.109,3975.5
621.273,4030.2
621.438,4025.4
621.602,4022.7
621.767,4057.2
621.931,4043.9
622.095,4035.5
622.26,4052.0
622.424,4026.9
622.589,4037.3
622.753,4034.4
622.917,3982.6
623.082,4017.6
623.246,4096.0
623.41,4072.4
623.575,3994.2
623.739,4054.9
623.903,4020.3
624.068,4118.5
624.232,4068.7
624.396,4026.0
624.561,4063.3
624.725,4045.5
624.889,4081.6
625.053,4054.6
625.218,3990.9
625.382,4024.0
625.546,4029.7
625.71,4038.8
625.875,4052.0
626.039,4034.9
626.203,4032.9
626.367,4044.8
626.531,4093.7
626.695,4040.1
626.86,3967.2
627.024,4032.7
627.188,3982.1
627.352,4054.0
627.516,4061.9
627.68,4043.7
627.844,4033.5
628.008,4031.6
628.172,4045.3
628.337,4058.2
628.501,4055.0
628.665,3960.0
628.829,4053.8
628.993,4051.9
629.157,4066.1
629.321,4052.4
629.485,4081.4
629.649,4078.4
629.813,4018.6
629.977,4041.8
630.141,3977.3
630.305,4063.6
630.469,4071.3
630.633,4058.5
630.797,4041.4
630.96,4060.4
631.124,4022.5
631.288,4057.9
631.452,4089.0
631.616,4070.8
631.78,3975.3
631.944,4031.7
632.108,3992.5
632.272,4075.2
632.435,4090.6
632.599,4079.2
632.763,4087.2
632.927,3989.5
633.091,4035.6
633.254,4032.8
633.418,4016.9
633.582,4040.2
633.746,4043.8
633.91,4032.3
634.073,4043.3
634.237,4068.0
634.401,4013.6
634.564,4012.4
634.728,3925.6
634.892,3985.1
635.056,4033.8
635.219,3981.1
635.383,4024.9
635.547,3937.1
635.71,4003.1
635.874,3984.1
636.038,3936.9
636.201,3988.1
636.365,4021.8
636.528,3991.4
636.692,3974.0
636.856,3959.5
637.019,4004.9
637.183,4021.9
637.346,3945.4
637.51,3968.3
637.673,3944.6
637.837,3928.6
638.0,4012.3
638.164,4006.6
638.327,3957.8
638.491,3993.1
638.654,3923.3
638.818,4004.0
638.981,3948.9
639.145,3902.2
639.308,3984.2
639.472,3930.4
639.635,3862.0
639.799,3953.1
639.962,3914.3
640.125,3924.2
640.289,3935.2
640.452,3880.3
640.616,3936.2
640.779,3837.2
640.942,3891.3
641.106,3891.9
641.269,3887.4
641.432,3917.7
641.596,3891.3
641.759,3816.0
641.922,3894.2
642.085,3871.9
642.249,3848.4
642.412,3879.6
642.575,3923.7
642.738,3882.6
642.902,3791.9
643.065,3870.1
643.228,3854.7
643.391,3835.2
643.555,3828.8
643.718,3839.3
643.881,3830.0
644.044,3857.6
644.207,3867.2
644.37,3827.2
644.534,3803.3
644.697,3816.0
644.86,3787.0
645.023,3817.0
645.186,3806.7
645.349,3874.2
645.512,3801.3
645.675,3812.2
645.838,3804.9
646.001,3754.5
646.164,3767.4
646.327,3769.6
646.49,3759.5
646.653,3784.6
646.816,3740.0
646.979,3762.6
647.142,3792.0
647.305,3774.0
647.468,3731.6
647.631,3716.4
647.794,3683.0
647.957,3739.2
648.12,3716.8
648.283,3704.3
648.446,3720.2
648.609,3671.7
648.772,3744.0
648.935,3713.3
649.098,3662.2
649.26,3619.6
649.423,3662.4
649.586,3706.0
649.749,3691.9
649.912,3669.0
650.075,3637.8
650.237,3659.7
650.4,3626.8
650.563,3635.8
650.726,3601.2
650.888,3601.5
651.051,3685.9
651.214,3646.3
651.377,3584.6
651.539,3562.6
651.702,3587.5
651.865,3603.9
652.027,3621.1
652.19,3676.6
652.353,3540.0
652.515,3575.8
652.678,3570.4
652.841,3572.6
653.003,3544.8
653.166,3499.1
653.329,3484.6
653.491,3519.2
653.654,3470.5
653.816,3479.3
653.979,3538.1
654.142,3525.2
654.304,3475.9
654.467,3514.1
654.629,3445.3
654.792,3426.6
654.954,3433.1
655.117,3443.4
655.279,3436.2
655.442,3414.1
655.604,3464.3
655.767,3461.4
655.929,3388.0
656.091,3381.2
656.254,3373.1
656.416,3407.5
656.579,3436.6
656.741,3388.8
656.904,3366.7
657.066,3371.0
657.228,3371.8
657.391,3352.3
657.553,3334.6
657.715,3299.3
657.878,3350.2
658.04,3344.7
658.202,3308.1
658.365,3271.0
658.527,3311.2
658.689,3343.9
658.851,3298.8
659.014,3257.3
659.176,3284.8
659.338,3236.6
659.5,3256.6
659.663,3245.7
659.825,3233.6
659.987,3233.4
660.149,3209.5
660.311,3224.2
660.474,3235.7
660.636,3221.4
660.798,3217.7
660.96,3207.4
661.041,3232.8