File: spectra/VLFR_01-LDPE_bio_Raman_de2a25bb.csv
nm,Intensity
526.547,832.15
526.684,832.0
526.821,832.95
526.958,831.9
527.095,832.8
527.232,832.65
527.368,832.25
527.505,831.8
527.642,832.7
527.779,831.8
527.916,833.05
528.052,832.55
528.189,833.05
528.326,832.45
528.463,832.8
528.599,832.35
528.736,832.1
528.873,832.25
529.009,831.15
529.146,832.05
529.283,833.25
529.419,833.2
529.556,832.65
529.693,832.15
529.829,831.9
529.966,833.0
530.103,832.85
530.239,832.1
530.376,832.4
530.512,832.35
530.649,832.6
530.785,831.45
530.922,832.4
531.059,831.85
531.195,832.9
531.332,832.7
531.468,833.55
531.605,831.9
531.741,832.5
531.878,832.4
532.014,836.2
532.151,843.7
532.287,841.8
532.423,833.55
532.56,831.9
532.696,832.4
532.833,832.5
532.969,832.3
533.106,832.9
533.242,832.5
533.378,832.35
533.515,832.35
533.651,835.1
533.787,844.5
533.924,880.35
534.06,915.25
534.196,923.3
534.333,915.35
534.469,909.9
534.605,908.45
534.742,907.65
534.878,900.65
535.014,895.95
535.15,893.1
535.287,889.1
535.423,886.95
535.559,882.6
535.695,882.65
535.832,878.9
535.968,877.95
536.104,877.6
536.24,873.55
536.376,874.6
536.513,873.1
536.649,870.75
536.785,873.3
536.921,870.65
537.057,870.0
537.193,868.8
537.329,872.0
537.465,869.8
537.602,869.75
537.738,868.5
537.874,869.45
538.01,869.5
538.146,865.95
538.282,867.3
538.418,868.75
538.554,866.3
538.69,867.35
538.826,864.6
538.962,864.4
539.098,863.3
539.234,863.5
539.37,864.2
539.506,862.85
539.642,864.1
539.778,861.3
539.914,857.35
540.05,857.8
540.186,858.9
540.322,858.7
540.458,858.25
540.594,858.3
540.729,856.9
540.865,856.85
541.001,856.05
541.137,856.35
541.273,855.55
541.409,856.9
541.545,856.25
541.68,855.8
541.816,856.0
541.952,854.65
542.088,856.9
542.224,857.2
542.36,856.55
542.495,854.95
542.631,857.05
542.767,855.1
542.903,855.9
543.038,855.25
543.174,856.5
543.31,855.4
543.446,857.05
543.581,855.1
543.717,853.9
543.853,855.1
543.988,855.85
544.124,853.5
544.26,854.1
544.395,854.25
544.531,853.7
544.667,853.9
544.802,854.6
544.938,853.75
545.074,852.65
545.209,851.75
545.345,853.15
545.481,851.85
545.616,852.75
545.752,853.8
545.887,853.9
546.023,853.75
546.158,854.25
546.294,852.3
546.43,852.35
546.565,853.7
546.701,853.1
546.836,853.75
546.972,851.5
547.107,852.5
547.243,851.75
547.378,853.3
547.514,853.8
547.649,852.05
547.785,853.2
547.92,852.4
548.056,852.65
548.191,852.55
548.326,852.5
548.462,852.0
548.597,851.35
548.733,851.45
548.868,850.9
549.004,851.65
549.139,851.35
549.274,850.75
549.41,850.8
549.545,851.85
549.68,850.4
549.816,850.45
549.951,850.6
550.086,850.9
550.222,853.1
550.357,852.2
550.492,852.0
550.628,850.9
550.763,849.9
550.898,851.8
551.034,853.05
551.169,851.25
551.304,851.75
551.439,851.85
551.575,850.9
551.71,852.45
551.845,850.0
551.98,851.0
552.116,850.65
552.251,851.2
552.386,850.95
552.521,852.2
552.656,851.7
552.792,851.55
552.927,851.5
553.062,852.3
553.197,854.8
553.332,854.7
553.467,855.6
553.603,855.4
553.738,855.7
553.873,854.85
554.008,854.0
554.143,856.35
554.278,857.25
554.413,854.8
554.548,854.85
554.683,854.75
554.819,855.65
554.954,856.45
555.089,858.05
555.224,856.4
555.359,856.3
555.494,858.2
555.629,857.4
555.764,858.9
555.899,859.8
556.034,860.7
556.169,859.45
556.304,858.7
556.439,860.85
556.574,861.2
556.709,863.0
556.844,862.15
556.979,862.65
557.114,864.4
557.249,863.9
557.384,864.5
557.519,865.15
557.653,866.9
557.788,866.15
557.923,867.55
558.058,865.65
558.193,868.75
558.328,868.85
558.463,870.0
558.598,867.9
558.733,870.1
558.867,870.2
559.002,867.2
559.137,866.75
559.272,863.8
559.407,864.6
559.542,866.45
559.677,864.3
559.811,864.15
559.946,863.25
560.081,865.1
560.216,864.45
560.351,863.15
560.485,862.75
560.62,863.65
560.755,862.55
560.89,861.2
561.024,864.0
561.159,862.9
561.294,864.3
561.429,862.65
561.563,864.75
561.698,863.95
561.833,864.85
561.967,864.35
562.102,866.15
562.237,868.0
562.371,867.1
562.506,868.45
562.641,870.35
562.775,869.8
562.91,871.5
563.045,872.9
563.179,872.8
563.314,873.9
563.449,876.35
563.583,880.05
563.718,886.85
563.853,903.0
563.987,949.95
564.122,976.9
564.256,935.5
564.391,900.85
564.525,896.0
564.66,896.0
564.795,894.95
564.929,895.5
565.064,889.45
565.198,884.4
565.333,884.45
565.467,882.75
565.602,884.9
565.736,888.4
565.871,896.2
566.005,926.55
566.14,976.5
566.274,971.45
566.409,922.45
566.543,895.15
566.678,885.5
566.812,882.45
566.947,880.0
567.081,879.9
567.216,880.0
567.35,880.3
567.484,885.4
567.619,884.3
567.753,878.0
567.888,877.2
568.022,876.3
568.156,875.45
568.291,878.25
568.425,876.4
568.56,874.5
568.694,877.2
568.828,875.95
568.963,877.1
569.097,877.8
569.231,879.0
569.366,880.2
569.5,881.8
569.634,878.65
569.769,880.85
569.903,879.7
570.037,881.1
570.172,884.3
570.306,882.75
570.44,886.4
570.575,887.35
570.709,890.15
570.843,892.0
570.977,895.5
571.112,898.0
571.246,906.15
571.38,936.35
571.514,1037.15
571.649,1054.8
571.783,970.6
571.917,937.05
572.051,926.35
572.185,919.65
572.32,910.25
572.454,905.9
572.588,904.35
572.722,900.9
572.856,898.35
572.991,898.35
573.125,895.35
573.259,900.45
573.393,898.75
573.527,897.8
573.661,900.65
573.795,904.0
573.93,907.4
574.064,913.55
574.198,909.8
574.332,906.15
574.466,906.8
574.6,904.2
574.734,903.45
574.868,904.4
575.002,905.85
575.136,910.2
575.271,914.95
575.405,928.25
575.539,960.75
575.673,976.25
575.807,958.85
575.941,967.95
576.075,993.15
576.209,1032.15
576.343,1064.1
576.477,1045.45
576.611,1019.2
576.745,1015.0
576.879,1014.35
577.013,1014.0
577.147,1009.6
577.281,994.85
577.415,978.35
577.549,963.7
577.683,956.65
577.817,953.0
577.951,952.6
578.085,954.05
578.218,951.55
578.352,955.8
578.486,955.15
578.62,959.8
578.754,960.3
578.888,963.45
579.022,965.1
579.156,968.95
579.29,968.65
579.424,975.15
579.557,975.05
579.691,976.7
579.825,980.55
579.959,983.85
580.093,984.05
580.227,985.3
580.361,987.6
580.494,990.5
580.628,994.25
580.762,998.8
580.896,1000.0
581.03,999.9
581.164,999.85
581.297,1005.15
581.431,1008.45
581.565,1010.35
581.699,1013.2
581.832,1014.95
581.966,1019.35
582.1,1019.35
582.234,1018.85
582.368,1026.35
582.501,1024.9
582.635,1031.65
582.769,1029.8
582.903,1034.95
583.036,1036.1
583.17,1038.55
583.304,1041.35
583.437,1044.35
583.571,1049.05
583.705,1049.4
583.838,1047.9
583.972,1052.55
584.106,1054.15
584.24,1053.35
584.373,1051.95
584.507,1060.9
584.641,1061.8
584.774,1061.15
584.908,1062.55
585.041,1065.45
585.175,1066.55
585.309,1067.85
585.442,1073.6
585.576,1071.8
585.71,1079.15
585.843,1080.65
585.977,1084.05
586.11,1084.4
586.244,1086.65
586.378,1092.55
586.511,1089.95
586.645,1098.6
586.778,1101.95
586.912,1099.15
587.045,1106.6
587.179,1107.65
587.313,1112.5
587.446,1115.6
587.58,1113.65
587.713,1118.85
587.847,1116.05
587.98,1122.45
588.114,1121.1
588.247,1130.6
588.381,1129.65
588.514,1132.2
588.648,1133.9
588.781,1135.6
588.915,1141.05
589.048,1143.6
589.182,1142.7
589.315,1149.65
589.449,1151.35
589.582,1153.7
589.715,1156.0
589.849,1160.9
589.982,1163.85
590.116,1169.3
590.249,1166.8
590.383,1162.7
590.516,1173.5
590.649,1176.8
590.783,1177.6
590.916,1184.75
591.05,1176.65
591.183,1181.1
591.316,1188.95
591.45,1187.5
591.583,1191.15
591.717,1190.35
591.85,1189.1
591.983,1191.95
592.117,1192.8
592.25,1188.3
592.383,1199.35
592.517,1193.9
592.65,1197.75
592.783,1202.3
592.917,1195.2
593.05,1196.85
593.183,1200.5
593.317,1201.65
593.45,1197.4
593.583,1202.25
593.717,1201.1
593.85,1202.8
593.983,1201.5
594.116,1209.45
594.25,1208.2
594.383,1210.65
594.516,1217.25
594.649,1210.9
594.783,1213.05
594.916,1215.0
595.049,1215.05
595.182,1214.35
595.316,1220.45
595.449,1220.7
595.582,1218.7
595.715,1222.35
595.849,1226.15
595.982,1228.0
596.115,1232.05
596.248,1226.7
596.381,1235.05
596.514,1233.9
596.648,1234.15
596.781,1231.4
596.914,1236.75
597.047,1237.3
597.18,1241.0
597.313,1247.0
597.447,1247.65
597.58,1249.25
597.713,1251.9
597.846,1248.3
597.979,1256.35
598.112,1259.25
598.245,1262.15
598.379,1264.85
598.512,1267.6
598.645,1270.25
598.778,1269.35
598.911,1273.75
599.044,1277.8
599.177,1274.9
599.31,1277.05
599.443,1283.45
599.576,1281.65
599.709,1279.65
599.842,1282.6
599.975,1281.7
600.109,1283.6
600.242,1280.05
600.375,1277.5
600.508,1280.75
600.641,1281.85
600.774,1281.15
600.907,1278.2
601.04,1280.25
601.173,1278.3
601.306,1277.35
601.439,1275.9
601.572,1273.6
601.705,1277.65
601.838,1270.65
601.971,1273.95
602.104,1272.1
602.237,1265.75
602.37,1266.8
602.503,1262.35
602.636,1263.7
602.768,1261.75
602.901,1255.45
603.034,1250.8
603.167,1251.25
603.3,1244.75
603.433,1244.1
603.566,1240.6
603.699,1236.05
603.832,1235.35
603.965,1236.1
604.098,1230.5
604.231,1217.55
604.364,1219.5
604.496,1209.4
604.629,1209.1
604.762,1210.75
604.895,1198.3
605.028,1196.2
605.161,1194.65
605.294,1189.25
605.427,1180.65
605.559,1177.95
605.692,1171.1
605.825,1175.75
605.958,1162.9
606.091,1164.05
606.224,1156.8
606.356,1154.05
606.489,1149.75
606.622,1148.7
606.755,1141.55
606.888,1141.25
607.02,1138.4
607.153,1133.75
607.286,1129.45
607.419,1128.45
607.552,1128.1
607.684,1127.75
607.817,1117.55
607.95,1115.0
608.083,1115.35
608.215,1110.95
608.348,1110.45
608.481,1108.55
608.614,1108.25
608.746,1104.05
608.879,1102.95
609.012,1100.0
609.145,1101.25
609.277,1093.0
609.41,1092.45
609.543,1088.5
609.675,1088.05
609.808,1084.35
609.941,1084.1
610.074,1081.75
610.206,1078.4
610.339,1079.75
610.472,1077.85
610.604,1072.45
610.737,1073.85
610.87,1071.8
611.002,1067.3
611.135,1069.0
611.268,1069.3
611.4,1063.15
611.533,1066.95
611.666,1061.9
611.798,1065.75
611.931,1063.1
612.063,1055.85
612.196,1060.4
612.329,1058.75
612.461,1053.85
612.594,1056.8
612.727,1051.45
612.859,1051.6
612.992,1055.65
613.124,1047.75
613.257,1047.4
613.39,1049.8
613.522,1048.1
613.655,1045.15
613.787,1042.65
613.92,1042.95
614.052,1039.55
614.185,1040.4
614.317,1037.85
614.45,1033.8
614.583,1035.55
614.715,1037.3
614.848,1033.1
614.98,1032.6
615.113,1032.3
615.245,1028.65
615.378,1030.8
615.51,1026.6
615.643,1025.05
615.775,1026.1
615.908,1023.25
616.04,1021.75
616.173,1019.1
616.305,1020.85
616.438,1020.05
616.57,1020.45
616.703,1020.65
616.835,1018.35
616.968,1020.5
617.1,1019.15
617.233,1018.55
617.365,1016.75
617.498,1015.5
617.63,1016.75
617.762,1015.5
617.895,1012.0
618.027,1014.7
618.16,1015.0
618.292,1015.5
618.425,1009.9
618.557,1012.5
618.689,1012.35
618.822,1011.55
618.954,1010.35
619.087,1010.55
619.219,1009.6
619.351,1011.3
619.484,1007.5
619.616,1014.5
619.749,1007.8
619.881,1008.85
620.013,1006.9
620.146,1005.65
620.278,1002.25
620.41,1002.3
620.543,1004.2
620.675,1007.3
620.808,1008.35
620.94,1003.55
621.072,1006.95
621.205,1007.15
621.337,1009.55
621.469,1007.85
621.602,1014.35
621.734,1020.0
621.866,1018.9
621.998,1026.85
622.131,1031.2
622.263,1037.65
622.395,1034.25
622.528,1033.7
622.66,1028.45
622.792,1020.5
622.925,1014.05
623.057,1011.2
623.189,1002.85
623.321,1001.1
623.454,999.15
623.586,998.7
623.718,995.15
623.85,994.15
623.983,994.35
624.115,995.15
624.247,995.1
624.379,993.25
624.512,995.3
624.644,994.35
624.776,997.65
624.908,995.7
625.041,999.0
625.173,996.3
625.305,995.9
625.437,996.7
625.569,999.75
625.702,999.85
625.834,1002.6
625.966,1007.3
626.098,1011.0
626.23,1017.65
626.363,1029.8
626.495,1046.4
626.627,1076.8
626.759,1144.65
626.891,1249.1
627.024,1407.65
627.156,1578.95
627.288,1644.9
627.42,1592.3
627.552,1509.6
627.684,1444.45
627.816,1397.15
627.949,1355.35
628.081,1351.8
628.213,1370.55
628.345,1451.05
628.477,1636.2
628.609,1790.85
628.741,1666.05
628.874,1520.3
629.006,1469.5
629.138,1435.7
629.27,1415.3
629.402,1384.9
629.534,1354.6
629.666,1322.65
629.798,1298.2
629.93,1277.15
630.062,1261.55
630.195,1255.75
630.327,1252.25
630.459,1242.05
630.591,1229.8
630.723,1213.95
630.855,1184.8
630.987,1142.75
631.119,1100.85
631.251,1070.0
631.383,1058.95
631.515,1047.1
631.647,1038.65
631.779,1036.05
631.911,1032.6
632.043,1021.8
632.175,1015.9
632.307,1010.45
632.439,1008.9
632.571,1004.4
632.703,1001.65
632.835,996.95
632.967,999.25
633.099,994.95
633.231,998.35
633.363,994.75
633.495,999.75
633.627,997.65
633.759,994.15
633.891,998.3
634.023,997.65
634.155,995.05
634.287,995.6
634.419,996.9
634.551,992.0
634.683,994.3
634.815,994.15
634.947,990.55
635.079,993.85
635.211,993.05
635.343,995.0
635.475,993.0
635.607,998.5
635.739,996.0
635.871,995.6
636.003,995.4
636.135,993.25
636.267,995.7
636.398,995.75
636.53,997.15
636.662,996.75
636.794,996.15
636.926,996.05
637.058,996.2
637.19,995.7
637.322,996.15
637.454,995.6
637.586,993.55
637.717,992.8
637.849,993.85
637.981,997.9
638.113,996.35
638.245,990.9
638.377,992.55
638.509,997.85
638.641,995.0
638.773,997.35
638.904,995.05
639.036,998.25
639.168,998.45
639.3,1001.9
639.432,997.6
639.564,999.0
639.695,1001.4
639.827,1000.65
639.959,998.85
640.091,1001.6
640.223,997.45
640.355,999.2
640.486,1000.9
640.618,1001.0
640.75,1000.9
640.882,1006.5
641.014,1001.45
641.146,1004.5
641.277,1005.5
641.409,1004.0
641.541,1007.5
641.673,1007.95
641.805,1002.2
641.936,1006.9
642.068,1009.35
642.2,1005.55
642.332,1006.2
642.464,1007.65
642.595,1007.15
642.727,1007.95
642.859,1005.95
642.991,1006.7
643.122,1009.55
643.254,1010.05
643.386,1009.9
643.518,1011.1
643.649,1010.65
643.781,1006.8
643.913,1012.6
644.045,1007.2
644.176,1006.45
644.308,1007.25
644.44,1007.1
644.572,1008.05
644.703,1010.3
644.835,1011.5
644.967,1007.55
645.099,1009.7
645.23,1006.55
645.362,1008.75
645.494,1009.5
645.625,1008.6
645.757,1009.75
645.889,1008.6
646.021,1007.15
646.152,1009.0
646.284,1007.0
646.416,1008.2
646.547,1007.55
646.679,1007.0
646.811,1009.8
646.942,1008.45
647.074,1007.85
647.206,1009.65
647.337,1008.1
647.469,1012.2
647.601,1010.6
647.732,1006.55
647.864,1009.45
647.996,1007.8
648.127,1005.85
648.259,1009.2
648.391,1011.55
648.522,1008.3
648.654,1007.5
648.786,1007.75
648.917,1008.35
649.049,1006.75
649.181,1005.05
649.312,1011.05
649.444,1005.7
649.576,1004.3
649.707,1009.0
649.839,1008.75
649.971,1007.45
650.102,1006.65
650.234,1006.55
650.365,1010.4
650.497,1006.2
650.629,1010.35
650.76,1010.6
650.892,1007.15
651.023,1009.25
651.155,1010.15
651.287,1011.3
651.418,1010.65
651.55,1011.85
651.682,1010.7
651.813,1009.4
651.945,1011.0
652.076,1009.7
652.208,1009.65
652.339,1012.75
652.471,1009.65
652.603,1011.15
652.734,1010.25
652.866,1008.25
652.997,1013.55
653.129,1010.45
653.261,1009.55
653.392,1010.65
653.524,1012.45
653.655,1011.5
653.787,1007.55
653.918,1009.8
654.05,1014.15
654.181,1009.85
654.313,1011.35
654.445,1009.15
654.576,1006.15
654.708,1010.85
654.839,1007.85
654.971,1008.65
655.102,1009.1
655.234,1005.45
655.365,1007.65
655.497,1005.2
655.628,1010.8
655.76,1003.75
655.892,1002.2
656.023,1004.0
656.155,1004.3
656.286,1004.25
656.418,1000.9
656.549,1002.2
656.681,1002.25
656.812,999.5
656.944,998.5
657.075,1000.65
657.207,1001.1
657.338,997.35
657.47,996.9
657.601,996.3
657.733,995.8
657.864,991.6
657.996,993.5
658.127,994.15
658.259,992.2
658.39,990.8
658.522,988.0
658.653,989.2
658.785,984.7
658.916,989.15
659.048,984.0
659.179,984.5
659.311,984.15
659.442,980.3
659.574,976.45
659.705,978.75
659.836,978.9
659.968,980.15
660.099,972.8
660.231,975.7
660.362,972.05
660.494,970.75
660.625,969.7
660.757,969.4
660.888,964.1
661.02,965.9
661.151,959.9
661.283,962.5
661.414,958.9
661.545,959.05
661.677,956.65
661.808,954.85
661.94,952.75
662.071,955.05
662.203,951.75
662.334,950.95
662.466,951.3
662.597,951.0
662.728,947.25
662.86,946.1
662.991,946.4
663.123,942.25