File: spectra/VLFR_01-LDPE_bio_Raman_19c45736.csv
nm,Intensity
528.626,1864.5
528.795,1862.6
528.963,1866.1
529.132,1865.8
529.3,1865.9
529.469,1866.1
529.637,1863.0
529.806,1864.9
529.974,1864.2
530.143,1865.7
530.311,1865.6
530.48,1864.7
530.648,1864.8
530.816,1866.0
530.985,1867.6
531.153,1867.5
531.322,1870.4
531.49,1875.8
531.658,1908.0
531.827,2490.8
531.995,4610.9
532.164,4360.9
532.332,2223.5
532.5,1872.6
532.669,1866.8
532.837,1868.0
533.006,1866.7
533.174,1865.9
533.342,1867.2
533.511,1885.0
533.679,2000.3
533.847,2232.9
534.016,2401.6
534.184,2450.9
534.352,2408.6
534.521,2413.0
534.689,2440.9
534.857,2403.9
535.025,2396.2
535.194,2384.9
535.362,2379.7
535.53,2347.9
535.699,2361.2
535.867,2323.6
536.035,2303.7
536.203,2274.2
536.372,2288.7
536.54,2283.3
536.708,2278.5
536.876,2270.2
537.044,2266.9
537.213,2269.9
537.381,2289.1
537.549,2288.5
537.717,2304.1
537.885,2285.0
538.054,2289.0
538.222,2267.4
538.39,2279.6
538.558,2283.4
538.726,2271.7
538.894,2274.2
539.063,2262.1
539.231,2237.0
539.399,2259.6
539.567,2251.6
539.735,2224.0
539.903,2240.3
540.071,2262.4
540.239,2246.2
540.408,2221.7
540.576,2226.4
540.744,2232.4
540.912,2232.9
541.08,2224.5
541.248,2247.2
541.416,2255.2
541.584,2241.2
541.752,2241.3
541.92,2242.4
542.088,2255.7
542.256,2228.6
542.424,2232.5
542.592,2257.5
542.76,2263.8
542.928,2226.8
543.096,2244.6
543.264,2227.0
543.432,2236.0
543.6,2224.4
543.768,2264.2
543.936,2277.9
544.104,2258.3
544.272,2245.9
544.44,2251.7
544.608,2221.2
544.776,2236.7
544.944,2254.2
545.112,2252.5
545.28,2247.9
545.448,2230.2
545.616,2232.7
545.784,2257.9
545.951,2255.5
546.119,2249.1
546.287,2240.8
546.455,2269.0
546.623,2245.2
546.791,2267.4
546.959,2258.3
547.127,2248.3
547.294,2258.5
547.462,2218.2
547.63,2234.3
547.798,2232.9
547.966,2252.1
548.134,2240.3
548.301,2272.9
548.469,2271.9
548.637,2255.8
548.805,2261.9
548.972,2265.0
549.14,2272.8
549.308,2271.8
549.476,2257.5
549.644,2251.1
549.811,2243.8
549.979,2264.1
550.147,2252.0
550.315,2254.5
550.482,2251.2
550.65,2263.0
550.818,2274.5
550.985,2255.5
551.153,2239.0
551.321,2271.0
551.488,2271.8
551.656,2280.6
551.824,2287.4
551.991,2280.0
552.159,2284.4
552.327,2265.7
552.494,2271.7
552.662,2261.4
552.83,2255.4
552.997,2269.5
553.165,2290.3
553.333,2300.1
553.5,2305.2
553.668,2312.8
553.835,2287.9
554.003,2292.2
554.171,2312.6
554.338,2293.4
554.506,2315.1
554.673,2311.1
554.841,2321.3
555.008,2335.2
555.176,2334.0
555.343,2321.0
555.511,2317.3
555.679,2315.8
555.846,2327.2
556.014,2342.5
556.181,2329.0
556.349,2332.4
556.516,2348.1
556.684,2343.4
556.851,2352.8
557.018,2352.6
557.186,2354.0
557.353,2352.7
557.521,2353.7
557.688,2381.2
557.856,2373.2
558.023,2385.7
558.191,2374.6
558.358,2384.6
558.525,2400.0
558.693,2352.7
558.86,2335.9
559.028,2366.3
559.195,2365.6
559.362,2359.9
559.53,2331.4
559.697,2376.7
559.864,2340.7
560.032,2347.5
560.199,2332.1
560.366,2357.8
560.534,2365.7
560.701,2391.9
560.868,2386.6
561.036,2378.5
561.203,2385.4
561.37,2369.4
561.538,2344.2
561.705,2361.7
561.872,2410.4
562.039,2403.4
562.207,2424.4
562.374,2400.4
562.541,2404.5
562.708,2451.0
562.876,2460.0
563.043,2454.9
563.21,2449.8
563.377,2469.0
563.545,2480.5
563.712,2586.2
563.879,2772.9
564.046,2933.9
564.213,2801.7
564.38,2611.5
564.548,2604.5
564.715,2604.8
564.882,2566.7
565.049,2529.9
565.216,2531.4
565.383,2509.6
565.551,2527.7
565.718,2563.0
565.885,2660.6
566.052,2861.4
566.219,2846.4
566.386,2723.7
566.553,2589.2
566.72,2539.2
566.887,2536.6
567.054,2542.4
567.221,2567.9
567.388,2604.0
567.555,2602.6
567.722,2565.1
567.889,2556.9
568.057,2528.0
568.224,2537.4
568.391,2538.7
568.558,2556.1
568.725,2538.8
568.892,2579.8
569.058,2550.5
569.225,2567.9
569.392,2592.6
569.559,2603.5
569.726,2589.5
569.893,2634.9
570.06,2613.5
570.227,2649.2
570.394,2674.6
570.561,2660.7
570.728,2695.6
570.895,2706.7
571.062,2763.3
571.229,2917.2
571.395,3307.6
571.562,3572.5
571.729,3317.4
571.896,3042.1
572.063,3024.8
572.23,2970.1
572.397,2911.1
572.563,2918.3
572.73,2872.6
572.897,2891.1
573.064,2881.5
573.231,2913.6
573.397,2947.1
573.564,2956.5
573.731,2993.0
573.898,3009.7
574.064,3057.3
574.231,3052.4
574.398,3039.1
574.565,3044.0
574.731,3054.1
574.898,3145.7
575.065,3146.2
575.232,3239.1
575.398,3396.4
575.565,3482.3
575.732,3558.2
575.898,3765.1
576.065,4096.9
576.232,4434.1
576.398,4452.9
576.565,4310.8
576.732,4256.1
576.898,4281.0
577.065,4271.8
577.232,4191.0
577.398,4129.0
577.565,4004.8
577.731,3929.5
577.898,4015.0
578.065,4107.7
578.231,4081.0
578.398,4122.0
578.564,4196.0
578.731,4270.7
578.897,4305.5
579.064,4399.0
579.23,4513.5
579.397,4516.2
579.563,4671.1
579.73,4717.6
579.896,4855.8
580.063,4931.7
580.229,4967.5
580.396,5064.2
580.562,5117.1
580.729,5193.4
580.895,5191.6
581.062,5309.7
581.228,5527.1
581.395,5464.6
581.561,5607.1
581.728,5649.3
581.894,5644.1
582.06,5798.6
582.227,5758.7
582.393,5977.9
582.56,6001.5
582.726,5983.5
582.892,6037.3
583.059,6168.4
583.225,6187.8
583.391,6450.9
583.558,6372.8
583.724,6291.7
583.89,6483.0
584.057,6432.0
584.223,6480.2
584.389,6636.4
584.556,6590.5
584.722,6685.3
584.888,6706.3
585.054,6638.1
585.221,6815.5
585.387,6902.4
585.553,6716.9
585.719,6803.3
585.886,7145.5
586.052,7070.5
586.218,6919.8
586.384,7157.7
586.55,7175.4
586.717,7269.1
586.883,7464.3
587.049,7428.6
587.215,7543.2
587.381,7489.3
587.548,7575.1
587.714,7597.6
587.88,7862.1
588.046,7890.3
588.212,7996.3
588.378,7886.8
588.544,7978.0
588.71,8171.6
588.876,8166.0
589.043,8157.1
589.209,8244.5
589.375,8306.6
589.541,8295.8
589.707,8363.5
589.873,8490.9
590.039,8730.9
590.205,8454.5
590.371,8620.1
590.537,8801.3
590.703,8887.7
590.869,8995.1
591.035,9016.5
591.201,9024.4
591.367,9198.1
591.533,9023.8
591.699,9169.4
591.865,9138.4
592.031,9220.1
592.197,9350.3
592.363,9335.4
592.529,9304.7
592.694,9308.2
592.86,9340.0
593.026,9605.3
593.192,9326.2
593.358,9313.5
593.524,9425.3
593.69,9448.7
593.856,9411.4
594.021,9427.0
594.187,9365.7
594.353,9334.3
594.519,9509.2
594.685,9737.1
594.851,9465.5
595.016,9661.2
595.182,9803.9
595.348,9606.8
595.514,9862.5
595.68,9837.7
595.845,9937.0
596.011,9869.2
596.177,9947.3
596.342,9953.6
596.508,10044.3
596.674,10090.5
596.84,10142.5
597.005,9947.8
597.171,10184.0
597.337,10305.5
597.502,10234.8
597.668,10418.3
597.834,10296.9
597.999,10406.4
598.165,10540.9
598.331,10526.8
598.496,10551.6
598.662,10487.6
598.828,10714.9
598.993,10769.0
599.159,10789.0
599.324,10783.3
599.49,10795.1
599.656,10884.5
599.821,11054.3
599.987,11032.4
600.152,10943.6
600.318,10902.9
600.483,10850.7
600.649,11103.0
600.814,11219.1
600.98,10993.7
601.145,11008.0
601.311,10940.9
601.476,10902.4
601.642,10939.9
601.807,10981.9
601.973,10931.8
602.138,10694.2
602.304,10751.6
602.469,10561.7
602.635,10695.8
602.8,10775.5
602.965,10598.6
603.131,10334.7
603.296,10466.2
603.462,10241.6
603.627,10258.5
603.792,10320.2
603.958,10067.0
604.123,9919.0
604.288,9744.3
604.454,9818.9
604.619,9718.6
604.784,9574.3
604.95,9367.0
605.115,9270.2
605.28,9423.8
605.446,9205.7
605.611,8997.5
605.776,8970.0
605.941,8994.1
606.107,8926.8
606.272,8634.7
606.437,8566.6
606.602,8620.5
606.767,8578.3
606.933,8474.9
607.098,8239.2
607.263,8391.1
607.428,8170.1
607.593,8141.3
607.759,7978.7
607.924,7908.5
608.089,7743.2
608.254,7753.7
608.419,7642.2
608.584,7623.2
608.749,7564.3
608.915,7546.0
609.08,7492.9
609.245,7330.5
609.41,7288.7
609.575,7283.6
609.74,7171.8
609.905,7333.6
610.07,7171.6
610.235,7024.0
610.4,7085.1
610.565,7053.6
610.73,6901.2
610.895,6915.9
611.06,6876.6
611.225,6846.8
611.39,6878.1
611.555,6768.3
611.72,6695.5
611.885,6571.2
612.05,6583.3
612.215,6421.0
612.38,6583.7
612.545,6524.0
612.71,6577.5
612.875,6296.1
613.04,6284.9
613.204,6470.6
613.369,6267.7
613.534,6260.3
613.699,6122.3
613.864,6148.0
614.029,6214.5
614.194,6159.2
614.358,6087.5
614.523,6007.1
614.688,5994.7
614.853,6001.2
615.018,5890.6
615.182,6003.2
615.347,5950.7
615.512,5806.4
615.677,5818.7
615.841,5750.1
616.006,5866.2
616.171,5682.1
616.336,5739.1
616.5,5702.1
616.665,5652.7
616.83,5651.3
616.994,5558.2
617.159,5621.4
617.324,5632.8
617.489,5616.3
617.653,5499.9
617.818,5602.7
617.982,5466.7
618.147,5525.4
618.312,5464.8
618.476,5564.6
618.641,5303.4
618.805,5404.4
618.97,5420.8
619.135,5354.0
619.299,5445.2
619.464,5393.6
619.628,5364.3
619.793,5440.8
619.957,5411.2
620.122,5269.6
620.286,5214.5
620.451,5284.9
620.615,5324.2
620.78,5429.6
620.944,5315.9
621.109,5278.6
621.273,5277.9
621.438,5324.7
621.602,5282.5
621.767,5343.4
621.931,5508.5
622.095,5538.7
622.26,5506.6
622.424,5452.8
622.589,5561.3
622.753,5446.2
622.917,5198.5
623.082,5275.4
623.246,5146.0
623.41,5174.7
623.575,5171.0
623.739,5106.9
623.903,5130.4
624.068,5162.1
624.232,5140.8
624.396,5153.7
624.561,5005.2
624.725,5156.9
624.889,5188.3
625.053,5120.6
625.218,5173.6
625.382,5135.0
625.546,5247.9
625.71,5187.1
625.875,5185.7
626.039,5375.8
626.203,5502.3
626.367,5583.3
626.531,5827.8
626.695,6840.9
626.86,8459.4
627.024,9954.5
627.188,10959.8
627.352,10881.9
627.516,9911.9
627.68,9024.3
627.844,8727.4
628.008,8557.1
628.172,9117.5
628.337,10730.6
628.501,11827.1
628.665,11216.8
628.829,9847.4
628.993,9114.0
629.157,8827.4
629.321,8355.6
629.485,8268.6
629.649,7830.7
629.813,7719.3
629.977,7515.8
630.141,7448.6
630.305,7344.6
630.469,7204.9
630.633,7015.4
630.797,6693.2
630.96,6360.3
631.124,6064.9
631.288,5898.4
631.452,5732.8
631.616,5643.9
631.78,5500.1
631.944,5598.0
632.108,5547.4
632.272,5611.0
632.435,5493.3
632.599,5518.6
632.763,5531.3
632.927,5473.7
633.091,5396.4
633.254,5479.9
633.418,5545.7
633.582,5499.7
633.746,5537.2
633.91,5511.3
634.073,5478.9
634.237,5603.1
634.401,5436.3
634.564,5542.4
634.728,5508.8
634.892,5655.3
635.056,5450.1
635.219,5442.7
635.383,5498.9
635.547,5447.6
635.71,5484.1
635.874,5475.9
636.038,5521.2
636.201,5599.9
636.365,5602.3
636.528,5552.5
636.692,5516.6
636.856,5417.0
637.019,5474.3
637.183,5733.9
637.346,5515.0
637.51,5525.7
637.673,5424.1
637.837,5604.1
638.0,5698.2
638.164,5385.3
638.327,5584.7
638.491,5525.7
638.654,5650.0
638.818,5560.3
638.981,5539.5
639.145,5468.8
639.308,5566.6
639.472,5554.9
639.635,5603.5
639.799,5615.2
639.962,5532.4
640.125,5530.6
640.289,5681.3
640.452,5554.7
640.616,5594.8
640.779,5652.6
640.942,5457.9
641.106,5655.3
641.269,5626.4
641.432,5660.7
641.596,5575.0
641.759,5653.4
641.922,5653.0
642.085,5644.8
642.249,5607.0
642.412,5622.3
642.575,5771.4
642.738,5626.4
642.902,5725.0
643.065,5458.0
643.228,5748.0
643.391,5618.4
643.555,5666.9
643.718,5648.1
643.881,5716.3
644.044,5628.4
644.207,5564.9
644.37,5681.9
644.534,5702.2
644.697,5599.4
644.86,5544.4
645.023,5607.3
645.186,5753.1
645.349,5589.0
645.512,5651.1
645.675,5585.9
645.838,5628.1
646.001,5590.2
646.164,5545.6
646.327,5431.6
646.49,5599.8
646.653,5559.3
646.816,5565.3
646.979,5457.3
647.142,5483.8
647.305,5553.1
647.468,5528.6
647.631,5420.7
647.794,5540.9
647.957,5340.6
648.12,5444.6
648.283,5325.9
648.446,5391.4
648.609,5378.5
648.772,5362.8
648.935,5425.6
649.098,5503.6
649.26,5283.2
649.423,5234.5
649.586,5303.4
649.749,5306.3
649.912,5313.1
650.075,5293.5
650.237,5331.5
650.4,5349.3
650.563,5287.8
650.726,5228.7
650.888,5202.9
651.051,5316.1
651.214,5193.9
651.377,5193.1
651.539,5214.2
651.702,5214.7
651.865,5253.1
652.027,5106.0
652.19,5173.4
652.353,5181.9
652.515,5162.8
652.678,5109.6
652.841,5108.0
653.003,5199.6
653.166,5155.5
653.329,4970.0
653.491,4962.7
653.654,5040.2
653.816,4999.9
653.979,5024.7
654.142,4959.4
654.304,4916.4
654.467,4969.4
654.629,4923.1
654.792,4896.3
654.954,4909.2
655.117,4895.6
655.279,4913.6
655.442,4787.5
655.604,4795.0
655.767,4791.0
655.929,4872.4
656.091,4717.0
656.254,4784.2
656.416,4724.8
656.579,4694.3
656.741,4677.7
656.904,4651.8
657.066,4699.8
657.228,4661.0
657.391,4629.6
657.553,4530.5
657.715,4526.5
657.878,4478.7
658.04,4431.3
658.202,4389.6
658.365,4346.4
658.527,4438.0
658.689,4399.1
658.851,4275.2
659.014,4298.4
659.176,4264.9
659.338,4264.5
659.5,4178.4
659.663,4250.5
659.825,4168.1
659.987,4129.8
660.149,4034.9
660.311,4051.1
660.474,4074.9
660.636,4102.4
660.798,3985.4
660.96,3951.0
661.041,4028.2