File: spectra/VLFR_02-HDPE_bio_Raman_e51c0f41.csv
nm,Intensity
526.494,835.0
526.631,833.8
526.768,835.6
526.904,835.2
527.041,834.4
527.178,834.5
527.315,833.4
527.451,834.2
527.588,834.9
527.725,834.4
527.862,834.4
527.998,834.2
528.135,835.3
528.272,833.0
528.409,835.9
528.545,834.2
528.682,834.2
528.819,835.9
528.955,834.4
529.092,835.0
529.229,833.8
529.365,835.7
529.502,833.9
529.639,834.9
529.775,834.9
529.912,836.5
530.048,835.1
530.185,835.4
530.321,833.0
530.458,834.1
530.595,833.9
530.731,833.5
530.868,834.7
531.004,833.9
531.141,835.5
531.277,834.3
531.414,834.4
531.55,835.0
531.687,832.0
531.823,835.1
531.96,847.2
532.096,934.7
532.233,964.2
532.369,861.3
532.506,836.9
532.642,835.1
532.778,836.2
532.915,834.0
533.051,834.2
533.188,834.4
533.324,835.3
533.46,834.2
533.597,835.1
533.733,837.1
533.869,850.9
534.006,867.4
534.142,878.8
534.278,877.4
534.415,878.1
534.551,880.1
534.687,879.7
534.824,879.7
534.96,881.1
535.096,878.9
535.232,876.4
535.369,872.5
535.505,866.6
535.641,862.4
535.777,859.1
535.914,859.2
536.05,857.7
536.186,856.5
536.322,855.1
536.458,856.3
536.595,854.6
536.731,854.5
536.867,852.9
537.003,853.8
537.139,853.2
537.275,854.6
537.411,852.7
537.548,853.2
537.684,851.4
537.82,854.4
537.956,852.9
538.092,852.3
538.228,853.5
538.364,851.5
538.5,851.0
538.636,851.6
538.772,850.2
538.908,851.3
539.044,850.7
539.18,850.1
539.316,846.4
539.452,847.9
539.588,849.8
539.724,849.2
539.86,847.8
539.996,848.7
540.132,849.0
540.268,851.1
540.404,848.4
540.54,847.9
540.676,849.0
540.812,849.6
540.948,846.3
541.084,848.5
541.22,848.2
541.355,847.7
541.491,846.9
541.627,849.1
541.763,847.3
541.899,850.0
542.035,849.9
542.171,849.0
542.306,846.7
542.442,849.8
542.578,849.2
542.714,850.5
542.85,847.3
542.985,848.5
543.121,848.7
543.257,847.5
543.393,846.8
543.529,847.8
543.664,847.6
543.8,847.5
543.936,848.9
544.072,847.9
544.207,849.6
544.343,847.4
544.479,847.0
544.614,847.6
544.75,849.4
544.886,848.0
545.021,849.9
545.157,849.5
545.293,847.3
545.428,848.3
545.564,849.1
545.7,846.8
545.835,849.0
545.971,848.3
546.106,848.2
546.242,848.8
546.378,848.3
546.513,847.4
546.649,849.5
546.784,849.0
546.92,847.9
547.055,848.9
547.191,847.0
547.327,847.4
547.462,849.0
547.598,847.7
547.733,849.7
547.869,849.8
548.004,849.1
548.14,849.3
548.275,848.5
548.411,849.2
548.546,848.1
548.682,849.4
548.817,848.5
548.952,848.3
549.088,850.0
549.223,849.7
549.359,850.3
549.494,849.1
549.63,849.5
549.765,848.2
549.9,849.1
550.036,849.6
550.171,847.0
550.306,849.5
550.442,848.7
550.577,849.9
550.713,849.0
550.848,851.2
550.983,849.4
551.119,848.8
551.254,848.8
551.389,849.5
551.524,849.6
551.66,851.3
551.795,851.4
551.93,850.4
552.066,850.9
552.201,849.7
552.336,849.4
552.471,849.6
552.607,848.8
552.742,849.3
552.877,849.6
553.012,849.7
553.148,850.7
553.283,849.5
553.418,850.9
553.553,851.6
553.688,853.6
553.823,851.8
553.959,852.5
554.094,853.0
554.229,848.7
554.364,852.1
554.499,851.0
554.634,851.9
554.77,850.5
554.905,849.6
555.04,850.6
555.175,850.7
555.31,854.5
555.445,852.1
555.58,852.5
555.715,850.8
555.85,852.6
555.985,853.8
556.12,851.4
556.255,854.5
556.39,852.1
556.525,854.3
556.661,853.9
556.796,853.0
556.931,854.4
557.066,852.7
557.201,853.0
557.336,854.5
557.471,853.4
557.605,854.9
557.74,856.6
557.875,855.4
558.01,854.6
558.145,854.8
558.28,857.1
558.415,856.8
558.55,855.7
558.685,854.6
558.82,855.1
558.955,855.0
559.09,854.2
559.225,855.6
559.36,856.0
559.494,854.0
559.629,852.9
559.764,855.5
559.899,856.2
560.034,854.2
560.169,853.4
560.303,854.0
560.438,855.7
560.573,853.3
560.708,856.4
560.843,855.1
560.978,853.6
561.112,853.9
561.247,855.1
561.382,855.5
561.517,854.5
561.651,855.7
561.786,853.4
561.921,855.3
562.056,855.1
562.19,856.2
562.325,855.1
562.46,856.8
562.595,856.8
562.729,855.9
562.864,857.6
562.999,856.7
563.133,858.8
563.268,859.5
563.403,861.0
563.537,860.1
563.672,863.0
563.807,875.0
563.941,910.8
564.076,951.6
564.211,913.5
564.345,877.9
564.48,870.0
564.615,869.8
564.749,870.9
564.884,866.7
565.018,866.3
565.153,863.9
565.287,862.8
565.422,863.7
565.557,864.2
565.691,864.3
565.826,864.8
565.96,874.0
566.095,903.8
566.229,927.3
566.364,897.7
566.498,870.4
566.633,865.0
566.767,859.5
566.902,860.8
567.036,860.3
567.171,863.2
567.305,863.6
567.44,874.3
567.574,877.9
567.709,866.8
567.843,859.2
567.978,861.1
568.112,860.1
568.247,855.7
568.381,859.1
568.515,859.4
568.65,857.3
568.784,858.6
568.919,859.3
569.053,860.1
569.187,857.8
569.322,862.2
569.456,860.3
569.591,859.4
569.725,859.5
569.859,861.7
569.994,859.6
570.128,862.9
570.262,861.1
570.397,861.1
570.531,863.8
570.665,866.3
570.8,866.2
570.934,867.4
571.068,867.2
571.202,870.4
571.337,884.6
571.471,957.1
571.605,1028.6
571.74,939.0
571.874,891.3
572.008,880.8
572.142,874.4
572.277,869.6
572.411,870.0
572.545,865.2
572.679,863.7
572.813,862.1
572.948,861.7
573.082,862.5
573.216,863.3
573.35,863.5
573.484,860.1
573.619,862.2
573.753,865.5
573.887,869.5
574.021,873.6
574.155,866.9
574.289,860.9
574.424,863.2
574.558,862.1
574.692,862.0
574.826,862.1
574.96,861.2
575.094,861.9
575.228,861.4
575.362,871.4
575.496,890.4
575.631,903.2
575.765,891.0
575.899,887.3
576.033,903.4
576.167,936.0
576.301,981.6
576.435,973.9
576.569,939.8
576.703,924.7
576.837,925.3
576.971,932.6
577.105,931.0
577.239,924.0
577.373,909.3
577.507,895.1
577.641,881.0
577.775,875.8
577.909,874.9
578.043,871.8
578.177,867.6
578.311,869.3
578.445,871.0
578.579,865.0
578.713,866.9
578.847,868.6
578.981,868.4
579.114,867.7
579.248,872.3
579.382,870.0
579.516,867.6
579.65,865.9
579.784,868.2
579.918,870.2
580.052,866.5
580.186,867.9
580.32,868.0
580.453,867.6
580.587,869.6
580.721,869.1
580.855,868.7
580.989,869.5
581.123,870.6
581.256,867.8
581.39,869.3
581.524,869.9
581.658,872.3
581.792,872.1
581.925,869.9
582.059,871.4
582.193,872.6
582.327,872.2
582.461,869.7
582.594,871.9
582.728,871.2
582.862,870.5
582.996,871.7
583.129,875.3
583.263,873.0
583.397,874.4
583.531,875.3
583.664,873.7
583.798,878.0
583.932,875.1
584.065,873.8
584.199,873.1
584.333,875.1
584.467,878.8
584.6,874.2
584.734,877.4
584.868,877.8
585.001,877.4
585.135,876.9
585.269,875.9
585.402,873.9
585.536,876.1
585.669,878.2
585.803,880.3
585.937,879.6
586.07,878.1
586.204,878.4
586.338,878.4
586.471,879.8
586.605,881.4
586.738,879.6
586.872,882.0
587.005,881.3
587.139,881.7
587.273,880.6
587.406,879.5
587.54,882.0
587.673,881.2
587.807,880.5
587.94,881.1
588.074,881.5
588.207,881.7
588.341,879.0
588.474,881.2
588.608,879.0
588.741,881.3
588.875,880.4
589.008,880.8
589.142,880.1
589.275,880.5
589.409,878.5
589.542,880.0
589.676,879.7
589.809,876.5
589.943,883.2
590.076,879.8
590.21,879.9
590.343,878.9
590.476,878.9
590.61,882.2
590.743,878.1
590.877,882.5
591.01,880.5
591.144,882.2
591.277,878.1
591.41,881.5
591.544,880.1
591.677,877.6
591.81,878.8
591.944,880.1
592.077,880.8
592.211,880.3
592.344,880.9
592.477,880.5
592.611,878.4
592.744,883.7
592.877,880.6
593.011,879.6
593.144,881.8
593.277,878.4
593.411,880.0
593.544,879.1
593.677,881.0
593.81,879.6
593.944,879.8
594.077,881.1
594.21,880.1
594.344,878.9
594.477,877.6
594.61,879.9
594.743,881.0
594.877,880.3
595.01,880.4
595.143,882.0
595.276,881.5
595.41,878.8
595.543,877.3
595.676,880.5
595.809,878.8
595.942,879.9
596.076,882.6
596.209,880.7
596.342,879.8
596.475,880.0
596.608,883.0
596.742,880.7
596.875,881.8
597.008,882.2
597.141,879.2
597.274,880.2
597.407,880.3
597.541,882.3
597.674,881.8
597.807,883.0
597.94,881.0
598.073,881.9
598.206,885.4
598.339,884.2
598.472,882.5
598.606,882.9
598.739,881.0
598.872,882.8
599.005,883.0
599.138,886.4
599.271,885.1
599.404,883.5
599.537,883.2
599.67,886.1
599.803,883.4
599.936,886.7
600.069,886.1
600.202,882.3
600.335,885.3
600.468,886.6
600.601,884.1
600.734,885.0
600.868,883.7
601.001,883.7
601.134,884.9
601.267,884.8
601.4,882.9
601.533,884.7
601.665,882.4
601.798,885.8
601.931,887.1
602.064,887.0
602.197,886.8
602.33,885.6
602.463,885.6
602.596,884.9
602.729,884.5
602.862,884.6
602.995,881.7
603.128,881.9
603.261,888.1
603.394,882.2
603.527,882.8
603.66,884.9
603.793,887.7
603.926,886.2
604.058,885.7
604.191,889.1
604.324,888.0
604.457,886.5
604.59,882.9
604.723,880.2
604.856,884.9
604.989,881.2
605.121,881.8
605.254,882.2
605.387,883.7
605.52,882.9
605.653,878.2
605.786,882.6
605.918,884.6
606.051,879.5
606.184,882.6
606.317,881.2
606.45,882.4
606.583,877.9
606.715,881.5
606.848,880.3
606.981,882.1
607.114,881.1
607.246,880.2
607.379,877.9
607.512,881.2
607.645,880.5
607.778,880.5
607.91,878.9
608.043,878.1
608.176,879.7
608.309,880.5
608.441,878.8
608.574,878.7
608.707,882.1
608.839,881.7
608.972,881.8
609.105,881.4
609.238,880.4
609.37,879.6
609.503,876.5
609.636,880.7
609.768,878.9
609.901,880.1
610.034,880.2
610.166,880.3
610.299,879.8
610.432,878.3
610.564,882.9
610.697,879.8
610.83,879.2
610.962,881.3
611.095,883.3
611.228,877.6
611.36,881.5
611.493,882.5
611.626,878.5
611.758,881.2
611.891,882.0
612.023,878.8
612.156,879.2
612.289,880.3
612.421,880.0
612.554,879.7
612.686,881.0
612.819,883.0
612.952,879.6
613.084,880.3
613.217,880.7
613.349,885.3
613.482,881.3
613.614,884.1
613.747,883.1
613.88,880.5
614.012,882.6
614.145,881.5
614.277,880.1
614.41,882.4
614.542,882.5
614.675,880.3
614.807,881.5
614.94,882.6
615.072,881.3
615.205,883.2
615.337,882.7
615.47,882.0
615.602,882.2
615.735,882.9
615.867,885.4
616.0,886.0
616.132,883.0
616.265,883.7
616.397,886.0
616.53,884.8
616.662,886.4
616.795,886.9
616.927,888.9
617.059,894.8
617.192,895.1
617.324,896.3
617.457,895.9
617.589,894.6
617.722,895.1
617.854,892.0
617.986,894.3
618.119,896.8
618.251,894.2
618.384,893.7
618.516,894.0
618.648,895.3
618.781,893.2
618.913,895.5
619.046,895.0
619.178,896.2
619.31,896.1
619.443,901.2
619.575,901.0
619.707,900.5
619.84,899.8
619.972,904.6
620.105,901.6
620.237,898.8
620.369,899.0
620.502,900.2
620.634,901.2
620.766,903.3
620.899,908.9
621.031,908.2
621.163,910.0
621.295,913.6
621.428,916.9
621.56,925.8
621.692,927.6
621.825,940.1
621.957,946.2
622.089,956.0
622.222,969.8
622.354,968.5
622.486,963.1
622.618,954.3
622.751,939.7
622.883,931.3
623.015,923.0
623.147,915.9
623.28,912.2
623.412,911.7
623.544,908.6
623.676,912.2
623.809,910.9
623.941,910.0
624.073,909.4
624.205,909.7
624.338,909.2
624.47,910.5
624.602,905.5
624.734,911.2
624.866,913.8
624.999,913.5
625.131,913.2
625.263,912.7
625.395,914.3
625.527,917.6
625.66,921.7
625.792,927.2
625.924,926.2
626.056,934.1
626.188,944.4
626.32,958.4
626.453,983.4
626.585,1033.2
626.717,1127.0
626.849,1273.7
626.981,1484.6
627.113,1708.4
627.245,1804.9
627.377,1747.8
627.51,1628.3
627.642,1523.6
627.774,1438.1
627.906,1390.8
628.038,1369.6
628.17,1381.8
628.302,1465.9
628.434,1679.1
628.566,1954.0
628.699,1787.6
628.831,1488.6
628.963,1372.3
629.095,1336.8
629.227,1323.8
629.359,1296.2
629.491,1264.3
629.623,1228.9
629.755,1188.5
629.887,1162.0
630.019,1148.1
630.151,1137.6
630.283,1135.0
630.415,1124.0
630.547,1122.5
630.68,1096.1
630.812,1070.0
630.944,1032.3
631.076,1005.6
631.208,970.1
631.34,951.5
631.472,936.5
631.604,933.8
631.736,922.5
631.868,924.9
632.0,925.2
632.132,920.1
632.264,916.8
632.396,916.5
632.528,911.5
632.66,912.7
632.792,910.3
632.924,912.1
633.056,909.4
633.188,911.8
633.32,909.2
633.451,911.8
633.583,905.5
633.715,902.2
633.847,907.0
633.979,902.1
634.111,902.8
634.243,902.8
634.375,900.3
634.507,904.2
634.639,899.1
634.771,900.1
634.903,897.9
635.035,897.0
635.167,896.5
635.299,898.3
635.431,898.3
635.562,897.5
635.694,895.2
635.826,899.7
635.958,893.8
636.09,896.2
636.222,895.9
636.354,893.6
636.486,893.3
636.618,894.0
636.749,897.9
636.881,894.4
637.013,894.3
637.145,890.4
637.277,890.1
637.409,889.4
637.541,890.6
637.673,891.6
637.804,889.9
637.936,890.2
638.068,888.5
638.2,886.3
638.332,889.3
638.464,887.1
638.595,886.0
638.727,883.9
638.859,884.8
638.991,885.8
639.123,887.7
639.255,885.9
639.386,887.5
639.518,885.0
639.65,884.4
639.782,886.2
639.914,885.6
640.045,883.0
640.177,881.3
640.309,882.3
640.441,881.8
640.573,883.9
640.704,882.8
640.836,882.7
640.968,882.5
641.1,881.3
641.231,882.8
641.363,883.2
641.495,879.6
641.627,883.1
641.759,882.5
641.89,882.9
642.022,883.5
642.154,880.9
642.286,880.4
642.417,884.2
642.549,879.4
642.681,877.7
642.813,882.6
642.944,880.0
643.076,878.7
643.208,875.7
643.339,880.4
643.471,880.9
643.603,878.5
643.735,877.0
643.866,876.7
643.998,877.3
644.13,878.9
644.261,874.6
644.393,878.1
644.525,878.6
644.657,875.4
644.788,877.1
644.92,878.6
645.052,874.6
645.183,877.3
645.315,876.3
645.447,875.8
645.578,874.1
645.71,872.9
645.842,874.6
645.973,875.1
646.105,875.6
646.237,874.7
646.368,875.6
646.5,874.0
646.632,874.2
646.763,876.1
646.895,873.6
647.027,875.4
647.158,874.8
647.29,874.2
647.421,874.0
647.553,873.1
647.685,871.6
647.816,873.3
647.948,873.4
648.08,875.3
648.211,874.1
648.343,874.3
648.474,872.3
648.606,873.1
648.738,872.5
648.869,873.4
649.001,875.4
649.133,872.7
649.264,868.9
649.396,872.7
649.527,871.4
649.659,871.8
649.791,872.8
649.922,869.2
650.054,873.8
650.185,869.6
650.317,869.0
650.448,870.1
650.58,873.0
650.712,870.2
650.843,872.1
650.975,868.9
651.106,870.0
651.238,868.9
651.369,872.7
651.501,869.9
651.633,868.1
651.764,871.7
651.896,870.8
652.027,871.6
652.159,869.9
652.29,869.5
652.422,868.5
652.553,868.2
652.685,869.1
652.816,871.8
652.948,867.2
653.079,870.9
653.211,868.1
653.343,869.6
653.474,868.2
653.606,868.5
653.737,867.9
653.869,869.6
654.0,868.9
654.132,872.0
654.263,868.5
654.395,869.9
654.526,866.9
654.658,866.6
654.789,870.4
654.921,868.9
655.052,872.2
655.184,869.9
655.315,867.1
655.447,868.9
655.578,870.1
655.71,868.5
655.841,867.1
655.973,868.2
656.104,865.9
656.236,867.5
656.367,866.3
656.498,866.6
656.63,868.7
656.761,866.9
656.893,866.3
657.024,869.1
657.156,870.0
657.287,870.4
657.419,866.5
657.55,866.3
657.682,866.8
657.813,866.4
657.945,867.1
658.076,867.8
658.207,867.1
658.339,867.8
658.47,868.6
658.602,867.8
658.733,868.6
658.865,866.8
658.996,867.1
659.127,869.1
659.259,869.0
659.39,866.7
659.522,866.0
659.653,868.6
659.785,868.8
659.916,868.4
660.047,867.8
660.179,870.7
660.31,869.3
660.442,868.4
660.573,866.6
660.704,862.2
660.836,868.6
660.967,868.1
661.099,865.9
661.23,865.4
661.362,864.9
661.493,862.3
661.624,863.2
661.756,863.7
661.887,865.3
662.018,863.0
662.15,864.7
662.281,862.7
662.413,861.9
662.544,862.3
662.675,865.8
662.807,861.4
662.938,863.8
663.07,863.3