File: spectra/VLFR_08-PLA_nobio_Raman_0a4cea11.csv
cm-1,Intensity
-123.878,1853.35
-117.855,1853.75
-111.836,1854.05
-105.821,1852.65
-99.8104,1853.65
-93.8036,1852.95
-87.8007,1854.4
-81.8019,1852.2
-75.807,1854.4
-69.8161,1852.65
-63.8293,1852.25
-57.8464,1853.2
-51.8675,1854.1
-45.8926,1854.05
-39.9216,1853.5
-33.9547,1854.15
-27.9917,1856.5
-22.0326,1859.1
-16.0776,1880.9
-10.1265,2285.7
-4.17932,3079.7
1.76388,2999.8
7.70313,1959.9
13.6384,1855.8
19.5698,1855.4
25.4972,1855.65
31.4207,1856.05
37.3403,1854.75
43.256,1855.15
49.1677,1872.85
55.0755,1980.4
60.9794,2162.55
66.8794,2274.35
72.7754,2315.15
78.6676,2297.95
84.5559,2301.35
90.4402,2300.85
96.3207,2293.6
102.197,2313.7
108.07,2308.7
113.939,2326.7
119.804,2315.05
125.665,2310.4
131.522,2289.25
137.375,2278.85
143.225,2290.15
149.07,2294.7
154.912,2301.85
160.75,2307.3
166.584,2276.15
172.414,2278.95
178.241,2289.5
184.063,2299.15
189.882,2309.0
195.697,2304.75
201.508,2306.65
207.315,2300.3
213.119,2296.1
218.918,2302.6
224.714,2298.15
230.506,2285.75
236.294,2312.6
242.078,2310.0
247.859,2318.8
253.636,2318.8
259.409,2294.9
265.178,2299.4
270.943,2291.7
276.705,2317.55
282.463,2328.15
288.217,2324.0
293.967,2332.9
299.713,2344.0
305.456,2357.4
311.195,2350.6
316.93,2364.65
322.662,2366.9
328.389,2365.05
334.113,2347.0
339.834,2362.2
345.55,2361.25
351.263,2369.4
356.972,2393.05
362.677,2383.9
368.379,2397.5
374.077,2419.95
379.771,2432.05
385.461,2418.9
391.148,2408.35
396.831,2431.2
402.51,2436.75
408.186,2438.5
413.858,2426.95
419.526,2404.05
425.19,2394.6
430.851,2402.3
436.508,2422.15
442.162,2418.05
447.811,2414.4
453.458,2408.15
459.1,2409.5
464.739,2395.8
470.374,2402.75
476.005,2411.0
481.633,2411.05
487.257,2399.95
492.878,2426.35
498.494,2425.05
504.107,2442.8
509.717,2438.9
515.323,2443.55
520.925,2422.6
526.524,2422.05
532.119,2432.25
537.71,2416.05
543.298,2431.3
548.882,2422.35
554.462,2436.15
560.039,2444.25
565.613,2444.2
571.182,2435.25
576.748,2453.25
582.311,2445.85
587.87,2425.2
593.425,2425.85
598.977,2438.35
604.525,2449.85
610.069,2443.85
615.61,2438.05
621.148,2444.45
626.682,2464.2
632.212,2446.15
637.739,2468.8
643.262,2451.65
648.781,2468.95
654.297,2455.25
659.81,2495.0
665.319,2481.2
670.824,2482.75
676.326,2492.65
681.824,2490.05
687.319,2469.75
692.81,2484.25
698.298,2471.3
703.782,2475.0
709.262,2497.1
714.739,2492.6
720.213,2477.8
725.683,2470.75
731.15,2499.9
736.613,2495.9
742.072,2499.2
747.528,2509.15
752.981,2491.35
758.43,2485.35
763.875,2501.5
769.317,2512.05
774.756,2499.1
780.191,2491.8
785.623,2504.6
791.051,2494.75
796.475,2503.05
801.897,2489.65
807.314,2490.5
812.729,2495.0
818.139,2507.65
823.547,2498.65
828.951,2494.75
834.351,2516.15
839.748,2519.05
845.142,2505.7
850.532,2512.55
855.918,2556.75
861.302,2572.4
866.681,2664.0
872.058,2680.85
877.431,2672.55
882.8,2611.35
888.166,2560.75
893.529,2557.1
898.888,2559.25
904.244,2573.9
909.596,2557.9
914.945,2552.9
920.291,2553.5
925.633,2549.05
930.972,2549.85
936.308,2542.55
941.64,2539.65
946.968,2568.05
952.294,2565.05
957.615,2551.65
962.934,2569.25
968.249,2567.0
973.561,2577.3
978.869,2575.75
984.174,2573.3
989.476,2570.15
994.774,2592.65
1000.07,2600.45
1005.36,2579.65
1010.65,2556.6
1015.93,2607.6
1021.22,2609.6
1026.49,2627.45
1031.77,2619.1
1037.04,2640.15
1042.31,2688.0
1047.57,2654.4
1052.83,2650.65
1058.09,2632.9
1063.35,2648.8
1068.6,2658.15
1073.85,2673.6
1079.09,2692.1
1084.33,2738.05
1089.57,2783.75
1094.81,2805.6
1100.04,2776.7
1105.27,2731.0
1110.49,2732.5
1115.71,2748.95
1120.93,2763.0
1126.15,2773.55
1131.36,2730.2
1136.57,2715.85
1141.77,2705.1
1146.98,2669.25
1152.18,2660.05
1157.37,2658.75
1162.56,2652.0
1167.75,2654.2
1172.94,2637.5
1178.12,2649.85
1183.3,2651.35
1188.48,2631.4
1193.65,2633.4
1198.82,2620.1
1203.99,2629.35
1209.15,2663.45
1214.31,2629.4
1219.46,2662.05
1224.62,2673.9
1229.77,2646.15
1234.92,2644.6
1240.06,2658.25
1245.2,2667.25
1250.34,2669.95
1255.47,2663.3
1260.6,2649.35
1265.73,2665.85
1270.85,2670.75
1275.97,2644.9
1281.09,2662.05
1286.21,2698.15
1291.32,2715.3
1296.43,2723.1
1301.53,2726.75
1306.63,2722.3
1311.73,2729.7
1316.83,2735.5
1321.92,2733.6
1327.01,2708.1
1332.1,2737.35
1337.18,2725.75
1342.26,2724.8
1347.34,2721.45
1352.41,2741.45
1357.48,2726.65
1362.55,2740.15
1367.61,2731.25
1372.67,2739.0
1377.73,2733.45
1382.78,2753.9
1387.84,2733.65
1392.88,2714.35
1397.93,2709.3
1402.97,2703.0
1408.01,2685.8
1413.05,2711.4
1418.08,2718.65
1423.11,2703.25
1428.14,2719.2
1433.16,2706.0
1438.18,2713.55
1443.2,2748.05
1448.21,2774.95
1453.22,2793.6
1458.23,2774.25
1463.23,2752.45
1468.23,2738.1
1473.23,2711.8
1478.23,2678.45
1483.22,2700.15
1488.21,2688.95
1493.2,2678.15
1498.18,2653.8
1503.16,2666.7
1508.14,2666.0
1513.11,2665.65
1518.08,2662.2
1523.05,2656.2
1528.01,2658.5
1532.97,2702.05
1537.93,2682.3
1542.89,2668.15
1547.84,2670.9
1552.79,2687.6
1557.73,2686.4
1562.68,2684.0
1567.62,2695.95
1572.56,2689.1
1577.49,2694.8
1582.42,2675.7
1587.35,2698.55
1592.27,2672.75
1597.19,2680.65
1602.11,2686.35
1607.03,2681.95
1611.94,2684.05
1616.85,2692.85
1621.76,2700.85
1626.66,2699.9
1631.56,2688.15
1636.46,2669.75
1641.36,2680.85
1646.25,2708.6
1651.14,2698.1
1656.02,2688.9
1660.9,2688.15
1665.78,2685.45
1670.66,2708.45
1675.54,2687.0
1680.41,2718.3
1685.27,2684.0
1690.14,2671.35
1695.0,2687.85
1699.86,2690.9
1704.71,2670.5
1709.57,2685.75
1714.42,2683.25
1719.26,2682.8
1724.11,2675.5
1728.95,2689.0
1733.79,2688.9
1738.62,2680.25
1743.46,2720.45
1748.28,2725.5
1753.11,2712.4
1757.93,2763.75
1762.75,2770.55
1767.57,2772.2
1772.39,2763.4
1777.2,2771.95
1782.01,2735.05
1786.81,2726.4
1791.62,2674.8
1796.41,2700.15
1801.21,2679.6
1806.01,2692.9
1810.8,2691.8
1815.59,2660.4
1820.37,2668.95
1825.15,2667.05
1829.93,2661.45
1834.71,2652.45
1839.48,2663.55
1844.25,2668.0
1849.02,2677.7
1853.79,2688.25
1858.55,2673.1
1863.31,2673.45
1868.06,2677.4
1872.82,2685.8
1877.57,2704.9
1882.31,2674.6
1887.06,2682.0
1891.8,2699.85
1896.54,2678.6
1901.28,2683.85
1906.01,2709.25
1910.74,2676.65
1915.47,2690.85
1920.19,2703.3
1924.91,2696.5
1929.63,2702.25
1934.35,2696.75
1939.06,2686.65
1943.77,2682.0
1948.48,2685.15
1953.19,2684.75
1957.89,2679.4
1962.59,2678.4
1967.28,2685.2
1971.98,2666.7
1976.67,2680.15
1981.35,2686.4
1986.04,2684.3
1990.72,2693.2
1995.4,2687.9
2000.08,2701.45
2004.75,2685.1
2009.42,2709.0
2014.09,2712.2
2018.75,2697.35
2023.42,2705.4
2028.08,2694.75
2032.73,2700.4
2037.39,2706.55
2042.04,2689.45
2046.69,2697.45
2051.33,2689.85
2055.97,2693.85
2060.61,2687.9
2065.25,2711.05
2069.88,2710.8
2074.52,2677.4
2079.15,2692.2
2083.77,2704.0
2088.39,2696.65
2093.01,2693.85
2097.63,2706.85
2102.25,2706.75
2106.86,2703.75
2111.47,2726.95
2116.08,2718.9
2120.68,2731.0
2125.28,2703.1
2129.88,2695.85
2134.47,2687.05
2139.07,2694.05
2143.66,2716.55
2148.24,2714.55
2152.83,2723.1
2157.41,2692.5
2161.99,2695.2
2166.57,2697.5
2171.14,2693.1
2175.71,2716.55
2180.28,2694.55
2184.84,2718.9
2189.41,2698.35
2193.97,2684.45
2198.52,2721.6
2203.08,2693.95
2207.63,2698.05
2212.18,2712.85
2216.73,2708.8
2221.27,2713.75
2225.81,2698.95
2230.35,2698.85
2234.89,2723.3
2239.42,2688.1
2243.95,2716.3
2248.48,2686.45
2253.0,2693.05
2257.52,2709.85
2262.04,2697.5
2266.56,2706.8
2271.07,2703.6
2275.58,2690.75
2280.09,2670.3
2284.6,2696.25
2289.1,2690.8
2293.6,2712.1
2298.1,2706.4
2302.6,2687.1
2307.09,2673.05
2311.58,2698.15
2316.07,2706.8
2320.55,2716.35
2325.03,2698.15
2329.51,2697.6
2333.99,2704.35
2338.46,2690.95
2342.93,2696.25
2347.4,2699.3
2351.87,2727.3
2356.33,2698.2
2360.79,2700.1
2365.25,2693.3
2369.71,2686.05
2374.16,2692.35
2378.61,2668.8
2383.06,2692.0
2387.5,2685.65
2391.94,2694.75
2396.38,2701.25
2400.82,2682.6
2405.26,2694.25
2409.69,2696.9
2414.12,2695.4
2418.54,2705.9
2422.97,2669.45
2427.39,2689.4
2431.81,2708.3
2436.22,2720.05
2440.64,2657.6
2445.05,2681.4
2449.46,2691.7
2453.86,2683.95
2458.27,2678.55
2462.67,2686.85
2467.06,2665.7
2471.46,2684.8
2475.85,2689.75
2480.24,2681.85
2484.63,2681.15
2489.02,2676.3
2493.4,2669.3
2497.78,2656.35
2502.16,2674.2
2506.53,2679.7
2510.9,2674.3
2515.27,2672.65
2519.64,2682.35
2524.0,2669.8
2528.37,2677.35
2532.73,2699.45
2537.08,2668.55
2541.44,2663.25
2545.79,2663.6
2550.14,2658.4
2554.48,2680.15
2558.83,2666.65
2563.17,2667.9
2567.51,2646.0
2571.85,2685.85
2576.18,2661.95
2580.51,2639.9
2584.84,2652.4
2589.17,2665.35
2593.49,2666.1
2597.81,2670.35
2602.13,2667.35
2606.45,2679.45
2610.76,2649.5
2615.07,2660.2
2619.38,2670.2
2623.69,2655.85
2627.99,2668.75
2632.29,2658.05
2636.59,2671.0
2640.89,2648.7
2645.18,2675.25
2649.47,2659.7
2653.76,2644.0
2658.05,2678.25
2662.33,2664.7
2666.61,2660.4
2670.89,2643.0
2675.17,2668.0
2679.44,2664.6
2683.71,2655.2
2687.98,2679.85
2692.25,2687.55
2696.51,2660.65
2700.77,2657.0
2705.03,2662.2
2709.29,2658.55
2713.54,2673.75
2717.79,2669.2
2722.04,2658.1
2726.29,2675.25
2730.53,2672.5
2734.77,2685.95
2739.01,2671.5
2743.25,2669.4
2747.48,2663.3
2751.71,2687.95
2755.94,2652.55
2760.17,2678.05
2764.39,2661.45
2768.61,2661.5
2772.83,2653.2
2777.05,2657.6
2781.27,2621.4
2785.48,2650.7
2789.69,2648.35
2793.89,2662.2
2798.1,2658.65
2802.3,2645.95
2806.5,2644.0
2810.7,2638.3
2814.89,2653.45
2819.09,2666.4
2823.28,2649.3
2827.46,2650.65
2831.65,2659.25
2835.83,2663.5
2840.01,2667.6
2844.19,2659.85
2848.37,2668.1
2852.54,2709.1
2856.71,2689.7
2860.88,2699.4
2865.05,2713.35
2869.21,2750.5
2873.37,2783.85
2877.53,2856.25
2881.69,2860.95
2885.84,2873.15
2889.99,2884.8
2894.14,2867.8
2898.29,2886.05
2902.43,2875.65
2906.58,2870.3
2910.72,2835.7
2914.85,2828.8
2918.99,2804.15
2923.12,2818.6
2927.25,2845.25
2931.38,2884.6
2935.5,2956.8
2939.63,3103.05
2943.75,3292.85
2947.87,3313.7
2951.98,3172.0
2956.1,3080.15
2960.21,2931.0
2964.32,2863.9
2968.42,2836.45
2972.53,2778.35
2976.63,2788.95
2980.73,2743.95
2984.83,2751.35
2988.92,2762.75
2993.01,2798.25
2997.1,2837.2
3001.19,2850.55
3005.28,2820.2
3009.36,2789.15
3013.44,2772.2
3017.52,2746.85
3021.6,2680.15
3025.67,2651.85
3029.74,2632.0
3033.81,2608.95
3037.88,2571.8
3041.94,2588.1
3046.01,2580.55
3050.07,2559.2
3054.12,2567.1
3058.18,2556.2
3062.23,2571.75
3066.28,2542.4
3070.33,2537.55
3074.38,2548.7
3078.42,2549.1
3082.46,2542.45
3086.5,2548.0
3090.54,2556.65
3094.57,2543.1
3098.6,2542.4
3102.63,2524.0
3106.66,2540.85
3110.69,2536.2
3114.71,2533.25
3118.73,2538.2
3122.75,2510.55
3126.77,2524.6
3130.78,2540.2
3134.79,2519.9
3138.8,2505.7
3142.81,2548.05
3146.81,2516.0
3150.82,2511.05
3154.82,2515.2
3158.81,2531.7
3162.81,2515.95
3166.8,2490.95
3170.79,2512.65
3174.78,2504.85
3178.77,2512.45
3182.75,2504.75
3186.74,2494.8
3190.72,2512.8
3194.69,2509.8
3198.67,2511.1
3202.64,2505.7
3206.61,2475.3
3210.58,2507.4
3214.55,2491.1
3218.51,2519.55
3222.47,2481.55
3226.43,2517.4
3230.39,2526.0
3234.35,2494.6
3238.3,2491.35
3242.25,2484.2
3246.2,2485.05
3250.15,2491.75
3254.09,2487.2
3258.03,2474.9
3261.97,2492.75
3265.91,2491.1
3269.84,2504.45
3273.78,2467.2
3277.71,2503.45
3281.64,2500.55
3285.56,2499.65
3289.49,2483.0
3293.41,2490.3
3297.33,2484.9
3301.25,2470.45
3305.16,2472.8
3309.07,2461.3
3312.99,2472.7
3316.89,2460.0
3320.8,2467.85
3324.7,2449.0
3328.61,2460.15
3332.51,2469.75
3336.4,2447.9
3340.3,2442.0
3344.19,2453.65
3348.08,2447.15
3351.97,2455.95
3355.86,2467.4
3359.74,2447.35
3363.63,2446.85
3367.51,2435.65
3371.39,2440.2
3375.26,2435.4
3379.13,2437.45
3383.01,2449.05
3386.88,2427.45
3390.74,2406.9
3394.61,2394.9
3398.47,2416.35
3402.33,2432.8
3406.19,2429.05
3410.05,2394.55
3413.9,2432.2
3417.75,2447.5
3421.6,2410.9
3425.45,2411.85
3429.3,2410.45
3433.14,2414.35
3436.98,2403.75
3440.82,2392.85
3444.66,2401.75
3448.49,2396.1
3452.32,2383.3
3456.15,2403.5
3459.98,2418.0
3463.81,2387.0
3467.63,2380.0
3471.46,2398.35
3475.28,2384.3
3479.09,2386.55
3482.91,2364.75
3486.72,2362.0
3490.53,2358.75
3494.34,2376.0
3498.15,2371.5
3501.96,2383.3
3505.76,2344.85
3509.56,2356.45
3513.36,2355.45
3517.15,2337.75
3520.95,2325.65
3524.74,2352.5
3528.53,2338.1
3532.32,2331.35
3536.11,2358.65
3539.89,2339.35
3543.67,2347.1
3547.45,2326.8
3551.23,2301.85
3555.0,2303.15
3558.78,2306.7
3562.55,2304.45
3566.32,2325.85
3570.09,2320.75
3573.85,2301.15
3577.61,2305.25
3581.37,2313.5
3585.13,2300.15
3588.89,2311.9
3592.64,2330.1
3596.4,2294.05
3600.15,2306.25
3603.9,2308.75
3607.64,2310.7
3611.39,2304.2
3615.13,2300.75
3618.87,2291.85
3622.61,2266.8
3626.34,2294.25
3630.08,2280.95
3633.81,2288.95
3637.54,2289.7
3641.27,2272.2
3644.99,2279.5
3648.72,2258.85
3652.44,2279.0
3656.16,2261.55
3659.87,2278.55
3663.59,2271.15
3665.45,2261.2