File: spectra/VLFR_02-HDPE_bio_Raman_54df89fa.csv
nm,Intensity
528.65,1856.5
528.819,1855.05
528.987,1855.95
529.155,1856.35
529.324,1856.55
529.492,1855.65
529.66,1857.15
529.829,1855.05
529.997,1855.55
530.165,1856.3
530.334,1856.15
530.502,1857.25
530.67,1856.2
530.839,1856.85
531.007,1856.25
531.175,1857.8
531.344,1860.2
531.512,1861.4
531.68,1885.45
531.848,2363.5
532.017,3593.2
532.185,3177.45
532.353,1952.5
532.521,1857.65
532.69,1857.9
532.858,1857.7
533.026,1856.35
533.194,1857.55
533.363,1857.85
533.531,1869.0
533.699,1928.5
533.867,2050.1
534.036,2116.2
534.204,2132.35
534.372,2137.8
534.54,2135.0
534.708,2138.75
534.877,2149.3
535.045,2155.3
535.213,2146.9
535.381,2153.2
535.549,2128.45
535.717,2134.55
535.886,2143.3
536.054,2125.95
536.222,2123.1
536.39,2109.85
536.558,2102.1
536.726,2100.6
536.894,2114.65
537.062,2117.8
537.231,2132.8
537.399,2131.65
537.567,2116.55
537.735,2120.2
537.903,2120.65
538.071,2122.85
538.239,2111.35
538.407,2102.95
538.575,2105.5
538.743,2104.45
538.911,2109.65
539.079,2098.95
539.247,2098.55
539.415,2098.45
539.583,2098.5
539.751,2105.2
539.919,2101.6
540.087,2102.6
540.255,2101.2
540.423,2096.65
540.591,2099.25
540.759,2099.3
540.927,2107.75
541.095,2114.55
541.263,2111.55
541.431,2100.85
541.599,2094.75
541.767,2109.45
541.935,2099.85
542.103,2115.0
542.271,2103.5
542.439,2113.3
542.607,2116.6
542.775,2114.6
542.943,2113.1
543.111,2116.5
543.279,2115.85
543.446,2120.55
543.614,2119.3
543.782,2127.0
543.95,2146.3
544.118,2171.05
544.286,2138.7
544.454,2130.4
544.622,2119.15
544.789,2127.1
544.957,2143.65
545.125,2130.9
545.293,2125.65
545.461,2135.55
545.629,2136.4
545.796,2155.2
545.964,2173.05
546.132,2211.4
546.3,2306.05
546.468,2388.35
546.635,2309.6
546.803,2204.75
546.971,2172.15
547.139,2161.25
547.306,2151.5
547.474,2147.25
547.642,2151.0
547.81,2144.8
547.977,2143.15
548.145,2150.6
548.313,2157.65
548.481,2151.25
548.648,2159.2
548.816,2150.7
548.984,2165.1
549.151,2167.45
549.319,2163.25
549.487,2158.95
549.655,2170.35
549.822,2175.1
549.99,2198.55
550.158,2220.55
550.325,2217.65
550.493,2199.15
550.66,2173.75
550.828,2173.8
550.996,2168.35
551.163,2171.3
551.331,2175.9
551.499,2179.75
551.666,2189.6
551.834,2176.45
552.001,2180.0
552.169,2177.6
552.337,2172.65
552.504,2178.65
552.672,2175.4
552.839,2177.15
553.007,2184.55
553.174,2181.3
553.342,2190.35
553.509,2196.85
553.677,2192.35
553.844,2194.7
554.012,2196.05
554.179,2192.9
554.347,2195.6
554.514,2196.15
554.682,2196.15
554.849,2209.1
555.017,2207.75
555.184,2210.45
555.352,2207.65
555.519,2200.65
555.687,2205.55
555.854,2209.95
556.022,2211.2
556.189,2211.5
556.357,2217.1
556.524,2215.9
556.691,2218.75
556.859,2229.1
557.026,2224.75
557.194,2224.65
557.361,2220.45
557.528,2228.35
557.696,2239.8
557.863,2236.1
558.031,2249.0
558.198,2242.5
558.365,2241.6
558.533,2243.3
558.7,2244.05
558.867,2247.3
559.035,2255.0
559.202,2254.95
559.369,2249.2
559.537,2243.25
559.704,2244.0
559.871,2249.5
560.038,2251.95
560.206,2238.8
560.373,2253.05
560.54,2263.35
560.708,2260.95
560.875,2263.4
561.042,2273.25
561.209,2263.9
561.377,2279.85
561.544,2298.2
561.711,2330.6
561.878,2374.85
562.045,2694.2
562.213,3246.45
562.38,3338.2
562.547,2617.25
562.714,2362.3
562.881,2312.65
563.049,2305.5
563.216,2307.75
563.383,2309.4
563.55,2321.4
563.717,2383.6
563.884,2515.2
564.052,2613.65
564.219,2469.25
564.386,2363.85
564.553,2355.05
564.72,2369.55
564.887,2356.3
565.054,2348.9
565.221,2345.25
565.388,2345.4
565.556,2349.0
565.723,2405.3
565.89,2490.9
566.057,2688.0
566.224,2724.9
566.391,2552.0
566.558,2460.35
566.725,2390.3
566.892,2360.85
567.059,2360.95
567.226,2361.65
567.393,2374.65
567.56,2352.65
567.727,2341.65
567.894,2335.3
568.061,2332.9
568.228,2339.0
568.395,2345.8
568.562,2345.5
568.729,2349.6
568.896,2344.5
569.063,2342.9
569.23,2370.65
569.396,2353.2
569.563,2355.0
569.73,2364.65
569.897,2372.35
570.064,2372.15
570.231,2375.85
570.398,2394.25
570.565,2386.05
570.732,2390.5
570.898,2400.25
571.065,2409.8
571.232,2500.65
571.399,2765.7
571.566,2924.25
571.733,2659.55
571.9,2489.6
572.066,2467.6
572.233,2435.0
572.4,2412.1
572.567,2419.2
572.734,2421.8
572.9,2393.6
573.067,2393.2
573.234,2395.2
573.401,2406.35
573.567,2419.15
573.734,2407.7
573.901,2428.65
574.068,2429.85
574.234,2404.0
574.401,2417.25
574.568,2411.25
574.734,2416.65
574.901,2421.45
575.068,2431.35
575.235,2495.65
575.401,2625.75
575.568,2713.25
575.735,2651.5
575.901,2609.55
576.068,2697.35
576.235,2812.75
576.401,2797.8
576.568,2712.65
576.734,2682.1
576.901,2668.1
577.068,2677.6
577.234,2625.55
577.401,2563.45
577.567,2542.65
577.734,2514.0
577.901,2491.8
578.067,2506.85
578.234,2504.15
578.4,2490.55
578.567,2521.45
578.733,2506.4
578.9,2522.85
579.066,2513.8
579.233,2526.2
579.399,2545.55
579.566,2547.8
579.732,2534.55
579.899,2547.9
580.065,2546.0
580.232,2558.1
580.398,2584.6
580.565,2571.25
580.731,2572.6
580.898,2576.0
581.064,2584.35
581.231,2595.25
581.397,2606.9
581.563,2610.75
581.73,2607.15
581.896,2630.55
582.063,2634.8
582.229,2631.7
582.395,2655.2
582.562,2652.8
582.728,2664.75
582.895,2678.3
583.061,2672.05
583.227,2691.0
583.394,2708.2
583.56,2712.45
583.726,2712.65
583.893,2705.8
584.059,2755.6
584.225,2743.3
584.391,2777.45
584.558,2773.0
584.724,2779.65
584.89,2791.1
585.057,2807.05
585.223,2831.15
585.389,2838.9
585.555,2831.7
585.722,2855.0
585.888,2842.05
586.054,2906.8
586.22,2904.9
586.386,2920.7
586.553,2919.75
586.719,2931.8
586.885,2946.9
587.051,3001.45
587.217,3012.45
587.384,3009.4
587.55,3045.05
587.716,3041.2
587.882,3064.6
588.048,3055.5
588.214,3119.2
588.38,3084.7
588.546,3083.05
588.713,3148.1
588.879,3132.4
589.045,3154.75
589.211,3151.3
589.377,3165.0
589.543,3187.15
589.709,3192.65
589.875,3208.15
590.041,3242.3
590.207,3251.6
590.373,3257.55
590.539,3290.55
590.705,3284.0
590.871,3285.25
591.037,3319.75
591.203,3312.75
591.369,3348.7
591.535,3346.3
591.701,3367.3
591.867,3381.7
592.033,3374.2
592.199,3350.05
592.365,3398.75
592.531,3424.2
592.697,3399.45
592.863,3423.2
593.029,3440.3
593.195,3387.85
593.361,3438.8
593.526,3421.8
593.692,3434.45
593.858,3454.4
594.024,3415.2
594.19,3460.75
594.356,3482.25
594.522,3459.85
594.687,3504.7
594.853,3470.05
595.019,3527.45
595.185,3449.1
595.351,3545.85
595.516,3489.5
595.682,3559.8
595.848,3589.2
596.014,3541.35
596.18,3556.45
596.345,3570.35
596.511,3553.95
596.677,3577.15
596.843,3583.2
597.008,3557.2
597.174,3569.1
597.34,3654.5
597.505,3608.35
597.671,3594.95
597.837,3630.7
598.002,3656.3
598.168,3584.7
598.334,3674.3
598.499,3653.95
598.665,3631.85
598.831,3668.7
598.996,3686.25
599.162,3698.65
599.328,3685.3
599.493,3737.2
599.659,3705.4
599.824,3716.75
599.99,3687.65
600.156,3719.9
600.321,3686.0
600.487,3691.0
600.652,3734.1
600.818,3690.2
600.983,3686.15
601.149,3730.6
601.314,3719.15
601.48,3736.95
601.645,3694.45
601.811,3720.35
601.976,3714.9
602.142,3700.0
602.307,3670.0
602.473,3701.5
602.638,3687.55
602.804,3660.5
602.969,3692.3
603.135,3663.05
603.3,3673.05
603.466,3662.25
603.631,3682.95
603.796,3668.55
603.962,3629.55
604.127,3552.25
604.293,3602.05
604.458,3606.55
604.623,3637.85
604.789,3566.3
604.954,3587.6
605.119,3554.7
605.285,3534.2
605.45,3552.5
605.615,3500.75
605.781,3525.45
605.946,3472.9
606.111,3450.9
606.277,3536.8
606.442,3484.55
606.607,3476.65
606.772,3468.45
606.938,3450.1
607.103,3463.65
607.268,3396.05
607.433,3393.65
607.599,3420.15
607.764,3407.65
607.929,3379.6
608.094,3373.1
608.259,3386.05
608.425,3341.75
608.59,3359.65
608.755,3357.1
608.92,3313.25
609.085,3308.85
609.25,3329.95
609.415,3308.95
609.581,3321.35
609.746,3302.05
609.911,3265.85
610.076,3264.4
610.241,3286.25
610.406,3289.65
610.571,3256.95
610.736,3225.8
610.901,3255.1
611.066,3237.4
611.231,3252.1
611.396,3201.25
611.561,3235.7
611.727,3232.2
611.892,3203.0
612.057,3184.15
612.222,3187.85
612.386,3172.1
612.551,3152.75
612.716,3159.8
612.881,3175.4
613.046,3123.85
613.211,3119.9
613.376,3161.4
613.541,3136.35
613.706,3116.1
613.871,3118.6
614.036,3133.1
614.201,3131.95
614.366,3080.1
614.531,3105.45
614.695,3095.0
614.86,3077.85
615.025,3088.7
615.19,3076.9
615.355,3079.2
615.52,3074.65
615.684,3071.95
615.849,3070.3
616.014,3050.6
616.179,3055.85
616.344,3083.95
616.508,3016.95
616.673,3054.75
616.838,3050.7
617.003,3036.95
617.168,3058.95
617.332,3031.4
617.497,3017.5
617.662,3017.75
617.826,3035.75
617.991,3029.15
618.156,3002.7
618.32,3029.55
618.485,3013.4
618.65,3031.9
618.814,2959.2
618.979,3000.05
619.144,3024.85
619.308,2983.15
619.473,2999.55
619.638,3022.2
619.802,2990.4
619.967,3004.45
620.131,2987.75
620.296,2994.35
620.461,3017.25
620.625,2991.55
620.79,2990.0
620.954,2962.05
621.119,2967.55
621.283,3007.85
621.448,3020.25
621.612,3032.75
621.777,3056.5
621.941,3043.5
622.106,3085.05
622.27,3096.95
622.435,3088.3
622.599,3050.25
622.764,3016.05
622.928,2962.5
623.093,2929.85
623.257,2940.8
623.422,2934.05
623.586,2903.65
623.75,2932.85
623.915,2910.15
624.079,2921.45
624.244,2889.7
624.408,2908.0
624.572,2925.2
624.737,2904.85
624.901,2894.25
625.065,2884.85
625.23,2899.15
625.394,2911.9
625.558,2922.6
625.723,2918.2
625.887,2924.9
626.051,2962.05
626.215,3019.7
626.38,3082.7
626.544,3299.9
626.708,3713.75
626.872,4346.5
627.037,5031.4
627.201,5543.3
627.365,5213.1
627.529,4866.6
627.693,4539.0
627.858,4367.65
628.022,4225.8
628.186,4632.0
628.35,5038.6
628.514,5564.7
628.678,5379.4
628.843,4620.3
629.007,4374.4
629.171,4242.2
629.335,4144.55
629.499,3960.4
629.663,3826.75
629.827,3788.85
629.991,3702.5
630.155,3675.2
630.319,3661.0
630.483,3582.7
630.647,3519.4
630.812,3339.5
630.976,3182.9
631.14,3051.65
631.304,2981.05
631.468,2953.15
631.632,2906.15
631.796,2890.25
631.959,2892.6
632.123,2862.5
632.287,2833.9
632.451,2851.05
632.615,2851.5
632.779,2843.0
632.943,2856.75
633.107,2859.45
633.271,2849.05
633.435,2838.4
633.599,2836.0
633.763,2819.6
633.926,2845.65
634.09,2815.05
634.254,2827.65
634.418,2834.6
634.582,2833.0
634.746,2833.15
634.909,2819.4
635.073,2806.25
635.237,2823.3
635.401,2847.95
635.564,2804.25
635.728,2804.85
635.892,2818.85
636.056,2794.35
636.219,2833.75
636.383,2822.15
636.547,2804.05
636.711,2859.7
636.874,2799.35
637.038,2818.7
637.202,2833.0
637.365,2830.9
637.529,2800.45
637.693,2808.55
637.856,2844.55
638.02,2811.0
638.184,2798.15
638.347,2869.5
638.511,2840.75
638.674,2838.15
638.838,2858.95
639.002,2805.75
639.165,2785.5
639.329,2825.0
639.492,2817.15
639.656,2819.1
639.819,2861.95
639.983,2802.75
640.146,2838.85
640.31,2850.0
640.473,2849.1
640.637,2807.4
640.8,2839.45
640.964,2820.2
641.127,2814.1
641.291,2869.55
641.454,2839.75
641.618,2822.95
641.781,2851.15
641.944,2810.2
642.108,2834.6
642.271,2858.4
642.435,2856.8
642.598,2834.25
642.761,2878.7
642.925,2829.2
643.088,2848.1
643.251,2847.75
643.415,2831.9
643.578,2843.15
643.741,2882.95
643.905,2879.9
644.068,2841.95
644.231,2840.3
644.394,2847.65
644.558,2819.85
644.721,2838.9
644.884,2847.1
645.047,2880.95
645.211,2822.05
645.374,2843.25
645.537,2821.85
645.7,2816.7
645.863,2857.4
646.027,2833.05
646.19,2826.95
646.353,2810.85
646.516,2826.9
646.679,2831.15
646.842,2809.0
647.005,2809.75
647.169,2844.0
647.332,2820.7
647.495,2855.05
647.658,2794.45
647.821,2828.35
647.984,2803.65
648.147,2786.95
648.31,2780.3
648.473,2812.85
648.636,2809.65
648.799,2796.4
648.962,2797.45
649.125,2806.95
649.288,2823.25
649.451,2784.15
649.614,2778.5
649.777,2828.95
649.94,2844.5
650.103,2781.6
650.266,2834.1
650.429,2799.75
650.592,2786.7
650.755,2739.75
650.918,2774.2
651.08,2748.7
651.243,2783.65
651.406,2752.2
651.569,2760.4
651.732,2718.5
651.895,2725.0
652.058,2717.1
652.22,2739.15
652.383,2745.85
652.546,2722.55
652.709,2711.5
652.872,2691.05
653.034,2731.4
653.197,2687.8
653.36,2698.5
653.523,2691.55
653.685,2686.1
653.848,2730.6
654.011,2655.85
654.173,2647.65
654.336,2651.85
654.499,2660.05
654.662,2651.1
654.824,2636.3
654.987,2617.65
655.149,2634.7
655.312,2645.2
655.475,2635.65
655.637,2609.0
655.8,2638.25
655.963,2615.3
656.125,2593.65
656.288,2587.7
656.45,2594.5
656.613,2587.9
656.775,2565.95
656.938,2579.8
657.1,2589.8
657.263,2570.65
657.425,2583.5
657.588,2589.35
657.75,2545.8
657.913,2562.45
658.075,2553.9
658.238,2545.05
658.4,2528.7
658.563,2511.8
658.725,2534.55
658.888,2545.05
659.05,2513.55
659.212,2496.7
659.375,2493.75
659.537,2505.85
659.7,2487.8
659.862,2516.65
660.024,2480.75
660.187,2469.35
660.349,2455.15
660.511,2459.8
660.674,2484.55
660.836,2458.7
660.998,2448.1
661.079,2424.05