File: spectra/VLFR_08-PLA_bio_Raman_b1133382.csv
nm,Intensity
528.626,1863.35
528.795,1865.15
528.963,1865.35
529.132,1864.0
529.3,1863.3
529.469,1863.95
529.637,1863.25
529.806,1864.5
529.974,1863.7
530.143,1862.6
530.311,1864.75
530.48,1863.2
530.648,1864.8
530.816,1864.75
530.985,1864.6
531.153,1864.6
531.322,1866.75
531.49,1868.15
531.658,1874.8
531.827,2020.25
531.995,2725.7
532.164,3287.8
532.332,2170.25
532.5,1869.1
532.669,1865.55
532.837,1864.65
533.006,1866.45
533.174,1866.65
533.342,1869.3
533.511,1894.0
533.679,2086.25
533.847,2541.25
534.016,2849.2
534.184,2896.65
534.352,2843.9
534.521,2737.65
534.689,2712.3
534.857,2659.3
535.025,2669.0
535.194,2627.2
535.362,2598.2
535.53,2611.7
535.699,2521.45
535.867,2468.25
536.035,2430.8
536.203,2427.3
536.372,2473.7
536.54,2483.25
536.708,2474.7
536.876,2423.4
537.044,2384.9
537.213,2358.9
537.381,2363.8
537.549,2391.35
537.717,2396.55
537.885,2429.4
538.054,2409.75
538.222,2380.5
538.39,2326.75
538.558,2300.25
538.726,2288.05
538.894,2282.2
539.063,2281.8
539.231,2266.75
539.399,2260.25
539.567,2231.0
539.735,2218.55
539.903,2206.75
540.071,2218.5
540.239,2249.95
540.408,2298.55
540.576,2376.2
540.744,2423.95
540.912,2406.2
541.08,2403.4
541.248,2370.85
541.416,2339.45
541.584,2307.25
541.752,2258.9
541.92,2256.65
542.088,2252.55
542.256,2248.15
542.424,2241.3
542.592,2242.85
542.76,2255.8
542.928,2284.15
543.096,2307.4
543.264,2403.0
543.432,2518.45
543.6,2578.55
543.768,2609.65
543.936,2624.45
544.104,2580.6
544.272,2436.55
544.44,2322.05
544.608,2268.75
544.776,2256.0
544.944,2245.3
545.112,2232.6
545.28,2224.2
545.448,2210.55
545.616,2212.65
545.784,2214.75
545.951,2208.75
546.119,2208.6
546.287,2219.85
546.455,2218.75
546.623,2223.35
546.791,2237.05
546.959,2238.2
547.127,2261.7
547.294,2243.75
547.462,2235.5
547.63,2228.5
547.798,2223.5
547.966,2227.25
548.134,2215.5
548.301,2229.65
548.469,2226.95
548.637,2246.0
548.805,2249.75
548.972,2248.65
549.14,2248.45
549.308,2242.35
549.476,2245.25
549.644,2235.6
549.811,2237.15
549.979,2244.55
550.147,2248.7
550.315,2256.8
550.482,2254.5
550.65,2255.3
550.818,2259.0
550.985,2274.95
551.153,2282.05
551.321,2275.85
551.488,2289.15
551.656,2304.7
551.824,2321.95
551.991,2324.4
552.159,2334.95
552.327,2339.9
552.494,2343.25
552.662,2335.65
552.83,2358.8
552.997,2380.35
553.165,2368.75
553.333,2320.45
553.5,2300.25
553.668,2338.8
553.835,2401.15
554.003,2401.1
554.171,2382.1
554.338,2342.55
554.506,2332.45
554.673,2313.65
554.841,2291.55
555.008,2287.45
555.176,2273.6
555.343,2258.4
555.511,2255.75
555.679,2246.8
555.846,2246.3
556.014,2249.1
556.181,2256.35
556.349,2255.3
556.516,2265.25
556.684,2261.6
556.851,2269.55
557.018,2285.0
557.186,2327.8
557.353,2351.15
557.521,2435.0
557.688,2631.6
557.856,3026.6
558.023,3557.05
558.191,3550.55
558.358,3042.6
558.525,2611.95
558.693,2442.15
558.86,2401.4
559.028,2390.5
559.195,2400.6
559.362,2390.1
559.53,2395.2
559.697,2409.85
559.864,2364.6
560.032,2338.15
560.199,2325.7
560.366,2301.4
560.534,2314.65
560.701,2308.35
560.868,2301.05
561.036,2291.2
561.203,2290.7
561.37,2275.35
561.538,2284.5
561.705,2293.15
561.872,2294.45
562.039,2291.65
562.207,2291.4
562.374,2308.8
562.541,2318.75
562.708,2339.8
562.876,2401.15
563.043,2452.7
563.21,2561.4
563.377,2698.85
563.545,2696.3
563.712,2577.05
563.879,2481.8
564.046,2418.05
564.213,2376.1
564.38,2372.6
564.548,2398.35
564.715,2466.25
564.882,2543.95
565.049,2598.65
565.216,2586.65
565.383,2524.2
565.551,2517.35
565.718,2539.7
565.885,2641.4
566.052,2781.15
566.219,2802.6
566.386,2701.25
566.553,2561.55
566.72,2442.35
566.887,2361.25
567.054,2342.15
567.221,2335.8
567.388,2341.75
567.555,2359.9
567.722,2396.8
567.889,2420.4
568.057,2412.05
568.224,2384.3
568.391,2373.35
568.558,2376.05
568.725,2370.45
568.892,2395.0
569.058,2396.9
569.225,2382.05
569.392,2366.7
569.559,2346.35
569.726,2352.3
569.893,2344.65
570.06,2326.55
570.227,2342.55
570.394,2345.65
570.561,2347.3
570.728,2359.75
570.895,2362.95
571.062,2381.05
571.229,2438.6
571.395,2566.35
571.562,2636.1
571.729,2627.7
571.896,2559.15
572.063,2500.85
572.23,2461.05
572.397,2439.65
572.563,2431.75
572.73,2425.9
572.897,2442.55
573.064,2441.25
573.231,2456.0
573.397,2472.7
573.564,2487.25
573.731,2501.1
573.898,2484.05
574.064,2481.45
574.231,2496.95
574.398,2521.85
574.565,2572.2
574.731,2539.3
574.898,2455.85
575.065,2398.9
575.232,2373.35
575.398,2360.2
575.565,2362.4
575.732,2355.8
575.898,2385.7
576.065,2407.75
576.232,2492.9
576.398,2684.15
576.565,2890.05
576.732,2989.95
576.898,2979.45
577.065,2845.15
577.232,2651.9
577.398,2501.8
577.565,2409.65
577.731,2395.55
577.898,2363.4
578.065,2367.3
578.231,2368.75
578.398,2338.8
578.564,2347.6
578.731,2338.35
578.897,2338.6
579.064,2348.2
579.23,2330.6
579.397,2330.8
579.563,2335.9
579.73,2347.4
579.896,2334.1
580.063,2331.3
580.229,2347.6
580.396,2340.55
580.562,2339.05
580.729,2347.25
580.895,2337.25
581.062,2332.9
581.228,2340.2
581.395,2338.2
581.561,2337.0
581.728,2341.3
581.894,2328.45
582.06,2350.15
582.227,2336.25
582.393,2331.6
582.56,2330.25
582.726,2341.6
582.892,2351.7
583.059,2348.85
583.225,2341.6
583.391,2348.35
583.558,2341.5
583.724,2348.6
583.89,2344.1
584.057,2352.35
584.223,2351.05
584.389,2363.45
584.556,2343.45
584.722,2344.9
584.888,2342.8
585.054,2335.2
585.221,2348.6
585.387,2346.35
585.553,2353.6
585.719,2358.0
585.886,2359.25
586.052,2358.3
586.218,2365.3
586.384,2406.8
586.55,2469.4
586.717,2552.3
586.883,2622.1
587.049,2706.85
587.215,2809.45
587.381,2903.2
587.548,2884.25
587.714,2796.15
587.88,2667.05
588.046,2512.75
588.212,2439.15
588.378,2383.0
588.544,2383.2
588.71,2360.6
588.876,2335.6
589.043,2334.0
589.209,2331.85
589.375,2331.7
589.541,2334.7
589.707,2322.35
589.873,2334.35
590.039,2325.2
590.205,2326.5
590.371,2340.55
590.537,2329.9
590.703,2335.65
590.869,2329.95
591.035,2323.55
591.201,2316.05
591.367,2336.25
591.533,2332.8
591.699,2322.9
591.865,2333.1
592.031,2320.65
592.197,2345.35
592.363,2321.6
592.529,2334.85
592.694,2343.4
592.86,2342.3
593.026,2334.9
593.192,2318.5
593.358,2331.6
593.524,2327.6
593.69,2333.8
593.856,2329.15
594.021,2313.8
594.187,2319.05
594.353,2317.4
594.519,2325.05
594.685,2318.5
594.851,2329.95
595.016,2325.9
595.182,2318.45
595.348,2332.35
595.514,2320.9
595.68,2324.4
595.845,2333.55
596.011,2326.9
596.177,2327.6
596.342,2339.05
596.508,2330.35
596.674,2333.75
596.84,2313.35
597.005,2330.95
597.171,2340.75
597.337,2316.8
597.502,2336.0
597.668,2329.5
597.834,2322.25
597.999,2341.65
598.165,2337.85
598.331,2321.6
598.496,2325.05
598.662,2323.6
598.828,2329.55
598.993,2328.1
599.159,2334.75
599.324,2323.8
599.49,2315.6
599.656,2334.9
599.821,2334.5
599.987,2323.6
600.152,2334.6
600.318,2334.55
600.483,2324.75
600.649,2333.7
600.814,2344.8
600.98,2336.85
601.145,2317.65
601.311,2338.45
601.476,2313.05
601.642,2330.0
601.807,2327.05
601.973,2327.8
602.138,2323.15
602.304,2325.15
602.469,2327.6
602.635,2326.75
602.8,2323.65
602.965,2326.1
603.131,2318.85
603.296,2329.65
603.462,2331.55
603.627,2325.55
603.792,2331.95
603.958,2324.8
604.123,2323.9
604.288,2321.1
604.454,2319.55
604.619,2329.25
604.784,2323.0
604.95,2308.45
605.115,2325.9
605.28,2324.95
605.446,2310.3
605.611,2316.75
605.776,2311.05
605.941,2303.15
606.107,2328.3
606.272,2311.35
606.437,2320.9
606.602,2322.1
606.767,2325.9
606.933,2322.15
607.098,2324.5
607.263,2321.4
607.428,2310.45
607.593,2315.3
607.759,2310.85
607.924,2317.9
608.089,2322.2
608.254,2311.8
608.419,2311.1
608.584,2324.05
608.749,2307.5
608.915,2317.0
609.08,2304.75
609.245,2297.3
609.41,2309.8
609.575,2300.0
609.74,2314.15
609.905,2310.05
610.07,2304.85
610.235,2306.8
610.4,2311.1
610.565,2325.65
610.73,2306.5
610.895,2328.15
611.06,2307.4
611.225,2304.95
611.39,2313.6
611.555,2314.1
611.72,2307.7
611.885,2307.8
612.05,2292.15
612.215,2299.35
612.38,2302.9
612.545,2298.85
612.71,2308.35
612.875,2306.7
613.04,2304.65
613.204,2300.6
613.369,2296.2
613.534,2293.4
613.699,2289.75
613.864,2293.15
614.029,2303.05
614.194,2299.05
614.358,2295.8
614.523,2304.7
614.688,2292.65
614.853,2303.45
615.018,2303.75
615.182,2294.05
615.347,2289.8
615.512,2301.4
615.677,2300.25
615.841,2316.05
616.006,2306.45
616.171,2290.5
616.336,2308.3
616.5,2297.15
616.665,2307.45
616.83,2302.75
616.994,2291.25
617.159,2296.85
617.324,2306.1
617.489,2314.2
617.653,2299.05
617.818,2313.35
617.982,2288.85
618.147,2297.7
618.312,2292.85
618.476,2299.45
618.641,2306.7
618.805,2283.8
618.97,2283.1
619.135,2289.5
619.299,2280.35
619.464,2280.5
619.628,2301.1
619.793,2285.45
619.957,2281.85
620.122,2289.15
620.286,2288.65
620.451,2282.2
620.615,2285.85
620.78,2290.05
620.944,2289.45
621.109,2279.7
621.273,2292.1
621.438,2279.3
621.602,2301.75
621.767,2289.4
621.931,2292.9
622.095,2309.65
622.26,2304.85
622.424,2322.4
622.589,2363.6
622.753,2365.5
622.917,2391.2
623.082,2405.55
623.246,2395.75
623.41,2389.45
623.575,2360.3
623.739,2378.6
623.903,2348.8
624.068,2329.8
624.232,2325.25
624.396,2304.65
624.561,2312.35
624.725,2290.15
624.889,2292.75
625.053,2290.9
625.218,2267.35
625.382,2276.4
625.546,2291.3
625.71,2271.0
625.875,2284.9
626.039,2287.15
626.203,2296.5
626.367,2277.4
626.531,2277.2
626.695,2281.25
626.86,2285.2
627.024,2310.5
627.188,2304.25
627.352,2292.55
627.516,2316.95
627.68,2334.9
627.844,2381.4
628.008,2475.9
628.172,2652.4
628.337,2838.5
628.501,2914.1
628.665,2913.85
628.829,2833.7
628.993,2768.65
629.157,2769.15
629.321,2789.65
629.485,2756.9
629.649,2747.65
629.813,2798.45
629.977,2820.1
630.141,2842.3
630.305,2961.8
630.469,3189.7
630.633,3692.3
630.797,4476.3
630.96,5634.6
631.124,6142.7
631.288,5838.8
631.452,4981.7
631.616,4278.65
631.78,3789.5
631.944,3471.9
632.108,3274.95
632.272,3150.75
632.435,3039.6
632.599,3028.05
632.763,3121.95
632.927,3362.45
633.091,3578.95
633.254,3796.1
633.418,3760.7
633.582,3570.5
633.746,3406.3
633.91,3180.5
634.073,2957.45
634.237,2789.25
634.401,2617.9
634.564,2474.95
634.728,2432.25
634.892,2368.75
635.056,2345.35
635.219,2316.15
635.383,2302.7
635.547,2278.55
635.71,2276.65
635.874,2260.95
636.038,2258.7
636.201,2254.3
636.365,2234.7
636.528,2255.7
636.692,2237.4
636.856,2241.6
637.019,2219.85
637.183,2232.9
637.346,2217.6
637.51,2233.25
637.673,2230.65
637.837,2224.55
638.0,2220.85
638.164,2229.9
638.327,2223.95
638.491,2214.85
638.654,2222.15
638.818,2208.55
638.981,2217.3
639.145,2212.05
639.308,2221.55
639.472,2210.3
639.635,2210.05
639.799,2213.1
639.962,2198.55
640.125,2206.45
640.289,2213.0
640.452,2206.75
640.616,2205.0
640.779,2186.0
640.942,2200.75
641.106,2207.4
641.269,2198.65
641.432,2210.95
641.596,2203.3
641.759,2214.85
641.922,2195.2
642.085,2196.7
642.249,2211.05
642.412,2214.5
642.575,2197.95
642.738,2205.55
642.902,2194.0
643.065,2200.9
643.228,2184.7
643.391,2189.8
643.555,2185.45
643.718,2186.2
643.881,2180.55
644.044,2187.4
644.207,2174.95
644.37,2175.25
644.534,2175.0
644.697,2173.15
644.86,2161.5
645.023,2153.6
645.186,2160.65
645.349,2166.25
645.512,2165.45
645.675,2170.55
645.838,2144.05
646.001,2151.8
646.164,2159.2
646.327,2145.6
646.49,2149.8
646.653,2157.3
646.816,2157.0
646.979,2155.35
647.142,2148.5
647.305,2149.15
647.468,2149.8
647.631,2146.7
647.794,2144.65
647.957,2139.5
648.12,2129.75
648.283,2136.2
648.446,2141.85
648.609,2134.4
648.772,2141.4
648.935,2140.3
649.098,2137.7
649.26,2138.85
649.423,2126.4
649.586,2130.05
649.749,2121.85
649.912,2129.15
650.075,2131.85
650.237,2130.1
650.4,2119.5
650.563,2137.85
650.726,2130.65
650.888,2117.85
651.051,2132.2
651.214,2123.0
651.377,2116.0
651.539,2129.25
651.702,2117.65
651.865,2108.55
652.027,2118.6
652.19,2129.15
652.353,2117.9
652.515,2113.8
652.678,2111.85
652.841,2101.2
653.003,2123.4
653.166,2116.8
653.329,2101.05
653.491,2101.85
653.654,2111.2
653.816,2107.75
653.979,2104.65
654.142,2106.6
654.304,2100.4
654.467,2098.35
654.629,2102.05
654.792,2097.35
654.954,2112.15
655.117,2095.35
655.279,2099.45
655.442,2088.9
655.604,2095.15
655.767,2098.35
655.929,2088.35
656.091,2082.75
656.254,2081.7
656.416,2081.45
656.579,2101.2
656.741,2102.75
656.904,2082.35
657.066,2089.95
657.228,2098.2
657.391,2088.05
657.553,2095.65
657.715,2105.65
657.878,2088.75
658.04,2092.85
658.202,2083.6
658.365,2070.1
658.527,2083.35
658.689,2072.0
658.851,2078.8
659.014,2082.0
659.176,2067.3
659.338,2064.35
659.5,2064.15
659.663,2067.9
659.825,2065.5
659.987,2059.85
660.149,2072.95
660.311,2069.15
660.474,2063.1
660.636,2062.5
660.798,2066.6
660.96,2050.0
661.041,2061.05