File: spectra/VLFR_08-PLA_bio_Raman_a9279bd1.csv
nm,Intensity
526.495,828.9
526.632,828.3
526.768,827.7
526.905,828.0
527.042,828.4
527.179,829.5
527.315,827.9
527.452,829.3
527.589,829.5
527.725,828.5
527.862,828.3
527.999,829.5
528.136,828.9
528.272,828.1
528.409,829.7
528.546,828.1
528.682,828.8
528.819,827.9
528.955,828.4
529.092,830.0
529.229,827.5
529.365,829.0
529.502,827.9
529.639,827.3
529.775,828.5
529.912,828.6
530.048,829.0
530.185,828.6
530.321,828.3
530.458,827.5
530.594,829.7
530.731,829.1
530.867,828.6
531.004,828.5
531.14,828.8
531.277,827.1
531.413,829.0
531.55,828.3
531.686,826.3
531.823,828.8
531.959,830.5
532.096,857.8
532.232,863.1
532.369,834.6
532.505,830.1
532.641,827.9
532.778,828.7
532.914,829.3
533.051,827.9
533.187,828.1
533.323,829.4
533.46,828.7
533.596,830.9
533.732,845.4
533.869,907.9
534.005,1010.2
534.141,1050.8
534.278,1039.7
534.414,1021.6
534.55,1006.2
534.687,996.0
534.823,983.4
534.959,971.5
535.095,961.7
535.232,955.9
535.368,949.1
535.504,946.9
535.64,940.7
535.777,933.1
535.913,930.4
536.049,920.8
536.185,923.2
536.321,926.4
536.457,929.6
536.594,930.5
536.73,933.2
536.866,930.0
537.002,920.2
537.138,913.8
537.274,916.6
537.41,916.4
537.547,915.4
537.683,916.4
537.819,915.9
537.955,912.6
538.091,910.3
538.227,905.4
538.363,907.4
538.499,901.2
538.635,898.6
538.771,900.8
538.907,898.8
539.043,896.4
539.179,898.4
539.315,897.0
539.451,897.6
539.587,895.3
539.723,889.6
539.859,886.2
539.995,887.7
540.131,886.1
540.267,892.3
540.403,900.0
540.539,904.9
540.675,910.9
540.811,909.9
540.947,914.4
541.083,906.4
541.219,909.6
541.354,908.8
541.49,903.6
541.626,901.3
541.762,898.3
541.898,895.3
542.034,895.0
542.17,889.8
542.305,889.2
542.441,894.4
542.577,892.4
542.713,893.5
542.849,894.1
542.984,898.4
543.12,901.5
543.256,907.5
543.392,919.4
543.528,929.6
543.663,928.0
543.799,932.4
543.935,926.4
544.071,932.2
544.206,925.5
544.342,911.5
544.478,906.0
544.613,899.5
544.749,897.0
544.885,893.9
545.02,893.5
545.156,891.5
545.292,889.8
545.427,888.2
545.563,891.4
545.699,887.0
545.834,886.5
545.97,888.9
546.106,885.2
546.241,887.9
546.377,885.5
546.512,885.8
546.648,888.3
546.784,889.9
546.919,890.8
547.055,892.2
547.19,894.6
547.326,892.2
547.461,892.2
547.597,888.8
547.732,886.3
547.868,891.1
548.003,890.1
548.139,888.3
548.274,890.0
548.41,889.4
548.545,891.4
548.681,890.4
548.816,892.5
548.952,890.3
549.087,892.9
549.223,892.3
549.358,893.3
549.494,892.5
549.629,893.9
549.764,889.1
549.9,891.8
550.035,894.6
550.171,891.0
550.306,895.7
550.441,892.7
550.577,890.2
550.712,893.4
550.847,897.1
550.983,891.4
551.118,898.0
551.253,899.5
551.389,899.3
551.524,897.9
551.659,900.0
551.795,899.9
551.93,897.8
552.065,900.4
552.201,902.7
552.336,902.0
552.471,900.4
552.606,907.7
552.742,903.4
552.877,906.6
553.012,902.6
553.147,902.5
553.283,902.6
553.418,897.1
553.553,896.5
553.688,900.3
553.823,906.8
553.959,910.4
554.094,913.6
554.229,912.0
554.364,909.9
554.499,903.7
554.634,901.6
554.769,900.4
554.905,896.3
555.04,899.1
555.175,893.9
555.31,892.2
555.445,891.7
555.58,890.7
555.715,889.9
555.85,892.4
555.985,889.1
556.121,892.8
556.256,889.1
556.391,893.0
556.526,892.5
556.661,890.7
556.796,895.4
556.931,894.2
557.066,899.1
557.201,902.5
557.336,908.2
557.471,916.0
557.606,928.5
557.741,953.7
557.876,992.5
558.011,1046.0
558.146,1066.3
558.281,1033.6
558.416,971.1
558.551,933.3
558.685,919.6
558.82,916.4
558.955,912.7
559.09,909.5
559.225,909.2
559.36,910.8
559.495,906.9
559.63,906.4
559.765,903.6
559.9,901.3
560.034,903.7
560.169,902.2
560.304,898.4
560.439,899.0
560.574,896.9
560.709,900.2
560.843,897.0
560.978,896.1
561.113,893.4
561.248,893.5
561.383,894.8
561.517,896.2
561.652,896.4
561.787,894.6
561.922,894.8
562.057,897.8
562.191,896.7
562.326,891.7
562.461,897.1
562.596,901.1
562.73,904.2
562.865,907.3
563.0,913.3
563.134,920.1
563.269,933.5
563.404,944.5
563.539,949.0
563.673,935.5
563.808,928.4
563.943,923.1
564.077,913.2
564.212,907.5
564.346,911.3
564.481,909.9
564.616,911.9
564.75,921.0
564.885,925.7
565.02,936.3
565.154,935.2
565.289,931.3
565.423,927.4
565.558,926.9
565.693,929.0
565.827,935.3
565.962,944.5
566.096,960.3
566.231,961.8
566.365,956.2
566.5,938.0
566.634,920.6
566.769,913.6
566.903,907.9
567.038,906.9
567.172,903.8
567.307,904.9
567.441,903.7
567.576,906.5
567.71,912.0
567.845,912.5
567.979,915.0
568.114,913.7
568.248,912.8
568.383,910.2
568.517,909.1
568.652,912.5
568.786,908.7
568.92,911.9
569.055,913.7
569.189,909.0
569.324,913.8
569.458,908.7
569.592,906.7
569.727,909.2
569.861,905.4
569.996,907.7
570.13,905.2
570.264,904.5
570.399,909.4
570.533,910.7
570.667,909.1
570.802,905.5
570.936,910.1
571.07,915.2
571.205,912.4
571.339,917.1
571.473,926.3
571.607,938.2
571.742,940.5
571.876,935.5
572.01,928.3
572.144,926.8
572.279,923.3
572.413,922.9
572.547,919.4
572.681,924.0
572.816,925.0
572.95,919.9
573.084,920.5
573.218,924.0
573.353,928.5
573.487,928.5
573.621,928.3
573.755,928.2
573.889,925.6
574.023,927.4
574.158,922.0
574.292,925.1
574.426,932.2
574.56,937.0
574.694,936.6
574.828,924.4
574.963,916.2
575.097,914.9
575.231,913.9
575.365,910.4
575.499,908.3
575.633,911.4
575.767,915.3
575.901,912.9
576.035,918.3
576.169,918.7
576.303,932.8
576.438,951.4
576.572,978.5
576.706,990.9
576.84,995.9
576.974,991.8
577.108,979.1
577.242,956.9
577.376,936.6
577.51,922.9
577.644,919.8
577.778,917.2
577.912,915.0
578.046,910.3
578.18,913.4
578.314,915.0
578.448,912.5
578.582,915.6
578.716,908.6
578.85,912.1
578.984,912.6
579.117,911.3
579.251,911.0
579.385,910.0
579.519,915.0
579.653,912.8
579.787,909.9
579.921,912.1
580.055,910.4
580.189,904.9
580.323,911.1
580.456,907.9
580.59,913.0
580.724,913.4
580.858,907.1
580.992,912.0
581.126,910.6
581.26,908.8
581.393,908.6
581.527,916.6
581.661,913.1
581.795,909.9
581.929,910.0
582.063,913.4
582.196,910.1
582.33,912.0
582.464,914.0
582.598,914.9
582.731,911.0
582.865,913.7
582.999,910.5
583.133,914.0
583.267,916.4
583.4,911.9
583.534,913.5
583.668,916.4
583.801,910.2
583.935,912.1
584.069,912.8
584.203,914.0
584.336,910.8
584.47,912.3
584.604,911.7
584.737,914.4
584.871,913.8
585.005,916.8
585.138,913.8
585.272,914.5
585.406,911.9
585.539,917.2
585.673,916.2
585.807,916.9
585.94,913.8
586.074,919.7
586.208,922.8
586.341,921.5
586.475,933.0
586.608,940.0
586.742,951.4
586.876,964.1
587.009,966.9
587.143,970.3
587.276,982.0
587.41,991.9
587.543,993.2
587.677,987.5
587.811,971.4
587.944,960.8
588.078,940.6
588.211,926.7
588.345,923.1
588.478,921.5
588.612,915.7
588.745,917.6
588.879,915.8
589.012,910.3
589.146,918.9
589.279,912.7
589.413,913.5
589.546,909.7
589.68,916.2
589.813,913.2
589.947,914.3
590.08,914.6
590.214,910.3
590.347,913.0
590.48,915.4
590.614,909.5
590.747,913.3
590.881,911.2
591.014,913.7
591.148,915.3
591.281,913.9
591.414,910.0
591.548,910.6
591.681,913.0
591.815,912.3
591.948,913.1
592.081,910.8
592.215,913.1
592.348,913.9
592.481,913.0
592.615,912.6
592.748,910.5
592.881,910.7
593.015,910.3
593.148,910.6
593.281,913.2
593.415,907.7
593.548,908.7
593.681,911.9
593.815,909.2
593.948,908.9
594.081,912.0
594.215,910.3
594.348,912.5
594.481,910.1
594.614,912.6
594.748,911.9
594.881,908.4
595.014,910.9
595.147,913.4
595.281,911.5
595.414,912.1
595.547,913.8
595.68,912.2
595.814,912.6
595.947,913.4
596.08,912.5
596.213,913.1
596.347,915.0
596.48,911.9
596.613,911.2
596.746,911.3
596.879,913.0
597.012,912.5
597.146,912.3
597.279,915.8
597.412,912.5
597.545,913.6
597.678,913.5
597.811,913.7
597.945,912.6
598.078,914.4
598.211,914.1
598.344,914.7
598.477,915.1
598.61,913.2
598.743,914.3
598.876,911.3
599.009,914.5
599.143,911.0
599.276,910.3
599.409,914.8
599.542,914.4
599.675,914.7
599.808,914.8
599.941,914.1
600.074,913.8
600.207,916.0
600.34,915.2
600.473,913.9
600.606,912.6
600.739,912.6
600.872,913.5
601.005,914.1
601.138,911.2
601.271,909.3
601.404,910.4
601.537,911.5
601.67,910.8
601.803,914.4
601.936,913.7
602.069,911.1
602.202,912.4
602.335,915.5
602.468,910.5
602.601,913.7
602.734,914.5
602.867,914.0
603.0,913.5
603.133,912.4
603.266,909.0
603.399,908.9
603.532,917.0
603.665,912.5
603.798,912.3
603.931,915.4
604.064,912.9
604.196,911.0
604.329,912.3
604.462,908.5
604.595,907.7
604.728,912.6
604.861,911.7
604.994,912.4
605.127,907.5
605.259,907.2
605.392,908.8
605.525,908.8
605.658,912.5
605.791,907.6
605.924,910.4
606.057,908.1
606.189,909.3
606.322,908.5
606.455,904.5
606.588,906.1
606.721,906.8
606.853,907.0
606.986,908.7
607.119,905.0
607.252,908.5
607.385,909.6
607.517,907.8
607.65,909.4
607.783,910.0
607.916,910.8
608.049,910.0
608.181,910.2
608.314,908.5
608.447,911.3
608.58,909.6
608.712,908.7
608.845,911.1
608.978,908.8
609.111,910.3
609.243,908.9
609.376,906.5
609.509,906.6
609.641,907.3
609.774,909.4
609.907,907.9
610.039,912.1
610.172,909.9
610.305,909.9
610.438,910.8
610.57,907.6
610.703,909.5
610.836,910.3
610.968,906.2
611.101,908.6
611.234,909.2
611.366,906.4
611.499,908.6
611.631,912.3
611.764,909.8
611.897,912.3
612.029,906.0
612.162,907.2
612.295,909.8
612.427,910.5
612.56,909.8
612.692,908.6
612.825,908.8
612.958,908.9
613.09,911.8
613.223,911.4
613.355,912.3
613.488,912.1
613.621,908.5
613.753,913.3
613.886,912.3
614.018,910.1
614.151,909.4
614.283,911.2
614.416,909.8
614.548,911.9
614.681,906.0
614.814,909.9
614.946,913.0
615.079,911.3
615.211,910.0
615.344,911.3
615.476,910.7
615.609,909.2
615.741,911.6
615.874,907.6
616.006,913.3
616.139,907.9
616.271,911.2
616.404,912.4
616.536,911.0
616.669,913.2
616.801,909.4
616.933,908.1
617.066,914.6
617.198,913.8
617.331,915.0
617.463,910.0
617.596,908.7
617.728,913.0
617.861,911.4
617.993,908.9
618.125,911.9
618.258,910.2
618.39,906.7
618.523,914.1
618.655,913.4
618.788,911.5
618.92,908.3
619.052,909.3
619.185,910.8
619.317,910.7
619.45,913.0
619.582,908.2
619.714,911.2
619.847,910.8
619.979,911.0
620.111,904.1
620.244,910.3
620.376,905.0
620.509,908.1
620.641,906.9
620.773,907.6
620.906,907.0
621.038,908.8
621.17,910.0
621.303,909.4
621.435,908.7
621.567,912.4
621.7,913.4
621.832,910.2
621.964,911.3
622.096,909.8
622.229,912.1
622.361,915.8
622.493,915.7
622.626,921.5
622.758,922.0
622.89,927.0
623.022,926.8
623.155,925.8
623.287,924.0
623.419,925.8
623.552,922.5
623.684,921.5
623.816,922.1
623.948,916.6
624.081,913.9
624.213,912.2
624.345,910.5
624.477,914.4
624.61,910.5
624.742,914.5
624.874,908.0
625.006,912.0
625.138,909.5
625.271,908.7
625.403,906.5
625.535,910.7
625.667,907.4
625.799,911.0
625.932,910.6
626.064,910.0
626.196,917.3
626.328,911.1
626.46,911.2
626.593,909.3
626.725,913.4
626.857,911.9
626.989,913.3
627.121,912.5
627.253,912.8
627.386,914.0
627.518,912.0
627.65,914.9
627.782,921.4
627.914,923.2
628.046,935.2
628.178,951.0
628.311,979.1
628.443,1001.1
628.575,1013.0
628.707,1006.9
628.839,996.3
628.971,984.8
629.103,977.1
629.235,977.9
629.367,983.2
629.5,981.5
629.632,983.1
629.764,982.8
629.896,986.5
630.028,992.5
630.16,994.1
630.292,1007.4
630.424,1022.7
630.556,1057.8
630.688,1112.8
630.82,1222.7
630.952,1373.1
631.084,1492.8
631.216,1484.7
631.349,1404.6
631.481,1294.7
631.613,1205.2
631.745,1139.7
631.877,1102.4
632.009,1076.8
632.141,1053.0
632.273,1048.3
632.405,1039.2
632.537,1030.3
632.669,1029.3
632.801,1051.3
632.933,1078.7
633.065,1113.5
633.197,1140.5
633.329,1143.1
633.461,1139.2
633.593,1127.4
633.725,1099.0
633.857,1068.1
633.989,1042.2
634.121,1020.0
634.253,990.2
634.385,966.2
634.517,950.7
634.649,942.8
634.781,935.3
634.912,925.6
635.044,922.9
635.176,920.7
635.308,915.1
635.44,917.2
635.572,913.3
635.704,912.5
635.836,908.9
635.968,911.2
636.1,908.6
636.232,908.7
636.364,906.1
636.496,908.1
636.628,906.3
636.76,903.8
636.891,907.3
637.023,905.1
637.155,902.3
637.287,903.9
637.419,903.7
637.551,907.0
637.683,904.0
637.815,901.7
637.947,904.7
638.078,903.3
638.21,904.0
638.342,901.6
638.474,899.7
638.606,903.0
638.738,902.4
638.87,899.3
639.002,902.8
639.133,903.5
639.265,898.8
639.397,900.2
639.529,900.9
639.661,904.5
639.793,899.1
639.924,900.8
640.056,897.9
640.188,901.9
640.32,901.2
640.452,905.0
640.584,903.6
640.715,900.4
640.847,903.2
640.979,901.7
641.111,902.3
641.243,899.9
641.374,899.9
641.506,901.4
641.638,902.6
641.77,901.7
641.902,904.3
642.033,903.6
642.165,902.0
642.297,900.7
642.429,899.1
642.561,901.8
642.692,899.1
642.824,900.2
642.956,899.3
643.088,898.2
643.219,902.4
643.351,899.2
643.483,899.6
643.615,898.6
643.746,897.6
643.878,897.6
644.01,895.8
644.142,891.8
644.273,895.5
644.405,894.7
644.537,895.1
644.669,896.2
644.8,896.9
644.932,892.6
645.064,893.5
645.195,896.9
645.327,894.7
645.459,892.5
645.591,893.5
645.722,895.4
645.854,891.9
645.986,894.8
646.117,893.7
646.249,892.1
646.381,893.7
646.512,894.1
646.644,891.1
646.776,891.4
646.908,891.4
647.039,892.5
647.171,893.7
647.303,895.8
647.434,892.4
647.566,893.7
647.698,892.9
647.829,892.4
647.961,891.7
648.093,895.5
648.224,892.5
648.356,894.3
648.488,890.2
648.619,895.6
648.751,892.8
648.883,890.1
649.014,893.7
649.146,890.7
649.277,888.0
649.409,892.2
649.541,890.3
649.672,888.5
649.804,888.7
649.936,890.6
650.067,890.2
650.199,891.8
650.33,891.0
650.462,888.8
650.594,887.9
650.725,887.8
650.857,887.6
650.988,891.0
651.12,888.9
651.252,889.3
651.383,887.0
651.515,889.3
651.646,888.7
651.778,888.5
651.91,888.4
652.041,891.0
652.173,889.5
652.304,887.5
652.436,893.5
652.568,887.6
652.699,889.9
652.831,889.7
652.962,891.1
653.094,889.8
653.225,888.0
653.357,888.2
653.489,889.7
653.62,887.2
653.752,889.1
653.883,888.0
654.015,889.1
654.146,891.4
654.278,888.3
654.409,888.6
654.541,888.7
654.672,886.5
654.804,887.0
654.935,887.4
655.067,886.1
655.199,888.0
655.33,888.1
655.462,889.4
655.593,887.0
655.725,886.9
655.856,886.1
655.988,887.6
656.119,886.3
656.251,887.1
656.382,890.4
656.514,885.6
656.645,889.7
656.777,886.9
656.908,891.0
657.04,887.4
657.171,886.8
657.303,886.0
657.434,891.8
657.566,885.8
657.697,890.8
657.829,886.8
657.96,885.1
658.092,887.0
658.223,886.5
658.355,887.4
658.486,886.7
658.617,889.2
658.749,885.7
658.88,888.2
659.012,887.3
659.143,885.8
659.275,883.3
659.406,888.1
659.538,886.6
659.669,885.7
659.801,886.8
659.932,886.9
660.064,882.4
660.195,888.3
660.326,886.1
660.458,886.8
660.589,883.6
660.721,885.8
660.852,885.8
660.984,888.2
661.115,885.9
661.246,885.0
661.378,882.0
661.509,882.4
661.641,883.4
661.772,886.5
661.904,885.7
662.035,882.1
662.166,883.6
662.298,883.6
662.429,882.2
662.561,882.0
662.692,883.8
662.823,881.7
662.955,883.1
663.086,881.8