File: spectra/VLFR_07-PET_nobio_Raman_cb905d4a.csv
nm,Intensity
791.377,11560.4
791.652,11253.4
791.927,11084.3
792.202,10791.4
792.477,10454.6
792.752,10277.3
793.027,10181.7
793.301,10001.8
793.576,9936.94
793.851,9808.64
794.126,9689.74
794.401,9622.06
794.676,9592.36
794.951,9521.26
795.225,9432.74
795.5,9331.72
795.775,9324.04
796.05,9419.92
796.325,9377.38
796.599,9345.38
796.874,9336.46
797.149,9286.0
797.424,9317.56
797.698,9364.7
797.973,9268.26
798.248,9215.56
798.523,9310.18
798.797,9180.22
799.072,9201.54
799.347,9223.6
799.622,9268.12
799.896,9150.94
800.171,9176.66
800.446,9159.0
800.72,9244.86
800.995,9129.22
801.27,9091.06
801.544,9074.44
801.819,9240.78
802.094,9143.12
802.368,9163.44
802.643,9102.78
802.918,9034.3
803.192,8833.24
803.467,8841.02
803.742,8888.7
804.016,8884.52
804.291,8850.32
804.565,8864.96
804.84,8771.48
805.114,8677.16
805.389,8632.66
805.664,8622.12
805.938,8692.1
806.213,8667.1
806.487,8617.42
806.762,8622.64
807.036,8569.88
807.311,8575.3
807.585,8588.52
807.86,8542.64
808.134,8510.68
808.409,8531.36
808.683,8396.1
808.958,8419.52
809.232,8421.04
809.507,8479.44
809.781,8532.98
810.056,8394.52
810.33,8346.08
810.605,8288.66
810.879,8243.9
811.153,8313.7
811.428,8329.2
811.702,8248.48
811.977,8177.76
812.251,8264.86
812.525,8241.12
812.8,8209.76
813.074,8181.48
813.349,8099.78
813.623,8076.2
813.897,8228.16
814.172,8179.96
814.446,8045.38
814.72,7953.66
814.995,8031.56
815.269,8000.74
815.543,8020.72
815.818,8073.78
816.092,7983.0
816.366,7881.1
816.64,7873.24
816.915,7943.8
817.189,8000.2
817.463,7896.24
817.737,7835.12
818.012,7800.76
818.286,7829.68
818.56,7795.04
818.834,7763.8
819.109,7844.7
819.383,7797.84
819.657,7735.14
819.931,7774.08
820.205,7727.5
820.48,7726.6
820.754,7750.74
821.028,7744.0
821.302,7688.5
821.576,7654.76
821.85,7651.22
822.125,7599.1
822.399,7498.34
822.673,7474.88
822.947,7564.78
823.221,7553.44
823.495,7559.12
823.769,7613.0
824.043,7470.6
824.317,7459.28
824.591,7511.84
824.865,7497.36
825.14,7523.08
825.414,7639.78
825.688,7678.36
825.962,7829.34
826.236,7694.86
826.51,7519.76
826.784,7397.12
827.058,7336.18
827.332,7360.0
827.606,7320.12
827.88,7358.46
828.154,7305.84
828.428,7344.96
828.702,7353.06
828.976,7320.54
829.249,7232.52
829.523,7227.44
829.797,7259.24
830.071,7301.42
830.345,7327.26
830.619,7331.44
830.893,7332.38
831.167,7281.48
831.441,7183.7
831.715,7165.1
831.988,7161.58
832.262,7140.56
832.536,7121.62
832.81,7126.12
833.084,7078.12
833.358,7068.18
833.632,7041.36
833.905,7023.84
834.179,7059.44
834.453,7038.8
834.727,6972.24
835.001,7002.22
835.274,6983.58
835.548,6947.46
835.822,6891.02
836.096,6937.96
836.369,7019.18
836.643,7100.56
836.917,7098.32
837.191,7071.4
837.464,7046.6
837.738,7000.3
838.012,7045.28
838.285,7012.36
838.559,7060.96
838.833,7013.92
839.106,6983.56
839.38,6985.62
839.654,6993.9
839.927,7034.26
840.201,7010.3
840.475,7054.12
840.748,7085.26
841.022,7181.24
841.295,7298.14
841.569,7367.46
841.843,7261.22
842.116,7097.62
842.39,6953.04
842.663,6927.56
842.937,6893.54
843.211,6965.64
843.484,6951.46
843.758,6903.42
844.031,6812.1
844.305,6796.42
844.578,6757.82
844.852,6701.26
845.125,6627.54
845.399,6632.46
845.672,6643.02
845.946,6616.86
846.219,6515.74
846.493,6517.18
846.766,6540.18
847.039,6566.74
847.313,6549.34
847.586,6492.04
847.86,6465.14
848.133,6431.46
848.407,6452.16
848.68,6460.82
848.953,6515.18
849.227,6522.24
849.5,6470.06
849.773,6477.16
850.047,6480.84
850.32,6404.36
850.593,6434.84
850.867,6431.22
851.14,6410.96
851.413,6436.8
851.687,6450.72
851.96,6407.22
852.233,6381.8
852.507,6380.86
852.78,6370.08
853.053,6406.36
853.326,6433.62
853.6,6414.46
853.873,6328.44
854.146,6298.3
854.419,6324.28
854.693,6337.16
854.966,6278.74
855.239,6331.86
855.512,6312.12
855.785,6260.56
856.059,6268.0
856.332,6307.42
856.605,6296.56
856.878,6225.86
857.151,6199.66
857.424,6251.66
857.698,6278.58
857.971,6282.74
858.244,6293.96
858.517,6366.72
858.79,6355.3
859.063,6308.66
859.336,6345.14
859.609,6400.34
859.882,6460.86
860.155,6478.28
860.428,6384.84
860.701,6331.48
860.974,6340.32
861.247,6302.46
861.52,6237.58
861.793,6182.6
862.066,6137.5
862.339,6100.0
862.612,6066.6
862.885,6089.5
863.158,6069.1
863.431,6065.68
863.704,6028.88
863.977,6096.06
864.25,6154.44
864.523,6144.1
864.796,6154.62
865.069,6128.46
865.342,6111.52
865.615,6056.72
865.888,6025.78
866.16,5959.92
866.433,5917.64
866.706,5938.22
866.979,5968.3
867.252,5986.88
867.525,5989.46
867.798,5975.96
868.07,5896.36
868.343,5887.68
868.616,5926.18
868.889,5946.44
869.162,5971.12
869.434,5937.0
869.707,5897.92
869.98,5923.76
870.253,5940.36
870.525,5999.34
870.798,6043.66
871.071,6083.06
871.344,6103.22
871.616,6095.68
871.889,6144.2
872.162,6188.64
872.434,6257.76
872.707,6326.0
872.98,6305.38
873.252,6280.04
873.525,6259.66
873.798,6220.76
874.07,6097.22
874.343,6047.2
874.615,6018.32
874.888,6057.04
875.161,5963.2
875.433,5888.78
875.706,5831.34
875.978,5853.22
876.251,5830.6
876.524,5787.38
876.796,5772.66
877.069,5765.64
877.341,5722.7
877.614,5750.34
877.886,5745.24
878.159,5713.16
878.431,5694.4
878.704,5726.04
878.976,5717.72
879.249,5694.14
879.521,5640.1
879.794,5653.7
880.066,5656.32
880.338,5695.44
880.611,5648.08
880.883,5615.54
881.156,5643.72
881.428,5654.82
881.7,5684.1
881.973,5654.38
882.245,5652.84
882.518,5658.38
882.79,5685.54
883.062,5650.78
883.335,5585.26
883.607,5566.48
883.879,5595.76
884.152,5571.2
884.424,5589.94
884.696,5585.24
884.968,5596.22
885.241,5639.1
885.513,5605.38
885.785,5559.46
886.058,5525.62
886.33,5494.72
886.602,5508.48
886.874,5533.1
887.146,5543.94
887.419,5502.28
887.691,5392.28
887.963,5388.68
888.235,5434.68
888.507,5441.9
888.78,5446.88
889.052,5428.26
889.324,5384.1
889.596,5395.12
889.868,5405.78
890.14,5408.3
890.412,5385.96
890.684,5363.58
890.957,5338.14
891.229,5353.9
891.501,5358.54
891.773,5372.94
892.045,5380.32
892.317,5373.26
892.589,5339.54
892.861,5303.66
893.133,5309.22
893.405,5310.76
893.677,5307.02
893.949,5290.64
894.221,5226.48
894.493,5196.4
894.765,5213.76
895.037,5242.38
895.309,5235.98
895.581,5258.9
895.853,5280.9
896.125,5236.38
896.397,5231.9
896.668,5216.26
896.94,5248.34
897.212,5349.68
897.484,5463.44
897.756,5642.1
898.028,5829.5
898.3,5896.9
898.571,5899.7
898.843,5828.3
899.115,5738.1
899.387,5648.86
899.659,5542.28
899.931,5412.18
900.202,5278.98
900.474,5168.94
900.746,5095.0
901.018,5081.0
901.289,5071.86
901.561,5055.88
901.833,5033.14
902.105,5046.3
902.376,5011.16
902.648,5017.9
902.92,5033.52
903.191,5043.5
903.463,5041.86
903.735,5054.18
904.006,5029.94
904.278,4975.9
904.55,4960.3
904.821,4963.56
905.093,4952.54
905.365,4964.18
905.636,4988.32
905.908,5028.92
906.179,5097.26
906.451,5150.12
906.722,5254.88
906.994,5364.88
907.266,5399.8
907.537,5406.8
907.809,5490.06
908.08,5514.94
908.352,5472.56
908.623,5422.68
908.895,5334.8
909.166,5211.42
909.438,5091.14
909.709,5029.22
909.981,4969.52
910.252,4953.12
910.523,4922.76
910.795,4880.5
911.066,4844.56
911.338,4826.64
911.609,4819.6
911.881,4811.78
912.152,4839.66
912.423,4802.34
912.695,4766.66
912.966,4736.96
913.237,4736.24
913.509,4746.16
913.78,4743.8
914.051,4726.14
914.323,4723.04
914.594,4720.22
914.865,4709.82
915.136,4710.88
915.408,4723.96
915.679,4696.32
915.95,4689.8
916.221,4689.66
916.493,4684.36
916.764,4679.78
917.035,4665.1
917.306,4661.48
917.578,4660.02
917.849,4646.74
918.12,4651.76
918.391,4635.12
918.662,4624.4
918.933,4628.5
919.204,4639.24
919.476,4650.96
919.747,4627.06
920.018,4601.88
920.289,4588.92
920.56,4586.26
920.831,4589.66
921.102,4576.54
921.373,4586.82
921.644,4580.52
921.915,4570.22
922.186,4559.28
922.457,4561.08
922.728,4543.28
922.999,4527.32
923.27,4521.16
923.541,4524.08
923.812,4514.46
924.083,4506.1
924.354,4509.94
924.625,4520.6
924.896,4529.0
925.167,4503.76
925.438,4484.76
925.709,4468.44
925.98,4463.94
926.251,4473.24
926.522,4488.54
926.792,4482.1
927.063,4475.8
927.334,4457.36
927.605,4437.1
927.876,4440.88
928.147,4422.1
928.417,4420.5
928.688,4424.22
928.959,4420.52
929.23,4410.08
929.501,4400.94
929.771,4390.38
930.042,4367.56
930.313,4372.72
930.584,4382.44
930.854,4374.8
931.125,4350.48
931.396,4359.7
931.666,4354.82
931.937,4348.46
932.208,4344.36
932.478,4332.28
932.749,4328.36
933.02,4326.0
933.29,4334.76
933.561,4330.76
933.832,4314.32
934.102,4329.26
934.373,4324.22
934.643,4309.16
934.914,4294.36
935.184,4291.46
935.455,4303.3
935.726,4287.42
935.996,4261.7
936.267,4262.14
936.537,4271.56
936.808,4269.06
937.078,4265.54
937.349,4253.44
937.619,4238.9
937.89,4247.3
938.16,4249.52
938.43,4242.26
938.701,4235.94
938.971,4244.82
939.242,4244.88
939.512,4241.52
939.782,4226.66
940.053,4229.66
940.323,4224.6
940.594,4211.24
940.864,4205.42
941.134,4199.34
941.405,4197.1
941.675,4199.54
941.945,4206.76
942.216,4211.04
942.486,4197.16
942.756,4183.74
943.026,4178.18
943.297,4186.58
943.567,4187.0
943.837,4175.62
944.107,4165.68
944.378,4154.94
944.648,4148.18
944.918,4142.78
945.188,4145.42
945.458,4163.04
945.729,4160.8
945.999,4146.48
946.269,4143.48
946.539,4134.64
946.809,4132.54
947.079,4128.7
947.349,4134.42
947.62,4134.24
947.89,4133.78
948.16,4128.4
948.43,4118.2
948.7,4117.86
948.97,4111.04
949.24,4101.42
949.51,4096.78
949.78,4101.1
950.05,4096.34
950.32,4096.42
950.59,4095.12
950.86,4096.04
951.13,4088.88
951.4,4078.32
951.67,4079.46
951.94,4071.44
952.21,4070.98
952.48,4073.04
952.75,4069.2
953.02,4063.72
953.289,4068.58
953.559,4074.14
953.829,4070.7
954.099,4064.82
954.369,4055.76
954.639,4057.1
954.909,4055.54
955.178,4056.44
955.448,4046.16
955.718,4024.92
955.988,4037.38
956.257,4036.72
956.527,4037.18
956.797,4037.5
957.067,4035.34
957.336,4032.18
957.606,4025.84
957.876,4019.66
958.146,4017.64
958.415,4017.52
958.685,4023.5
958.955,4024.64
959.224,4013.68
959.494,4004.32
959.764,4010.1
960.033,4005.32
960.303,3998.44
960.572,4005.02
960.842,4001.32
961.112,3995.06
961.381,3991.4
961.651,3989.44
961.92,3991.04
962.19,3993.66
962.459,3993.38
962.729,3991.24
962.998,3987.02
963.268,3984.42
963.537,3979.1
963.807,3976.14
964.076,3968.44
964.346,3966.1
964.615,3965.6
964.885,3961.7
965.154,3967.58
965.424,3969.04
965.693,3967.06
965.962,3966.62
966.232,3958.5
966.501,3956.8
966.771,3948.52
967.04,3954.96
967.309,3951.94
967.579,3955.94
967.848,3952.28
968.117,3956.58
968.387,3958.26
968.656,3954.18
968.925,3944.28
969.194,3942.28
969.464,3938.5
969.733,3937.2
970.002,3935.0
970.271,3934.68
970.541,3932.52
970.81,3928.06
971.079,3930.26
971.348,3927.1
971.617,3922.66
971.887,3926.0
972.156,3922.38
972.425,3920.94
972.694,3919.7
972.963,3919.84
973.232,3921.74
973.501,3921.14
973.77,3919.54
974.04,3916.04
974.309,3912.32
974.578,3911.08
974.847,3912.8
975.116,3911.02
975.385,3906.7
975.654,3900.0
975.923,3893.58
976.192,3897.12
976.461,3899.34
976.73,3894.6
976.999,3893.32
977.268,3896.94
977.537,3893.1
977.806,3890.18
978.074,3889.1
978.343,3888.96
978.612,3887.46
978.881,3885.68
979.15,3884.26
979.419,3881.7
979.688,3882.88
979.957,3883.48
980.225,3878.24
980.494,3876.54
980.763,3877.44
981.032,3877.56
981.301,3877.86
981.569,3873.92
981.838,3873.0
982.107,3872.64
982.376,3870.46
982.644,3866.48
982.913,3869.44
983.182,3866.94
983.451,3869.48
983.719,3866.42
983.988,3864.2
984.257,3866.88
984.525,3862.26
984.794,3858.08
985.063,3857.72
985.331,3858.48
985.6,3859.34
985.868,3856.82
986.137,3853.46
986.406,3849.58
986.674,3850.64
986.943,3851.98
987.211,3852.24
987.48,3854.64
987.748,3852.58
988.017,3855.54
988.285,3855.5
988.554,3851.44
988.822,3847.12
989.091,3844.52
989.359,3841.02
989.628,3841.02
989.896,3840.42
990.164,3839.94
990.433,3840.14
990.701,3834.14
990.97,3834.88
991.238,3833.36
991.506,3834.5
991.775,3829.16
992.043,3830.34
992.311,3831.2
992.58,3829.6
992.848,3828.16
993.116,3828.12
993.385,3827.32
993.653,3826.82
993.921,3824.7
994.19,3824.62
994.458,3821.56
994.726,3821.44
994.994,3820.44
995.262,3817.76
995.531,3819.4
995.799,3821.2
996.067,3818.28
996.335,3818.44
996.603,3816.6
996.872,3815.38
997.14,3813.62
997.408,3812.66
997.676,3811.38
997.944,3810.44
998.212,3810.86
998.48,3809.88
998.748,3808.06
999.016,3806.56
999.284,3809.22
999.552,3806.24
999.82,3805.38
1000.09,3806.86
1000.36,3806.22
1000.62,3806.24
1000.89,3803.82
1001.16,3803.04
1001.43,3803.3
1001.7,3803.14
1001.96,3797.88
1002.23,3797.2
1002.5,3799.6
1002.77,3798.98
1003.04,3796.46
1003.3,3798.34
1003.57,3796.56
1003.84,3794.86
1004.11,3793.68
1004.38,3793.38
1004.64,3792.78
1004.91,3792.88
1005.18,3790.86
1005.45,3787.84
1005.71,3789.56
1005.98,3787.5
1006.25,3789.84
1006.52,3789.32
1006.79,3788.78
1007.05,3788.32
1007.32,3786.38
1007.59,3784.88
1007.86,3784.12
1008.12,3785.96
1008.39,3783.96
1008.66,3781.84
1008.93,3782.32
1009.19,3781.86
1009.46,3779.52
1009.73,3778.34
1010.0,3777.08
1010.26,3777.42
1010.53,3779.0
1010.8,3775.96
1011.07,3775.64
1011.33,3776.84
1011.6,3774.72
1011.87,3777.26
1012.14,3778.38
1012.4,3776.0
1012.67,3775.08
1012.94,3775.42
1013.21,3774.66
1013.47,3774.38
1013.74,3773.6
1014.01,3773.06
1014.28,3772.02
1014.54,3772.46
1014.81,3771.6
1015.08,3772.94
1015.35,3774.02
1015.61,3771.68
1015.88,3771.36
1016.15,3769.18
1016.42,3770.92
1016.68,3770.24
1016.95,3770.48
1017.22,3768.88
1017.48,3767.22
1017.75,3769.24
1018.02,3768.08
1018.29,3767.76
1018.55,3768.88
1018.82,3767.04
1019.09,3764.7
1019.36,3766.66
1019.62,3764.98
1019.89,3765.56
1020.16,3765.24
1020.42,3766.0
1020.69,3764.68
1020.96,3768.02
1021.23,3767.36
1021.49,3769.92
1021.76,3772.44
1022.03,3773.18
1022.29,3772.36
1022.56,3772.54
1022.83,3773.02
1023.09,3774.84
1023.36,3774.58
1023.63,3773.62
1023.9,3773.48
1024.16,3770.72
1024.43,3768.02
1024.7,3768.3
1024.96,3766.58
1025.23,3765.98
1025.5,3761.4
1025.76,3762.16
1026.03,3759.38
1026.3,3760.18
1026.56,3757.02
1026.83,3756.74
1027.1,3757.12
1027.37,3757.8
1027.63,3754.54
1027.9,3754.9
1028.17,3753.3
1028.43,3751.82
1028.7,3751.28
1028.97,3751.76
1029.23,3751.82
1029.5,3749.64
1029.77,3750.38
1030.03,3748.76
1030.3,3747.98
1030.57,3749.58
1030.83,3747.82
1031.1,3747.98
1031.37,3748.02
1031.63,3745.74
1031.9,3746.32
1032.17,3746.92
1032.43,3747.32
1032.7,3748.58
1032.97,3747.18
1033.23,3748.64
1033.5,3749.36
1033.77,3749.6
1034.03,3749.88
1034.3,3751.04
1034.57,3752.1
1034.83,3752.18
1035.1,3752.3
1035.36,3752.1
1035.63,3752.82
1035.9,3754.3
1036.16,3752.54
1036.43,3750.36
1036.7,3750.28
1036.96,3748.7
1037.23,3747.12
1037.5,3746.74
1037.76,3745.44
1038.03,3744.18
1038.3,3742.14
1038.56,3742.56
1038.83,3742.1
1039.09,3740.84
1039.36,3740.24
1039.63,3740.58
1039.89,3738.7
1040.16,3739.2
1040.43,3739.3
1040.69,3739.44
1040.96,3738.6
1041.22,3738.42
1041.49,3737.7
1041.76,3737.8
1042.02,3737.08
1042.29,3736.92
1042.55,3735.88
1042.82,3737.68
1043.09,3735.74
1043.35,3736.04
1043.62,3737.4
1043.89,3736.08
1044.15,3735.84
1044.42,3736.16
1044.68,3734.84
1044.95,3735.36
1045.22,3735.6
1045.48,3734.8
1045.75,3734.2
1046.01,3733.8
1046.28,3733.64
1046.55,3734.3
1046.81,3734.04
1047.08,3734.14
1047.34,3734.7
1047.61,3734.3
1047.88,3734.14
1048.14,3733.0
1048.41,3733.84
1048.67,3733.62
1048.94,3733.36
1049.2,3733.36
1049.47,3732.56
1049.74,3732.54
1050.0,3733.42
1050.27,3732.06
1050.53,3733.38
1050.8,3732.88
1051.06,3732.96
1051.33,3732.96
1051.6,3733.56
1051.86,3732.96
1052.13,3733.52
1052.39,3733.46
1052.66,3734.02
1052.92,3732.38
1053.19,3731.98
1053.46,3732.44
1053.72,3732.44
1053.99,3732.4
1054.25,3732.12
1054.52,3731.84
1054.78,3732.52
1055.05,3732.2
1055.32,3731.48
1055.58,3732.36
1055.85,3731.42
1056.11,3732.38
1056.38,3731.74
1056.64,3731.8
1056.91,3731.96
1057.17,3732.1
1057.44,3731.0
1057.7,3731.92
1057.97,3730.36
1058.24,3731.0
1058.5,3730.7
1058.77,3730.84
1059.03,3730.6
1059.3,3731.1
1059.56,3731.1
1059.83,3730.3
1060.09,3730.74
1060.36,3731.3
1060.62,3731.1
1060.89,3729.94
1061.15,3730.54
1061.42,3730.58
1061.68,3729.84
1061.95,3730.12
1062.22,3729.88
1062.48,3730.32
1062.75,3730.4
1063.01,3729.74
1063.28,3730.46
1063.54,3730.5
1063.81,3729.68
1064.07,3730.12
1064.34,3729.64
1064.6,3730.6
1064.87,3728.78
1065.13,3729.92
1065.4,3729.6
1065.66,3730.62
1065.93,3729.06
1066.19,3730.32
1066.46,3729.34
1066.72,3728.96
1066.99,3729.54
1067.25,3729.04
1067.52,3728.04
1067.78,3728.82
1068.05,3728.24