File: spectra/VLFR_02-HDPE_nobio_Raman_3bf535b4.csv
cm-1,Intensity
-123.878,1853.1
-117.855,1852.15
-111.836,1852.2
-105.821,1852.4
-99.8104,1852.1
-93.8036,1851.8
-87.8007,1853.25
-81.8019,1853.55
-75.807,1852.8
-69.8161,1853.2
-63.8293,1852.3
-57.8464,1852.0
-51.8675,1853.0
-45.8926,1854.15
-39.9216,1853.35
-33.9547,1853.6
-27.9917,1855.95
-22.0326,1856.25
-16.0776,1867.4
-10.1265,2051.05
-4.17932,2770.9
1.76388,2693.95
7.70313,1929.45
13.6384,1855.0
19.5698,1855.15
25.4972,1854.5
31.4207,1854.95
37.3403,1854.6
43.256,1856.7
49.1677,1873.1
55.0755,1977.2
60.9794,2171.2
66.8794,2307.75
72.7754,2354.55
78.6676,2361.8
84.5559,2373.7
90.4402,2388.45
96.3207,2401.0
102.197,2416.15
108.07,2415.9
113.939,2439.5
119.804,2440.2
125.665,2436.2
131.522,2408.7
137.375,2429.3
143.225,2438.25
149.07,2424.15
154.912,2423.05
160.75,2419.6
166.584,2427.6
172.414,2446.95
178.241,2447.0
184.063,2460.85
189.882,2454.15
195.697,2460.45
201.508,2480.6
207.315,2474.1
213.119,2477.0
218.918,2475.25
224.714,2492.35
230.506,2480.85
236.294,2490.35
242.078,2485.2
247.859,2494.8
253.636,2513.65
259.409,2498.6
265.178,2490.5
270.943,2495.05
276.705,2536.5
282.463,2521.35
288.217,2528.85
293.967,2525.15
299.713,2524.75
305.456,2536.85
311.195,2555.6
316.93,2552.05
322.662,2544.9
328.389,2576.0
334.113,2568.25
339.834,2583.6
345.55,2575.95
351.263,2573.9
356.972,2582.4
362.677,2610.65
368.379,2618.95
374.077,2610.4
379.771,2617.2
385.461,2610.5
391.148,2616.3
396.831,2620.25
402.51,2638.75
408.186,2618.25
413.858,2642.7
419.526,2643.7
425.19,2626.65
430.851,2654.9
436.508,2647.5
442.162,2660.8
447.811,2637.25
453.458,2644.05
459.1,2654.1
464.739,2669.4
470.374,2683.6
476.005,2681.4
481.633,2652.25
487.257,2677.75
492.878,2688.3
498.494,2688.5
504.107,2707.15
509.717,2712.05
515.323,2692.9
520.925,2681.15
526.524,2712.4
532.119,2715.95
537.71,2690.05
543.298,2718.85
548.882,2731.15
554.462,2737.75
560.039,2731.8
565.613,2747.95
571.182,2745.5
576.748,2741.75
582.311,2757.3
587.87,2732.2
593.425,2763.3
598.977,2756.9
604.525,2729.75
610.069,2760.95
615.61,2741.0
621.148,2763.0
626.682,2748.9
632.212,2759.0
637.739,2776.85
643.262,2814.35
648.781,2793.05
654.297,2811.05
659.81,2798.6
665.319,2804.0
670.824,2801.75
676.326,2821.4
681.824,2819.6
687.319,2819.75
692.81,2827.65
698.298,2812.85
703.782,2817.25
709.262,2809.3
714.739,2827.75
720.213,2850.3
725.683,2828.75
731.15,2825.45
736.613,2831.15
742.072,2863.75
747.528,2846.85
752.981,2860.8
758.43,2861.3
763.875,2880.1
769.317,2890.15
774.756,2874.25
780.191,2871.25
785.623,2882.4
791.051,2879.45
796.475,2885.4
801.897,2892.3
807.314,2906.45
812.729,2904.3
818.139,2917.8
823.547,2900.95
828.951,2906.5
834.351,2907.05
839.748,2886.15
845.142,2911.7
850.532,2915.7
855.918,2908.9
861.302,2927.95
866.681,2930.2
872.058,2938.25
877.431,2942.0
882.8,2949.05
888.166,2966.5
893.529,2938.3
898.888,2943.05
904.244,2974.95
909.596,2948.0
914.945,2980.2
920.291,2980.95
925.633,2987.0
930.972,2975.75
936.308,2970.75
941.64,2977.85
946.968,2973.65
952.294,3009.25
957.615,2993.55
962.934,3010.75
968.249,2988.4
973.561,3003.5
978.869,3001.75
984.174,3013.8
989.476,3002.95
994.774,3039.85
1000.07,3000.0
1005.36,3015.1
1010.65,3012.65
1015.93,3038.7
1021.22,3029.75
1026.49,3046.35
1031.77,3044.3
1037.04,3050.15
1042.31,3064.65
1047.57,3050.05
1052.83,3094.7
1058.09,3152.8
1063.35,3179.15
1068.6,3144.3
1073.85,3086.25
1079.09,3094.15
1084.33,3116.9
1089.57,3145.65
1094.81,3166.35
1100.04,3145.2
1105.27,3126.15
1110.49,3141.6
1115.71,3104.65
1120.93,3140.55
1126.15,3250.6
1131.36,3255.15
1136.57,3164.75
1141.77,3148.05
1146.98,3110.55
1152.18,3108.45
1157.37,3070.45
1162.56,3097.65
1167.75,3109.75
1172.94,3113.6
1178.12,3110.4
1183.3,3091.85
1188.48,3112.45
1193.65,3111.75
1198.82,3100.55
1203.99,3094.2
1209.15,3141.7
1214.31,3132.55
1219.46,3139.65
1224.62,3111.85
1229.77,3149.95
1234.92,3128.95
1240.06,3125.6
1245.2,3131.15
1250.34,3149.35
1255.47,3171.1
1260.6,3153.85
1265.73,3152.85
1270.85,3134.85
1275.97,3141.7
1281.09,3155.0
1286.21,3189.7
1291.32,3277.7
1296.43,3315.85
1301.53,3259.35
1306.63,3231.65
1311.73,3194.45
1316.83,3161.1
1321.92,3204.15
1327.01,3215.25
1332.1,3187.8
1337.18,3184.45
1342.26,3209.55
1347.34,3214.6
1352.41,3170.4
1357.48,3168.8
1362.55,3186.7
1367.61,3231.95
1372.67,3214.35
1377.73,3199.25
1382.78,3225.7
1387.84,3201.3
1392.88,3188.0
1397.93,3214.4
1402.97,3214.25
1408.01,3212.0
1413.05,3270.95
1418.08,3312.0
1423.11,3291.05
1428.14,3264.8
1433.16,3300.35
1438.18,3316.45
1443.2,3335.55
1448.21,3318.45
1453.22,3297.15
1458.23,3258.55
1463.23,3286.75
1468.23,3303.25
1473.23,3247.2
1478.23,3261.05
1483.22,3225.2
1488.21,3216.85
1493.2,3209.75
1498.18,3208.05
1503.16,3196.45
1508.14,3209.75
1513.11,3253.9
1518.08,3217.3
1523.05,3225.25
1528.01,3214.45
1532.97,3244.55
1537.93,3215.4
1542.89,3238.2
1547.84,3245.45
1552.79,3278.3
1557.73,3257.05
1562.68,3231.0
1567.62,3265.95
1572.56,3273.6
1577.49,3267.5
1582.42,3269.2
1587.35,3263.9
1592.27,3262.5
1597.19,3261.8
1602.11,3283.2
1607.03,3256.75
1611.94,3252.95
1616.85,3254.15
1621.76,3229.65
1626.66,3286.45
1631.56,3270.5
1636.46,3284.65
1641.36,3260.4
1646.25,3282.55
1651.14,3262.9
1656.02,3276.15
1660.9,3269.35
1665.78,3262.95
1670.66,3322.15
1675.54,3285.3
1680.41,3305.65
1685.27,3277.5
1690.14,3300.0
1695.0,3284.75
1699.86,3292.45
1704.71,3304.7
1709.57,3294.65
1714.42,3285.0
1719.26,3268.8
1724.11,3281.05
1728.95,3286.35
1733.79,3265.0
1738.62,3306.35
1743.46,3286.75
1748.28,3317.05
1753.11,3289.55
1757.93,3307.75
1762.75,3310.0
1767.57,3308.45
1772.39,3305.75
1777.2,3321.65
1782.01,3352.45
1786.81,3311.05
1791.62,3330.9
1796.41,3316.8
1801.21,3308.25
1806.01,3323.3
1810.8,3317.5
1815.59,3273.75
1820.37,3280.95
1825.15,3288.7
1829.93,3290.0
1834.71,3296.1
1839.48,3319.1
1844.25,3306.45
1849.02,3324.9
1853.79,3303.4
1858.55,3299.35
1863.31,3321.2
1868.06,3339.95
1872.82,3354.05
1877.57,3309.0
1882.31,3340.5
1887.06,3317.75
1891.8,3329.05
1896.54,3302.7
1901.28,3375.15
1906.01,3361.95
1910.74,3329.35
1915.47,3340.4
1920.19,3372.9
1924.91,3318.45
1929.63,3327.8
1934.35,3368.45
1939.06,3339.65
1943.77,3318.9
1948.48,3329.35
1953.19,3370.25
1957.89,3347.25
1962.59,3329.45
1967.28,3319.4
1971.98,3361.15
1976.67,3317.4
1981.35,3327.7
1986.04,3373.2
1990.72,3362.15
1995.4,3350.05
2000.08,3365.95
2004.75,3376.6
2009.42,3368.5
2014.09,3383.45
2018.75,3379.6
2023.42,3409.15
2028.08,3377.85
2032.73,3371.7
2037.39,3397.4
2042.04,3380.8
2046.69,3384.65
2051.33,3416.4
2055.97,3380.55
2060.61,3364.8
2065.25,3391.05
2069.88,3407.05
2074.52,3424.2
2079.15,3389.8
2083.77,3391.2
2088.39,3414.5
2093.01,3385.6
2097.63,3397.2
2102.25,3421.3
2106.86,3441.15
2111.47,3420.4
2116.08,3424.05
2120.68,3410.15
2125.28,3430.6
2129.88,3416.65
2134.47,3438.15
2139.07,3434.7
2143.66,3414.75
2148.24,3410.2
2152.83,3419.4
2157.41,3420.2
2161.99,3434.55
2166.57,3433.15
2171.14,3415.95
2175.71,3432.7
2180.28,3429.55
2184.84,3442.1
2189.41,3451.05
2193.97,3419.15
2198.52,3404.45
2203.08,3443.05
2207.63,3412.2
2212.18,3465.15
2216.73,3395.5
2221.27,3419.65
2225.81,3453.6
2230.35,3409.9
2234.89,3412.1
2239.42,3434.5
2243.95,3397.25
2248.48,3420.15
2253.0,3425.45
2257.52,3429.05
2262.04,3442.85
2266.56,3423.8
2271.07,3393.15
2275.58,3396.7
2280.09,3405.15
2284.6,3402.5
2289.1,3398.6
2293.6,3390.55
2298.1,3390.9
2302.6,3415.4
2307.09,3388.65
2311.58,3383.8
2316.07,3386.2
2320.55,3418.7
2325.03,3376.8
2329.51,3394.25
2333.99,3391.5
2338.46,3372.45
2342.93,3388.6
2347.4,3415.8
2351.87,3389.45
2356.33,3379.6
2360.79,3354.5
2365.25,3368.75
2369.71,3385.05
2374.16,3375.3
2378.61,3354.15
2383.06,3372.9
2387.5,3384.55
2391.94,3366.95
2396.38,3386.35
2400.82,3391.8
2405.26,3373.9
2409.69,3365.4
2414.12,3366.8
2418.54,3358.1
2422.97,3419.8
2427.39,3353.4
2431.81,3379.25
2436.22,3353.55
2440.64,3385.15
2445.05,3358.35
2449.46,3373.8
2453.86,3326.55
2458.27,3377.0
2462.67,3329.15
2467.06,3340.4
2471.46,3355.65
2475.85,3349.05
2480.24,3353.1
2484.63,3360.1
2489.02,3346.95
2493.4,3322.45
2497.78,3332.0
2502.16,3363.8
2506.53,3341.85
2510.9,3340.25
2515.27,3361.9
2519.64,3365.3
2524.0,3345.95
2528.37,3345.0
2532.73,3329.0
2537.08,3326.45
2541.44,3339.7
2545.79,3319.4
2550.14,3315.4
2554.48,3321.6
2558.83,3319.2
2563.17,3302.3
2567.51,3361.05
2571.85,3312.95
2576.18,3290.9
2580.51,3291.75
2584.84,3319.7
2589.17,3301.4
2593.49,3331.8
2597.81,3351.2
2602.13,3307.55
2606.45,3299.5
2610.76,3295.7
2615.07,3287.25
2619.38,3332.65
2623.69,3350.4
2627.99,3303.55
2632.29,3300.35
2636.59,3331.2
2640.89,3303.0
2645.18,3325.15
2649.47,3317.9
2653.76,3316.25
2658.05,3313.1
2662.33,3297.95
2666.61,3304.35
2670.89,3313.55
2675.17,3330.05
2679.44,3296.1
2683.71,3293.15
2687.98,3290.9
2692.25,3310.0
2696.51,3297.6
2700.77,3298.15
2705.03,3326.95
2709.29,3281.05
2713.54,3316.55
2717.79,3350.25
2722.04,3310.7
2726.29,3312.45
2730.53,3328.8
2734.77,3284.7
2739.01,3295.55
2743.25,3300.05
2747.48,3286.7
2751.71,3312.75
2755.94,3270.15
2760.17,3267.2
2764.39,3270.45
2768.61,3242.85
2772.83,3301.9
2777.05,3260.7
2781.27,3262.75
2785.48,3241.1
2789.69,3284.55
2793.89,3302.95
2798.1,3257.7
2802.3,3236.25
2806.5,3276.25
2810.7,3244.15
2814.89,3276.3
2819.09,3275.45
2823.28,3293.35
2827.46,3349.4
2831.65,3370.85
2835.83,3491.55
2840.01,3660.6
2844.19,3880.9
2848.37,3943.9
2852.54,3906.65
2856.71,3839.5
2860.88,3777.6
2865.05,3702.55
2869.21,3690.3
2873.37,3717.75
2877.53,3952.0
2881.69,4083.2
2885.84,3998.3
2889.99,3805.85
2894.14,3765.05
2898.29,3719.75
2902.43,3693.8
2906.58,3634.95
2910.72,3587.7
2914.85,3561.9
2918.99,3491.25
2923.12,3494.95
2927.25,3496.15
2931.38,3477.4
2935.5,3453.8
2939.63,3381.9
2943.75,3335.5
2947.87,3293.2
2951.98,3322.5
2956.1,3281.3
2960.21,3249.6
2964.32,3237.45
2968.42,3238.3
2972.53,3203.65
2976.63,3235.15
2980.73,3238.65
2984.83,3204.85
2988.92,3205.65
2993.01,3185.05
2997.1,3202.9
3001.19,3190.15
3005.28,3177.1
3009.36,3165.05
3013.44,3180.05
3017.52,3182.5
3021.6,3161.1
3025.67,3137.8
3029.74,3119.15
3033.81,3144.05
3037.88,3131.5
3041.94,3147.95
3046.01,3147.45
3050.07,3124.8
3054.12,3093.55
3058.18,3106.05
3062.23,3128.25
3066.28,3127.1
3070.33,3112.15
3074.38,3083.95
3078.42,3105.15
3082.46,3088.8
3086.5,3093.55
3090.54,3105.25
3094.57,3105.45
3098.6,3083.6
3102.63,3090.4
3106.66,3114.5
3110.69,3070.1
3114.71,3084.5
3118.73,3097.5
3122.75,3091.9
3126.77,3107.55
3130.78,3056.4
3134.79,3062.7
3138.8,3063.6
3142.81,3031.35
3146.81,3092.45
3150.82,3057.75
3154.82,3053.9
3158.81,3057.9
3162.81,3065.25
3166.8,3027.55
3170.79,3038.8
3174.78,3057.05
3178.77,3032.1
3182.75,3040.75
3186.74,3023.05
3190.72,3027.95
3194.69,3013.85
3198.67,3051.45
3202.64,3033.0
3206.61,3024.35
3210.58,3026.8
3214.55,2993.35
3218.51,2998.1
3222.47,3042.9
3226.43,3071.3
3230.39,3039.9
3234.35,3001.15
3238.3,3008.9
3242.25,3022.25
3246.2,2993.2
3250.15,3011.75
3254.09,3030.3
3258.03,3025.65
3261.97,3022.8
3265.91,3022.95
3269.84,3023.7
3273.78,2994.2
3277.71,3021.4
3281.64,3000.95
3285.56,2995.55
3289.49,3013.1
3293.41,3008.55
3297.33,3013.75
3301.25,2995.2
3305.16,3023.6
3309.07,2986.35
3312.99,2962.3
3316.89,2970.55
3320.8,2969.45
3324.7,2967.45
3328.61,2955.2
3332.51,2968.75
3336.4,2973.45
3340.3,2977.05
3344.19,2962.1
3348.08,2943.2
3351.97,2972.6
3355.86,2939.4
3359.74,2948.4
3363.63,2965.3
3367.51,2938.65
3371.39,2913.2
3375.26,2935.8
3379.13,2977.05
3383.01,2919.55
3386.88,2908.5
3390.74,2932.45
3394.61,2925.35
3398.47,2916.0
3402.33,2911.6
3406.19,2917.7
3410.05,2919.35
3413.9,2925.35
3417.75,2910.25
3421.6,2897.2
3425.45,2919.45
3429.3,2907.2
3433.14,2912.2
3436.98,2919.15
3440.82,2879.8
3444.66,2914.75
3448.49,2879.25
3452.32,2870.95
3456.15,2858.55
3459.98,2904.05
3463.81,2875.35
3467.63,2863.15
3471.46,2858.2
3475.28,2873.35
3479.09,2843.1
3482.91,2827.3
3486.72,2839.6
3490.53,2839.45
3494.34,2811.9
3498.15,2834.5
3501.96,2832.65
3505.76,2837.55
3509.56,2817.5
3513.36,2798.85
3517.15,2793.05
3520.95,2792.95
3524.74,2805.7
3528.53,2766.95
3532.32,2770.65
3536.11,2804.05
3539.89,2774.9
3543.67,2799.4
3547.45,2779.9
3551.23,2752.2
3555.0,2748.0
3558.78,2753.6
3562.55,2761.85
3566.32,2773.7
3570.09,2742.5
3573.85,2738.05
3577.61,2754.95
3581.37,2772.4
3585.13,2722.6
3588.89,2715.1
3592.64,2713.25
3596.4,2726.25
3600.15,2719.2
3603.9,2717.55
3607.64,2712.85
3611.39,2705.2
3615.13,2686.5
3618.87,2672.7
3622.61,2690.0
3626.34,2678.15
3630.08,2679.6
3633.81,2677.05
3637.54,2671.2
3641.27,2628.7
3644.99,2632.35
3648.72,2661.5
3652.44,2681.55
3656.16,2634.35
3659.87,2658.6
3663.59,2644.0
3665.45,2663.7