File: spectra/VLFR_02-HDPE_bio_Raman_7a34e697.csv
nm,Intensity
526.494,834.1
526.631,834.8
526.768,834.5
526.904,834.2
527.041,834.8
527.178,834.7
527.315,835.0
527.451,835.4
527.588,834.6
527.725,834.9
527.862,834.0
527.998,833.7
528.135,834.8
528.272,834.0
528.409,835.0
528.545,834.3
528.682,833.5
528.819,835.2
528.955,834.3
529.092,835.1
529.229,833.1
529.365,834.9
529.502,834.8
529.639,834.9
529.775,834.8
529.912,832.8
530.048,835.2
530.185,835.9
530.321,834.6
530.458,834.6
530.595,835.5
530.731,835.0
530.868,833.8
531.004,834.7
531.141,833.9
531.277,835.4
531.414,834.5
531.55,834.0
531.687,835.1
531.823,836.0
531.96,845.7
532.096,922.0
532.233,942.5
532.369,857.4
532.506,837.2
532.642,834.5
532.778,833.5
532.915,834.4
533.051,834.8
533.188,834.0
533.324,834.1
533.46,833.1
533.597,836.0
533.733,838.5
533.869,859.7
534.006,891.7
534.142,909.6
534.278,909.3
534.415,904.3
534.551,911.3
534.687,914.3
534.824,916.7
534.96,914.3
535.096,915.8
535.232,910.7
535.369,903.2
535.505,891.8
535.641,883.0
535.777,877.0
535.914,871.5
536.05,868.8
536.186,866.1
536.322,863.1
536.458,862.5
536.595,862.3
536.731,861.9
536.867,860.6
537.003,862.9
537.139,862.4
537.275,861.3
537.411,861.7
537.548,859.9
537.684,860.7
537.82,860.3
537.956,859.4
538.092,860.1
538.228,857.8
538.364,855.9
538.5,859.2
538.636,856.1
538.772,855.5
538.908,855.2
539.044,853.2
539.18,851.5
539.316,851.5
539.452,852.3
539.588,852.5
539.724,851.0
539.86,852.6
539.996,848.1
540.132,852.4
540.268,849.8
540.404,849.8
540.54,850.1
540.676,850.2
540.812,848.1
540.948,849.8
541.084,850.3
541.22,850.5
541.355,851.7
541.491,848.6
541.627,848.4
541.763,848.8
541.899,849.0
542.035,851.0
542.171,851.3
542.306,851.1
542.442,849.6
542.578,849.7
542.714,850.8
542.85,849.6
542.985,850.3
543.121,848.6
543.257,849.4
543.393,849.0
543.529,849.6
543.664,849.9
543.8,849.7
543.936,850.6
544.072,848.6
544.207,851.7
544.343,848.5
544.479,849.3
544.614,848.5
544.75,849.8
544.886,851.4
545.021,850.0
545.157,851.2
545.293,848.2
545.428,849.9
545.564,849.1
545.7,849.9
545.835,848.3
545.971,849.0
546.106,848.3
546.242,849.6
546.378,847.7
546.513,849.1
546.649,848.2
546.784,851.0
546.92,849.0
547.055,849.8
547.191,851.2
547.327,849.0
547.462,847.9
547.598,847.9
547.733,848.8
547.869,849.7
548.004,850.6
548.14,849.9
548.275,849.1
548.411,848.5
548.546,849.5
548.682,847.4
548.817,848.8
548.952,847.4
549.088,849.2
549.223,850.0
549.359,849.8
549.494,849.0
549.63,849.0
549.765,849.0
549.9,848.6
550.036,848.4
550.171,848.4
550.306,848.7
550.442,850.9
550.577,850.0
550.713,848.7
550.848,850.0
550.983,849.8
551.119,849.3
551.254,849.1
551.389,849.8
551.524,850.9
551.66,846.6
551.795,849.9
551.93,849.2
552.066,850.1
552.201,850.7
552.336,849.4
552.471,848.2
552.607,849.1
552.742,850.3
552.877,849.1
553.012,851.3
553.148,850.6
553.283,854.1
553.418,853.9
553.553,852.0
553.688,852.5
553.823,852.4
553.959,851.1
554.094,853.3
554.229,851.0
554.364,852.1
554.499,851.1
554.634,853.2
554.77,852.4
554.905,853.7
555.04,852.2
555.175,853.9
555.31,852.9
555.445,856.3
555.58,856.7
555.715,855.3
555.85,853.6
555.985,854.4
556.12,854.7
556.255,855.9
556.39,858.3
556.525,854.3
556.661,854.6
556.796,855.4
556.931,857.2
557.066,856.7
557.201,858.5
557.336,856.9
557.471,856.9
557.605,859.1
557.74,861.4
557.875,860.8
558.01,860.7
558.145,858.5
558.28,860.4
558.415,858.2
558.55,861.3
558.685,859.2
558.82,858.7
558.955,858.5
559.09,856.8
559.225,861.1
559.36,858.5
559.494,858.1
559.629,856.7
559.764,856.0
559.899,858.3
560.034,858.2
560.169,858.3
560.303,856.6
560.438,856.0
560.573,856.9
560.708,857.6
560.843,858.7
560.978,855.4
561.112,856.5
561.247,857.2
561.382,857.3
561.517,856.6
561.651,856.7
561.786,858.9
561.921,857.6
562.056,861.5
562.19,859.2
562.325,858.4
562.46,857.0
562.595,860.3
562.729,858.1
562.864,863.1
562.999,863.7
563.133,862.0
563.268,860.3
563.403,866.2
563.537,862.8
563.672,873.9
563.807,892.4
563.941,964.8
564.076,1020.3
564.211,951.3
564.345,892.1
564.48,881.8
564.615,880.9
564.749,884.0
564.884,881.4
565.018,876.8
565.153,874.4
565.287,871.1
565.422,866.2
565.557,869.1
565.691,868.9
565.826,874.0
565.96,891.5
566.095,933.9
566.229,975.6
566.364,926.0
566.498,886.8
566.633,869.7
566.767,869.8
566.902,868.9
567.036,866.8
567.171,869.9
567.305,876.5
567.44,896.8
567.574,898.6
567.709,876.8
567.843,866.8
567.978,861.0
568.112,866.2
568.247,863.5
568.381,864.0
568.515,860.4
568.65,862.9
568.784,862.4
568.919,863.5
569.053,861.5
569.187,863.3
569.322,864.6
569.456,863.3
569.591,866.8
569.725,864.6
569.859,864.8
569.994,866.8
570.128,865.9
570.262,868.3
570.397,871.6
570.531,873.3
570.665,875.0
570.8,875.2
570.934,874.3
571.068,874.6
571.202,882.7
571.337,904.6
571.471,1025.1
571.605,1145.6
571.74,1001.1
571.874,915.5
572.008,896.1
572.142,886.8
572.277,879.7
572.411,875.9
572.545,873.9
572.679,870.6
572.813,869.5
572.948,869.2
573.082,869.0
573.216,866.6
573.35,870.1
573.484,870.1
573.619,869.1
573.753,873.4
573.887,878.0
574.021,883.9
574.155,880.5
574.289,869.5
574.424,869.8
574.558,869.1
574.692,868.2
574.826,870.3
574.96,870.4
575.094,871.9
575.228,872.9
575.362,885.5
575.496,927.4
575.631,943.9
575.765,914.6
575.899,911.4
576.033,935.4
576.167,985.4
576.301,1059.4
576.435,1049.1
576.569,990.4
576.703,963.6
576.837,973.6
576.971,973.3
577.105,979.8
577.239,965.8
577.373,941.8
577.507,913.6
577.641,902.2
577.775,892.0
577.909,886.2
578.043,884.8
578.177,880.3
578.311,879.1
578.445,877.4
578.579,877.9
578.713,875.5
578.847,879.4
578.981,881.0
579.114,879.1
579.248,875.0
579.382,879.7
579.516,878.4
579.65,880.0
579.784,877.5
579.918,882.0
580.052,882.1
580.186,883.5
580.32,881.9
580.453,881.7
580.587,880.6
580.721,883.9
580.855,880.1
580.989,881.0
581.123,881.5
581.256,886.1
581.39,882.9
581.524,885.4
581.658,885.5
581.792,885.7
581.925,887.5
582.059,884.8
582.193,887.0
582.327,887.1
582.461,889.4
582.594,886.6
582.728,890.5
582.862,887.1
582.996,887.6
583.129,889.8
583.263,887.0
583.397,888.8
583.531,888.5
583.664,891.3
583.798,892.3
583.932,892.1
584.065,894.4
584.199,891.5
584.333,894.5
584.467,896.6
584.6,897.0
584.734,896.2
584.868,899.9
585.001,901.1
585.135,902.6
585.269,901.0
585.402,903.7
585.536,902.3
585.669,901.8
585.803,902.1
585.937,903.5
586.07,905.9
586.204,909.2
586.338,911.5
586.471,909.8
586.605,909.5
586.738,909.0
586.872,910.8
587.005,914.3
587.139,913.7
587.273,916.0
587.406,915.1
587.54,919.9
587.673,920.6
587.807,919.8
587.94,921.6
588.074,918.8
588.207,924.3
588.341,918.9
588.474,924.7
588.608,925.9
588.741,925.1
588.875,925.4
589.008,924.9
589.142,927.5
589.275,931.0
589.409,928.2
589.542,930.0
589.676,928.2
589.809,932.3
589.943,932.9
590.076,937.4
590.21,933.6
590.343,935.2
590.476,937.9
590.61,937.7
590.743,937.8
590.877,943.4
591.01,938.6
591.144,937.0
591.277,940.9
591.41,942.1
591.544,947.6
591.677,941.1
591.81,946.5
591.944,948.6
592.077,951.6
592.211,946.2
592.344,949.3
592.477,946.7
592.611,946.4
592.744,952.1
592.877,948.5
593.011,948.6
593.144,951.1
593.277,953.0
593.411,948.9
593.544,951.8
593.677,956.1
593.81,952.0
593.944,950.7
594.077,956.4
594.21,953.9
594.344,957.6
594.477,958.5
594.61,956.1
594.743,958.6
594.877,959.2
595.01,957.2
595.143,958.8
595.276,958.3
595.41,958.1
595.543,960.8
595.676,963.5
595.809,960.4
595.942,960.3
596.076,961.8
596.209,965.6
596.342,964.4
596.475,963.0
596.608,963.2
596.742,963.7
596.875,970.0
597.008,967.5
597.141,968.5
597.274,972.8
597.407,969.0
597.541,968.7
597.674,968.2
597.807,975.1
597.94,977.4
598.073,972.2
598.206,977.1
598.339,977.6
598.472,977.2
598.606,978.6
598.739,977.7
598.872,980.4
599.005,975.7
599.138,975.8
599.271,978.3
599.404,976.4
599.537,984.5
599.67,978.5
599.803,981.8
599.936,981.7
600.069,986.7
600.202,983.1
600.335,979.1
600.468,977.2
600.601,981.3
600.734,978.3
600.868,981.5
601.001,978.2
601.134,975.6
601.267,981.4
601.4,978.7
601.533,978.9
601.665,981.3
601.798,981.9
601.931,978.6
602.064,986.5
602.197,986.8
602.33,984.7
602.463,985.0
602.596,981.4
602.729,980.6
602.862,982.2
602.995,973.6
603.128,973.8
603.261,976.3
603.394,977.3
603.527,971.2
603.66,972.6
603.793,973.0
603.926,973.4
604.058,970.1
604.191,970.4
604.324,975.2
604.457,965.5
604.59,965.4
604.723,967.3
604.856,961.2
604.989,964.2
605.121,963.2
605.254,963.0
605.387,961.8
605.52,956.2
605.653,956.3
605.786,951.1
605.918,955.1
606.051,951.7
606.184,953.3
606.317,953.2
606.45,948.1
606.583,948.7
606.715,945.8
606.848,946.0
606.981,945.9
607.114,946.7
607.246,942.8
607.379,946.1
607.512,945.6
607.645,943.0
607.778,942.1
607.91,936.8
608.043,943.7
608.176,936.0
608.309,940.9
608.441,942.3
608.574,942.2
608.707,942.3
608.839,936.2
608.972,941.4
609.105,938.4
609.238,940.6
609.37,937.4
609.503,939.5
609.636,936.2
609.768,934.7
609.901,933.4
610.034,931.3
610.166,935.8
610.299,936.5
610.432,936.2
610.564,934.1
610.697,932.8
610.83,929.8
610.962,936.0
611.095,931.7
611.228,933.0
611.36,934.4
611.493,934.1
611.626,932.4
611.758,929.0
611.891,931.5
612.023,927.0
612.156,928.2
612.289,930.4
612.421,927.7
612.554,929.7
612.686,928.3
612.819,926.1
612.952,927.7
613.084,929.0
613.217,929.2
613.349,928.2
613.482,926.9
613.614,928.3
613.747,927.9
613.88,930.2
614.012,929.8
614.145,924.0
614.277,923.2
614.41,925.4
614.542,924.8
614.675,922.4
614.807,923.0
614.94,925.3
615.072,923.4
615.205,924.1
615.337,922.1
615.47,923.3
615.602,924.5
615.735,925.1
615.867,923.3
616.0,920.6
616.132,920.9
616.265,923.3
616.397,923.6
616.53,923.8
616.662,922.2
616.795,928.5
616.927,929.2
617.059,929.2
617.192,933.9
617.324,932.0
617.457,929.7
617.589,929.9
617.722,928.6
617.854,929.0
617.986,934.6
618.119,937.5
618.251,933.1
618.384,931.1
618.516,931.7
618.648,926.4
618.781,929.3
618.913,930.1
619.046,928.8
619.178,927.4
619.31,935.6
619.443,933.1
619.575,932.0
619.707,936.5
619.84,934.3
619.972,934.5
620.105,934.4
620.237,931.7
620.369,931.1
620.502,934.4
620.634,935.1
620.766,932.0
620.899,939.4
621.031,939.8
621.163,945.1
621.295,949.9
621.428,955.9
621.56,960.8
621.692,969.9
621.825,983.5
621.957,998.3
622.089,1009.3
622.222,1023.8
622.354,1027.9
622.486,1015.2
622.618,1003.3
622.751,986.4
622.883,972.3
623.015,956.0
623.147,944.8
623.28,939.2
623.412,938.3
623.544,932.1
623.676,931.5
623.809,932.4
623.941,930.3
624.073,929.7
624.205,928.7
624.338,923.9
624.47,924.2
624.602,926.6
624.734,927.5
624.866,923.9
624.999,931.5
625.131,928.9
625.263,934.9
625.395,933.7
625.527,933.8
625.66,939.5
625.792,946.3
625.924,953.4
626.056,959.1
626.188,976.3
626.32,1003.5
626.453,1039.1
626.585,1118.5
626.717,1254.3
626.849,1484.3
626.981,1796.6
627.113,2130.7
627.245,2307.1
627.377,2196.2
627.51,2006.0
627.642,1839.6
627.774,1721.6
627.906,1639.8
628.038,1617.2
628.17,1659.1
628.302,1780.2
628.434,2130.1
628.566,2531.0
628.699,2229.9
628.831,1750.1
628.963,1577.3
629.095,1521.0
629.227,1496.4
629.359,1469.8
629.491,1429.9
629.623,1370.5
629.755,1315.5
629.887,1277.4
630.019,1256.4
630.151,1248.6
630.283,1243.5
630.415,1241.4
630.547,1227.5
630.68,1186.3
630.812,1145.6
630.944,1096.7
631.076,1048.8
631.208,1002.6
631.34,975.7
631.472,959.4
631.604,950.5
631.736,943.2
631.868,935.9
632.0,932.9
632.132,929.7
632.264,928.9
632.396,926.9
632.528,923.5
632.66,924.9
632.792,922.2
632.924,919.0
633.056,920.0
633.188,916.2
633.32,916.1
633.451,918.0
633.583,915.0
633.715,917.0
633.847,911.3
633.979,911.0
634.111,912.2
634.243,908.2
634.375,907.0
634.507,909.3
634.639,905.6
634.771,904.3
634.903,908.2
635.035,910.5
635.167,906.2
635.299,907.6
635.431,902.3
635.562,908.4
635.694,905.1
635.826,910.5
635.958,905.9
636.09,905.3
636.222,905.9
636.354,902.2
636.486,903.4
636.618,905.4
636.749,901.6
636.881,904.5
637.013,904.4
637.145,901.9
637.277,900.3
637.409,897.1
637.541,899.7
637.673,897.4
637.804,901.0
637.936,897.4
638.068,899.5
638.2,895.7
638.332,898.0
638.464,898.4
638.595,898.9
638.727,898.1
638.859,901.2
638.991,900.8
639.123,897.2
639.255,898.3
639.386,898.7
639.518,899.4
639.65,900.0
639.782,900.2
639.914,898.0
640.045,897.5
640.177,897.4
640.309,903.3
640.441,900.8
640.573,898.9
640.704,902.2
640.836,896.9
640.968,900.1
641.1,898.4
641.231,901.1
641.363,897.3
641.495,899.6
641.627,900.9
641.759,899.4
641.89,899.3
642.022,900.0
642.154,898.6
642.286,897.8
642.417,900.4
642.549,900.8
642.681,897.8
642.813,904.2
642.944,897.7
643.076,898.8
643.208,899.7
643.339,897.7
643.471,900.5
643.603,898.3
643.735,901.3
643.866,902.2
643.998,899.7
644.13,898.9
644.261,896.7
644.393,896.1
644.525,901.3
644.657,896.9
644.788,904.2
644.92,899.3
645.052,898.3
645.183,894.5
645.315,900.3
645.447,894.3
645.578,897.7
645.71,898.2
645.842,898.8
645.973,900.1
646.105,900.6
646.237,900.7
646.368,899.7
646.5,899.1
646.632,896.3
646.763,896.6
646.895,897.2
647.027,898.6
647.158,900.9
647.29,899.7
647.421,901.4
647.553,903.2
647.685,903.6
647.816,901.3
647.948,898.4
648.08,900.8
648.211,900.1
648.343,899.3
648.474,902.2
648.606,900.8
648.738,899.9
648.869,897.9
649.001,898.4
649.133,900.6
649.264,898.4
649.396,897.9
649.527,899.7
649.659,899.6
649.791,899.7
649.922,899.6
650.054,896.9
650.185,898.8
650.317,898.0
650.448,900.7
650.58,897.8
650.712,898.6
650.843,900.1
650.975,900.5
651.106,899.8
651.238,899.0
651.369,900.0
651.501,896.5
651.633,897.6
651.764,897.9
651.896,900.5
652.027,898.9
652.159,898.4
652.29,896.6
652.422,902.6
652.553,899.4
652.685,895.1
652.816,900.6
652.948,896.6
653.079,900.2
653.211,896.7
653.343,898.8
653.474,900.4
653.606,897.3
653.737,898.2
653.869,896.7
654.0,897.0
654.132,899.4
654.263,897.3
654.395,898.3
654.526,894.2
654.658,896.8
654.789,898.3
654.921,895.5
655.052,894.6
655.184,894.7
655.315,894.0
655.447,898.9
655.578,895.5
655.71,896.4
655.841,893.8
655.973,895.8
656.104,891.5
656.236,895.8
656.367,894.9
656.498,895.3
656.63,893.4
656.761,894.6
656.893,893.5
657.024,895.2
657.156,892.1
657.287,895.4
657.419,896.2
657.55,891.5
657.682,893.3
657.813,894.4
657.945,892.2
658.076,894.0
658.207,894.2
658.339,893.9
658.47,893.0
658.602,891.6
658.733,892.6
658.865,891.5
658.996,892.9
659.127,892.1
659.259,888.2
659.39,894.0
659.522,890.3
659.653,889.3
659.785,892.6
659.916,891.7
660.047,895.8
660.179,889.9
660.31,892.3
660.442,889.0
660.573,889.3
660.704,888.1
660.836,885.8
660.967,887.3
661.099,888.1
661.23,885.9
661.362,884.4
661.493,884.5
661.624,887.7
661.756,881.8
661.887,881.0
662.018,883.9
662.15,886.2
662.281,883.5
662.413,883.5
662.544,880.2
662.675,884.3
662.807,884.6
662.938,883.9
663.07,882.0