File: spectra/VLFR_06-PET_nobio_Raman_0b3ec2cd.csv
cm-1,Intensity
-123.878,1856.75
-117.855,1858.4
-111.836,1856.3
-105.821,1856.25
-99.8104,1857.0
-93.8036,1856.95
-87.8007,1856.7
-81.8019,1856.55
-75.807,1857.0
-69.8161,1857.8
-63.8293,1856.75
-57.8464,1857.6
-51.8675,1857.55
-45.8926,1858.0
-39.9216,1857.75
-33.9547,1859.65
-27.9917,1861.65
-22.0326,1861.95
-16.0776,1878.85
-10.1265,2179.1
-4.17932,2984.75
1.76388,2926.75
7.70313,1946.9
13.6384,1860.0
19.5698,1860.65
25.4972,1861.65
31.4207,1862.95
37.3403,1864.9
43.256,1877.05
49.1677,2000.95
55.0755,2745.75
60.9794,4090.45
66.8794,4612.95
72.7754,4573.65
78.6676,4355.45
84.5559,4143.9
90.4402,3950.4
96.3207,3794.05
102.197,3519.7
108.07,3402.3
113.939,3222.05
119.804,3043.8
125.665,2875.9
131.522,2750.25
137.375,2684.7
143.225,2607.55
149.07,2561.25
154.912,2535.0
160.75,2502.55
166.584,2461.15
172.414,2464.3
178.241,2454.5
184.063,2450.4
189.882,2453.5
195.697,2451.5
201.508,2442.55
207.315,2445.7
213.119,2460.85
218.918,2448.9
224.714,2471.25
230.506,2451.75
236.294,2487.3
242.078,2493.35
247.859,2502.8
253.636,2540.5
259.409,2552.2
265.178,2575.3
270.943,2560.35
276.705,2543.7
282.463,2520.2
288.217,2493.0
293.967,2469.75
299.713,2454.9
305.456,2444.8
311.195,2450.2
316.93,2447.5
322.662,2432.85
328.389,2430.9
334.113,2425.3
339.834,2438.15
345.55,2466.2
351.263,2473.5
356.972,2464.0
362.677,2484.45
368.379,2477.65
374.077,2493.3
379.771,2477.0
385.461,2491.15
391.148,2498.95
396.831,2482.5
402.51,2497.7
408.186,2519.1
413.858,2503.8
419.526,2468.85
425.19,2484.05
430.851,2520.55
436.508,2518.95
442.162,2489.1
447.811,2505.25
453.458,2528.6
459.1,2515.65
464.739,2514.1
470.374,2539.6
476.005,2548.5
481.633,2516.8
487.257,2532.3
492.878,2540.75
498.494,2559.3
504.107,2549.6
509.717,2548.35
515.323,2572.4
520.925,2555.35
526.524,2552.4
532.119,2573.25
537.71,2564.6
543.298,2577.6
548.882,2606.7
554.462,2580.1
560.039,2590.25
565.613,2578.8
571.182,2596.8
576.748,2604.8
582.311,2624.05
587.87,2608.15
593.425,2601.55
598.977,2617.5
604.525,2636.1
610.069,2610.2
615.61,2640.85
621.148,2701.8
626.682,2893.95
632.212,3110.9
637.739,2869.85
643.262,2686.25
648.781,2698.4
654.297,2688.25
659.81,2692.8
665.319,2693.35
670.824,2682.05
676.326,2731.65
681.824,2691.1
687.319,2711.1
692.81,2752.1
698.298,2813.85
703.782,2865.3
709.262,2795.25
714.739,2765.45
720.213,2719.75
725.683,2749.85
731.15,2778.4
736.613,2771.5
742.072,2760.7
747.528,2756.0
752.981,2782.7
758.43,2807.65
763.875,2822.7
769.317,2811.55
774.756,2826.95
780.191,2860.9
785.623,2924.85
791.051,3022.3
796.475,3037.65
801.897,3005.95
807.314,3025.2
812.729,3077.95
818.139,3061.35
823.547,3073.35
828.951,3083.8
834.351,3138.0
839.748,3189.25
845.142,3336.7
850.532,3516.85
855.918,3710.9
861.302,3610.8
866.681,3375.75
872.058,3260.85
877.431,3195.65
882.8,3189.9
888.166,3193.0
893.529,3164.5
898.888,3098.4
904.244,3096.3
909.596,3056.5
914.945,2977.2
920.291,2998.1
925.633,2979.0
930.972,3042.55
936.308,3008.35
941.64,3037.45
946.968,3011.3
952.294,3019.85
957.615,3052.55
962.934,3074.95
968.249,3086.95
973.561,3083.55
978.869,3114.9
984.174,3082.95
989.476,3158.65
994.774,3150.45
1000.07,3175.8
1005.36,3163.8
1010.65,3201.15
1015.93,3216.05
1021.22,3186.75
1026.49,3241.6
1031.77,3214.5
1037.04,3203.3
1042.31,3211.65
1047.57,3222.55
1052.83,3211.5
1058.09,3210.9
1063.35,3242.3
1068.6,3243.7
1073.85,3271.1
1079.09,3332.45
1084.33,3382.05
1089.57,3418.9
1094.81,3542.85
1100.04,3554.3
1105.27,3591.85
1110.49,3646.1
1115.71,3740.1
1120.93,3755.1
1126.15,3631.4
1131.36,3485.45
1136.57,3422.5
1141.77,3389.7
1146.98,3318.8
1152.18,3331.6
1157.37,3305.15
1162.56,3346.75
1167.75,3419.95
1172.94,3572.25
1178.12,3645.5
1183.3,3509.05
1188.48,3468.75
1193.65,3370.1
1198.82,3377.55
1203.99,3378.55
1209.15,3355.05
1214.31,3351.7
1219.46,3411.65
1224.62,3438.65
1229.77,3389.5
1234.92,3451.6
1240.06,3531.85
1245.2,3532.45
1250.34,3537.85
1255.47,3651.6
1260.6,3757.45
1265.73,3896.9
1270.85,4008.05
1275.97,4150.95
1281.09,4360.35
1286.21,4494.15
1291.32,4529.75
1296.43,4337.0
1301.53,4077.65
1306.63,4048.6
1311.73,3887.5
1316.83,3779.95
1321.92,3743.95
1327.01,3672.7
1332.1,3628.25
1337.18,3558.75
1342.26,3637.25
1347.34,3609.9
1352.41,3616.8
1357.48,3582.3
1362.55,3611.8
1367.61,3618.7
1372.67,3628.05
1377.73,3665.75
1382.78,3625.8
1387.84,3613.9
1392.88,3638.9
1397.93,3698.7
1402.97,3743.95
1408.01,3784.8
1413.05,3856.9
1418.08,3784.15
1423.11,3672.75
1428.14,3718.55
1433.16,3795.4
1438.18,3823.65
1443.2,3862.05
1448.21,3866.4
1453.22,3843.95
1458.23,3853.5
1463.23,3823.55
1468.23,3857.6
1473.23,3833.15
1478.23,3739.6
1483.22,3722.45
1488.21,3761.05
1493.2,3750.5
1498.18,3737.05
1503.16,3764.7
1508.14,3757.2
1513.11,3776.35
1518.08,3752.25
1523.05,3813.95
1528.01,3786.55
1532.97,3805.75
1537.93,3847.25
1542.89,3831.2
1547.84,3847.6
1552.79,3898.25
1557.73,3884.45
1562.68,3914.2
1567.62,3926.35
1572.56,3901.65
1577.49,3970.8
1582.42,3998.8
1587.35,3998.0
1592.27,4125.3
1597.19,4306.05
1602.11,4880.45
1607.03,6001.95
1611.94,7584.8
1616.85,7342.8
1621.76,5639.55
1626.66,4404.05
1631.56,4170.6
1636.46,4045.2
1641.36,4048.9
1646.25,4000.5
1651.14,4053.9
1656.02,4019.7
1660.9,4012.95
1665.78,4016.65
1670.66,4023.3
1675.54,4057.65
1680.41,4073.8
1685.27,4071.9
1690.14,4176.15
1695.0,4116.65
1699.86,4185.6
1704.71,4327.8
1709.57,4662.2
1714.42,5215.65
1719.26,5919.4
1724.11,6216.6
1728.95,6399.4
1733.79,5998.9
1738.62,5546.85
1743.46,5013.9
1748.28,4595.45
1753.11,4357.35
1757.93,4290.5
1762.75,4260.85
1767.57,4159.7
1772.39,4159.6
1777.2,4176.2
1782.01,4151.2
1786.81,4165.3
1791.62,4223.0
1796.41,4198.1
1801.21,4111.3
1806.01,4198.65
1810.8,4204.85
1815.59,4162.8
1820.37,4183.5
1825.15,4217.05
1829.93,4123.9
1834.71,4184.05
1839.48,4182.85
1844.25,4155.95
1849.02,4155.5
1853.79,4169.25
1858.55,4250.55
1863.31,4173.15
1868.06,4136.2
1872.82,4218.95
1877.57,4253.9
1882.31,4262.65
1887.06,4242.95
1891.8,4214.15
1896.54,4276.65
1901.28,4205.95
1906.01,4223.55
1910.74,4264.7
1915.47,4261.4
1920.19,4238.5
1924.91,4268.6
1929.63,4289.5
1934.35,4188.2
1939.06,4262.05
1943.77,4214.3
1948.48,4285.9
1953.19,4350.65
1957.89,4286.65
1962.59,4260.9
1967.28,4266.6
1971.98,4208.55
1976.67,4330.6
1981.35,4338.0
1986.04,4337.95
1990.72,4335.75
1995.4,4315.15
2000.08,4326.2
2004.75,4365.85
2009.42,4317.15
2014.09,4316.15
2018.75,4348.85
2023.42,4348.5
2028.08,4322.25
2032.73,4377.15
2037.39,4410.45
2042.04,4354.35
2046.69,4330.0
2051.33,4385.6
2055.97,4365.7
2060.61,4324.4
2065.25,4395.95
2069.88,4388.6
2074.52,4397.55
2079.15,4387.7
2083.77,4325.25
2088.39,4391.2
2093.01,4398.7
2097.63,4397.4
2102.25,4361.8
2106.86,4422.05
2111.47,4345.7
2116.08,4410.1
2120.68,4409.8
2125.28,4454.95
2129.88,4404.4
2134.47,4379.9
2139.07,4445.05
2143.66,4426.95
2148.24,4392.05
2152.83,4391.25
2157.41,4442.95
2161.99,4433.7
2166.57,4385.75
2171.14,4461.35
2175.71,4383.5
2180.28,4434.2
2184.84,4425.4
2189.41,4470.95
2193.97,4394.55
2198.52,4391.9
2203.08,4472.7
2207.63,4476.95
2212.18,4411.8
2216.73,4439.85
2221.27,4438.25
2225.81,4448.25
2230.35,4425.9
2234.89,4457.8
2239.42,4459.25
2243.95,4384.95
2248.48,4463.75
2253.0,4477.05
2257.52,4442.75
2262.04,4464.2
2266.56,4436.7
2271.07,4408.6
2275.58,4428.5
2280.09,4408.15
2284.6,4450.9
2289.1,4484.8
2293.6,4470.85
2298.1,4364.9
2302.6,4468.35
2307.09,4484.3
2311.58,4469.65
2316.07,4444.75
2320.55,4503.05
2325.03,4414.6
2329.51,4428.45
2333.99,4486.65
2338.46,4392.5
2342.93,4462.65
2347.4,4484.8
2351.87,4517.1
2356.33,4432.3
2360.79,4411.4
2365.25,4489.2
2369.71,4472.45
2374.16,4385.25
2378.61,4433.35
2383.06,4496.25
2387.5,4407.2
2391.94,4437.7
2396.38,4421.45
2400.82,4434.5
2405.26,4475.05
2409.69,4524.9
2414.12,4461.8
2418.54,4482.3
2422.97,4524.35
2427.39,4394.05
2431.81,4463.35
2436.22,4463.85
2440.64,4474.95
2445.05,4508.85
2449.46,4462.85
2453.86,4412.3
2458.27,4467.95
2462.67,4489.65
2467.06,4462.9
2471.46,4475.8
2475.85,4446.95
2480.24,4479.75
2484.63,4415.5
2489.02,4483.6
2493.4,4463.5
2497.78,4479.85
2502.16,4494.35
2506.53,4398.5
2510.9,4433.5
2515.27,4507.8
2519.64,4505.45
2524.0,4515.4
2528.37,4472.05
2532.73,4533.75
2537.08,4438.25
2541.44,4485.8
2545.79,4491.55
2550.14,4503.25
2554.48,4482.65
2558.83,4493.25
2563.17,4480.3
2567.51,4528.3
2571.85,4527.0
2576.18,4500.1
2580.51,4537.2
2584.84,4498.05
2589.17,4479.95
2593.49,4498.25
2597.81,4567.85
2602.13,4535.25
2606.45,4574.3
2610.76,4553.2
2615.07,4540.0
2619.38,4537.35
2623.69,4511.45
2627.99,4561.5
2632.29,4565.75
2636.59,4534.65
2640.89,4565.45
2645.18,4520.6
2649.47,4574.4
2653.76,4504.95
2658.05,4541.7
2662.33,4558.55
2666.61,4540.15
2670.89,4559.2
2675.17,4569.5
2679.44,4487.4
2683.71,4555.95
2687.98,4534.55
2692.25,4527.1
2696.51,4587.4
2700.77,4528.5
2705.03,4600.3
2709.29,4569.7
2713.54,4545.4
2717.79,4535.1
2722.04,4567.4
2726.29,4567.75
2730.53,4522.3
2734.77,4574.65
2739.01,4617.85
2743.25,4617.05
2747.48,4566.85
2751.71,4597.55
2755.94,4604.0
2760.17,4551.15
2764.39,4662.95
2768.61,4659.3
2772.83,4609.95
2777.05,4635.1
2781.27,4689.7
2785.48,4637.7
2789.69,4704.65
2793.89,4665.25
2798.1,4730.8
2802.3,4624.0
2806.5,4604.05
2810.7,4657.75
2814.89,4683.15
2819.09,4679.75
2823.28,4748.65
2827.46,4670.5
2831.65,4652.25
2835.83,4661.65
2840.01,4650.9
2844.19,4663.5
2848.37,4678.05
2852.54,4703.25
2856.71,4724.2
2860.88,4742.4
2865.05,4749.05
2869.21,4801.45
2873.37,4770.75
2877.53,4794.2
2881.69,4852.4
2885.84,4923.0
2889.99,4875.95
2894.14,5020.8
2898.29,4943.9
2902.43,4889.0
2906.58,5000.35
2910.72,4975.55
2914.85,4887.55
2918.99,4959.65
2923.12,5018.3
2927.25,4906.45
2931.38,4896.95
2935.5,5041.85
2939.63,5072.1
2943.75,5160.0
2947.87,5349.3
2951.98,5416.95
2956.1,5724.35
2960.21,5678.6
2964.32,5774.1
2968.42,5795.2
2972.53,5761.55
2976.63,5480.4
2980.73,5432.3
2984.83,5337.5
2988.92,5460.65
2993.01,5378.65
2997.1,5303.35
3001.19,5354.0
3005.28,5351.9
3009.36,5284.15
3013.44,5300.05
3017.52,5263.4
3021.6,5168.75
3025.67,5253.1
3029.74,5175.75
3033.81,5090.1
3037.88,5120.85
3041.94,5135.05
3046.01,5191.75
3050.07,5174.4
3054.12,5201.25
3058.18,5280.35
3062.23,5420.6
3066.28,5441.85
3070.33,5780.6
3074.38,5867.3
3078.42,6163.0
3082.46,6369.05
3086.5,6116.3
3090.54,5937.45
3094.57,5595.05
3098.6,5446.3
3102.63,5430.55
3106.66,5275.9
3110.69,5295.5
3114.71,5355.4
3118.73,5302.1
3122.75,5250.8
3126.77,5240.35
3130.78,5264.1
3134.79,5257.5
3138.8,5240.8
3142.81,5254.85
3146.81,5213.25
3150.82,5226.75
3154.82,5244.15
3158.81,5244.9
3162.81,5218.55
3166.8,5322.95
3170.79,5263.1
3174.78,5146.75
3178.77,5194.0
3182.75,5214.9
3186.74,5202.75
3190.72,5154.05
3194.69,5271.2
3198.67,5284.9
3202.64,5345.25
3206.61,5203.15
3210.58,5237.8
3214.55,5257.6
3218.51,5332.15
3222.47,5352.95
3226.43,5440.5
3230.39,5310.95
3234.35,5386.05
3238.3,5284.8
3242.25,5295.3
3246.2,5327.5
3250.15,5239.35
3254.09,5335.25
3258.03,5353.55
3261.97,5339.35
3265.91,5290.45
3269.84,5408.95
3273.78,5246.95
3277.71,5351.55
3281.64,5349.75
3285.56,5264.4
3289.49,5331.8
3293.41,5379.8
3297.33,5381.85
3301.25,5411.95
3305.16,5265.2
3309.07,5420.25
3312.99,5256.4
3316.89,5215.55
3320.8,5340.7
3324.7,5259.7
3328.61,5387.1
3332.51,5287.6
3336.4,5391.6
3340.3,5291.75
3344.19,5407.55
3348.08,5325.25
3351.97,5253.35
3355.86,5332.15
3359.74,5401.15
3363.63,5258.2
3367.51,5227.6
3371.39,5189.95
3375.26,5313.2
3379.13,5383.6
3383.01,5229.65
3386.88,5313.25
3390.74,5293.95
3394.61,5299.45
3398.47,5247.2
3402.33,5342.85
3406.19,5226.95
3410.05,5251.4
3413.9,5352.8
3417.75,5310.95
3421.6,5247.25
3425.45,5229.25
3429.3,5353.1
3433.14,5291.2
3436.98,5168.95
3440.82,5227.55
3444.66,5370.55
3448.49,5224.2
3452.32,5254.35
3456.15,5339.95
3459.98,5199.95
3463.81,5255.05
3467.63,5207.5
3471.46,5217.55
3475.28,5181.3
3479.09,5225.05
3482.91,5188.6
3486.72,5178.05
3490.53,5180.7
3494.34,5130.95
3498.15,5138.5
3501.96,5180.05
3505.76,5094.85
3509.56,5104.8
3513.36,5120.15
3517.15,5000.7
3520.95,5027.7
3524.74,5038.15
3528.53,4872.95
3532.32,5128.4
3536.11,5100.3
3539.89,5144.75
3543.67,5148.1
3547.45,5013.0
3551.23,5063.85
3555.0,5060.3
3558.78,5113.75
3562.55,5080.25
3566.32,5026.2
3570.09,5055.45
3573.85,5022.85
3577.61,5001.0
3581.37,4966.65
3585.13,4890.9
3588.89,4917.2
3592.64,4951.95
3596.4,5067.0
3600.15,4877.9
3603.9,4931.6
3607.64,4881.6
3611.39,4864.3
3615.13,4993.1
3618.87,4765.75
3622.61,4667.8
3626.34,4795.75
3630.08,4794.55
3633.81,4808.1
3637.54,4769.55
3641.27,4828.85
3644.99,4830.8
3648.72,4775.25
3652.44,4678.5
3656.16,4736.4
3659.87,4753.25
3663.59,4654.9
3665.45,4753.15