File: spectra/VLFR_08-PLA_nobio_Raman_090e5ac3.csv
nm,Intensity
526.486,830.9
526.622,830.5
526.759,831.7
526.896,831.3
527.033,829.9
527.169,830.3
527.306,830.0
527.443,830.3
527.579,829.1
527.716,830.9
527.853,830.8
527.989,830.8
528.126,829.2
528.263,829.3
528.399,829.2
528.536,829.8
528.672,831.2
528.809,829.6
528.946,829.6
529.082,829.4
529.219,829.4
529.355,831.4
529.492,830.2
529.628,830.8
529.765,829.4
529.901,830.7
530.038,830.3
530.174,830.8
530.311,829.6
530.447,829.1
530.584,829.9
530.72,830.8
530.857,831.7
530.993,829.5
531.13,828.9
531.266,831.1
531.403,829.4
531.539,830.3
531.676,828.6
531.812,829.7
531.948,832.3
532.085,865.0
532.221,893.1
532.358,848.8
532.494,830.9
532.63,829.8
532.767,829.0
532.903,829.9
533.039,830.8
533.176,830.2
533.312,829.7
533.448,830.5
533.585,831.3
533.721,839.9
533.857,886.9
533.993,977.6
534.13,1022.9
534.266,1020.2
534.402,999.6
534.539,990.7
534.675,981.3
534.811,968.8
534.947,965.7
535.083,954.3
535.22,947.2
535.356,942.9
535.492,931.9
535.628,930.8
535.764,929.2
535.901,922.6
536.037,919.6
536.173,915.6
536.309,916.4
536.445,919.0
536.581,922.3
536.717,921.4
536.854,918.2
536.99,916.5
537.126,911.6
537.262,911.2
537.398,910.2
537.534,911.1
537.67,910.7
537.806,907.4
537.942,910.8
538.078,911.8
538.214,906.9
538.35,902.8
538.486,898.9
538.622,895.9
538.758,897.8
538.894,896.0
539.03,896.9
539.166,896.4
539.302,896.1
539.438,894.7
539.574,893.7
539.71,890.3
539.846,886.8
539.982,887.0
540.118,884.7
540.254,892.0
540.39,895.5
540.526,898.2
540.662,903.7
540.798,905.4
540.933,905.0
541.069,904.2
541.205,905.7
541.341,902.3
541.477,902.7
541.613,898.5
541.749,895.2
541.884,892.9
542.02,891.7
542.156,889.8
542.292,888.9
542.428,891.6
542.563,892.0
542.699,887.4
542.835,893.3
542.971,894.7
543.106,899.8
543.242,906.6
543.378,913.6
543.514,923.4
543.649,925.9
543.785,924.1
543.921,922.8
544.057,919.5
544.192,911.7
544.328,908.9
544.464,903.9
544.599,899.5
544.735,896.0
544.871,893.8
545.006,889.5
545.142,891.0
545.278,890.1
545.413,890.3
545.549,890.3
545.684,889.4
545.82,888.5
545.956,885.4
546.091,888.1
546.227,884.2
546.362,886.6
546.498,888.8
546.634,886.9
546.769,888.7
546.905,889.5
547.04,891.7
547.176,889.7
547.311,885.8
547.447,887.7
547.582,890.0
547.718,891.0
547.853,887.9
547.989,889.3
548.124,889.4
548.26,886.4
548.395,889.4
548.531,892.3
548.666,890.4
548.802,893.4
548.937,894.1
549.072,891.6
549.208,896.3
549.343,891.1
549.479,892.0
549.614,892.9
549.75,893.8
549.885,894.9
550.02,894.2
550.156,891.0
550.291,892.7
550.426,894.4
550.562,896.8
550.697,894.4
550.832,898.2
550.968,897.7
551.103,896.8
551.238,897.1
551.374,896.7
551.509,900.0
551.644,900.0
551.78,897.2
551.915,900.1
552.05,901.1
552.185,902.1
552.321,901.5
552.456,904.9
552.591,899.8
552.726,903.3
552.862,901.6
552.997,900.1
553.132,902.2
553.267,899.2
553.403,898.9
553.538,900.1
553.673,901.1
553.808,906.6
553.943,911.4
554.078,909.2
554.214,907.5
554.349,908.7
554.484,902.6
554.619,902.4
554.754,899.2
554.889,897.1
555.024,900.5
555.16,897.9
555.295,897.8
555.43,897.6
555.565,893.9
555.7,893.3
555.835,893.4
555.97,894.4
556.105,895.5
556.24,894.4
556.375,895.2
556.51,896.2
556.645,895.5
556.78,898.5
556.915,897.3
557.05,899.8
557.185,907.0
557.32,905.8
557.455,912.7
557.59,920.7
557.725,943.2
557.86,977.3
557.995,1012.8
558.13,1049.5
558.265,1022.5
558.4,969.4
558.535,930.7
558.67,923.5
558.805,918.0
558.94,917.7
559.075,913.1
559.21,912.8
559.345,909.8
559.479,912.0
559.614,909.6
559.749,910.6
559.884,908.4
560.019,907.2
560.154,903.7
560.289,906.6
560.424,902.1
560.558,904.1
560.693,903.9
560.828,905.2
560.963,901.9
561.098,901.9
561.232,896.8
561.367,899.1
561.502,900.7
561.637,901.2
561.772,902.6
561.906,900.5
562.041,900.5
562.176,900.7
562.311,905.4
562.445,906.6
562.58,904.5
562.715,909.7
562.85,913.0
562.984,916.9
563.119,921.5
563.254,929.0
563.388,944.7
563.523,945.9
563.658,944.3
563.792,931.4
563.927,925.7
564.062,915.2
564.196,917.4
564.331,913.8
564.466,916.5
564.6,917.8
564.735,920.0
564.87,929.3
565.004,935.4
565.139,936.8
565.273,934.4
565.408,932.2
565.543,931.8
565.677,931.3
565.812,935.7
565.946,947.6
566.081,956.6
566.215,956.5
566.35,951.3
566.485,941.7
566.619,927.7
566.754,922.0
566.888,916.3
567.023,912.5
567.157,910.5
567.292,911.7
567.426,912.4
567.561,910.2
567.695,916.9
567.83,917.9
567.964,920.9
568.099,920.6
568.233,918.3
568.368,914.9
568.502,922.7
568.636,918.1
568.771,918.4
568.905,918.5
569.04,921.1
569.174,919.0
569.309,923.5
569.443,919.7
569.577,915.6
569.712,918.8
569.846,913.9
569.98,912.0
570.115,915.7
570.249,915.8
570.384,920.6
570.518,917.8
570.652,920.3
570.787,918.1
570.921,920.5
571.055,920.5
571.19,923.9
571.324,926.8
571.458,931.2
571.592,939.9
571.727,944.9
571.861,944.2
571.995,940.5
572.13,934.7
572.264,936.0
572.398,931.2
572.532,933.4
572.667,935.3
572.801,926.9
572.935,934.3
573.069,931.9
573.204,934.9
573.338,934.4
573.472,934.6
573.606,937.5
573.74,936.5
573.875,932.1
574.009,934.5
574.143,933.5
574.277,936.4
574.411,940.9
574.545,947.9
574.68,943.2
574.814,935.8
574.948,930.1
575.082,926.8
575.216,924.7
575.35,924.9
575.484,924.1
575.619,922.7
575.753,926.8
575.887,927.0
576.021,929.8
576.155,931.3
576.289,938.3
576.423,951.5
576.557,977.4
576.691,989.6
576.825,995.7
576.959,999.9
577.093,979.7
577.227,964.3
577.361,950.7
577.495,938.4
577.629,939.5
577.763,935.8
577.897,927.5
578.031,927.1
578.165,928.2
578.299,928.6
578.433,929.6
578.567,925.4
578.701,928.0
578.835,930.6
578.969,927.5
579.103,930.7
579.237,925.1
579.371,927.7
579.505,924.5
579.639,925.5
579.773,926.7
579.907,928.2
580.041,932.7
580.175,921.9
580.309,926.5
580.442,925.4
580.576,930.8
580.71,928.4
580.844,927.3
580.978,927.5
581.112,929.5
581.246,925.6
581.38,926.1
581.513,927.8
581.647,930.4
581.781,931.3
581.915,928.5
582.049,928.5
582.183,930.0
582.316,930.2
582.45,925.0
582.584,929.5
582.718,928.7
582.852,932.1
582.985,928.7
583.119,932.4
583.253,926.2
583.387,925.0
583.52,930.7
583.654,932.3
583.788,931.7
583.922,935.4
584.055,933.0
584.189,934.3
584.323,931.6
584.456,934.0
584.59,935.3
584.724,933.0
584.858,929.6
584.991,934.9
585.125,933.0
585.259,933.8
585.392,937.6
585.526,933.5
585.66,940.2
585.793,935.2
585.927,941.5
586.061,935.4
586.194,940.5
586.328,941.8
586.462,948.1
586.595,961.9
586.729,964.1
586.862,974.2
586.996,979.4
587.13,986.0
587.263,991.8
587.397,998.4
587.53,999.6
587.664,1001.4
587.797,991.3
587.931,976.7
588.065,961.2
588.198,953.5
588.332,951.5
588.465,945.7
588.599,937.2
588.732,939.1
588.866,935.3
588.999,936.6
589.133,938.6
589.266,940.6
589.4,940.4
589.533,937.6
589.667,940.0
589.8,940.1
589.934,940.7
590.067,936.7
590.201,937.5
590.334,938.6
590.468,939.4
590.601,941.8
590.735,937.1
590.868,941.0
591.001,936.5
591.135,941.5
591.268,940.1
591.402,940.0
591.535,944.7
591.669,945.0
591.802,937.6
591.935,939.3
592.069,940.3
592.202,941.1
592.335,940.8
592.469,942.1
592.602,939.2
592.736,940.8
592.869,937.6
593.002,942.9
593.136,941.3
593.269,942.2
593.402,945.9
593.536,940.4
593.669,939.6
593.802,944.8
593.936,946.0
594.069,939.8
594.202,938.4
594.336,945.6
594.469,943.4
594.602,939.3
594.735,946.0
594.869,944.5
595.002,943.1
595.135,946.9
595.268,940.9
595.402,943.3
595.535,942.8
595.668,948.1
595.801,945.5
595.935,943.1
596.068,941.4
596.201,945.8
596.334,939.2
596.468,947.8
596.601,950.0
596.734,945.0
596.867,946.4
597.0,950.1
597.133,951.2
597.267,948.7
597.4,948.0
597.533,945.0
597.666,948.1
597.799,949.3
597.932,946.0
598.066,951.5
598.199,951.6
598.332,953.3
598.465,946.1
598.598,949.0
598.731,946.3
598.864,952.7
598.998,950.8
599.131,947.1
599.264,949.2
599.397,953.8
599.53,949.9
599.663,946.0
599.796,954.3
599.929,954.2
600.062,954.0
600.195,948.3
600.328,949.8
600.461,951.5
600.594,953.1
600.727,952.2
600.86,953.3
600.994,950.7
601.127,947.1
601.26,951.9
601.393,951.9
601.526,947.8
601.659,950.1
601.792,951.4
601.925,959.2
602.058,950.9
602.191,951.5
602.324,950.8
602.457,953.4
602.589,950.7
602.722,953.3
602.855,956.1
602.988,954.3
603.121,954.2
603.254,956.7
603.387,958.3
603.52,955.2
603.653,955.0
603.786,958.2
603.919,953.0
604.052,958.1
604.185,956.2
604.318,956.5
604.451,952.8
604.583,953.9
604.716,956.7
604.849,954.5
604.982,954.0
605.115,951.8
605.248,952.2
605.381,956.2
605.514,955.6
605.646,952.7
605.779,955.9
605.912,954.7
606.045,956.3
606.178,954.5
606.311,956.8
606.443,951.7
606.576,959.1
606.709,958.7
606.842,954.1
606.975,955.3
607.107,957.2
607.24,957.4
607.373,956.3
607.506,952.4
607.639,958.9
607.771,956.6
607.904,959.4
608.037,957.6
608.17,956.8
608.302,957.8
608.435,962.3
608.568,958.4
608.701,957.9
608.833,959.6
608.966,963.7
609.099,958.6
609.232,961.2
609.364,961.9
609.497,959.7
609.63,956.7
609.762,962.0
609.895,954.9
610.028,961.8
610.161,962.7
610.293,962.4
610.426,958.8
610.559,958.8
610.691,958.2
610.824,963.3
610.957,963.2
611.089,961.8
611.222,960.6
611.355,962.5
611.487,967.4
611.62,959.7
611.752,968.6
611.885,965.3
612.018,966.3
612.15,963.8
612.283,965.4
612.416,963.8
612.548,969.1
612.681,968.2
612.813,966.6
612.946,971.0
613.078,968.1
613.211,970.1
613.344,965.8
613.476,969.1
613.609,972.1
613.741,973.3
613.874,972.4
614.006,975.2
614.139,974.5
614.272,970.1
614.404,966.6
614.537,969.9
614.669,968.6
614.802,972.0
614.934,973.8
615.067,967.6
615.199,976.4
615.332,972.6
615.464,973.0
615.597,973.6
615.729,977.1
615.862,973.3
615.994,975.5
616.127,976.9
616.259,974.3
616.392,971.1
616.524,973.9
616.657,973.2
616.789,975.0
616.922,972.7
617.054,972.5
617.186,972.8
617.319,977.0
617.451,974.9
617.584,980.6
617.716,980.4
617.849,976.3
617.981,977.5
618.113,979.0
618.246,974.4
618.378,975.1
618.511,972.8
618.643,979.9
618.775,975.7
618.908,974.8
619.04,975.1
619.173,976.3
619.305,976.9
619.437,972.0
619.57,969.2
619.702,978.2
619.834,974.4
619.967,975.9
620.099,975.6
620.231,976.4
620.364,981.7
620.496,975.5
620.628,975.7
620.761,981.9
620.893,977.4
621.025,970.5
621.158,975.2
621.29,976.2
621.422,978.7
621.555,978.9
621.687,977.3
621.819,979.9
621.952,980.2
622.084,981.3
622.216,980.4
622.348,984.3
622.481,980.7
622.613,981.8
622.745,990.7
622.878,993.1
623.01,996.3
623.142,996.2
623.274,993.7
623.407,989.7
623.539,994.2
623.671,989.6
623.803,990.8
623.935,988.2
624.068,984.1
624.2,985.8
624.332,985.2
624.464,983.8
624.597,983.9
624.729,980.9
624.861,986.1
624.993,981.7
625.125,984.1
625.258,981.4
625.39,984.6
625.522,983.2
625.654,982.0
625.786,980.8
625.918,980.5
626.051,983.8
626.183,982.3
626.315,980.2
626.447,984.3
626.579,985.4
626.711,979.3
626.844,981.5
626.976,983.5
627.108,978.8
627.24,981.4
627.372,984.0
627.504,981.9
627.636,983.0
627.768,986.4
627.901,990.8
628.033,993.1
628.165,1007.9
628.297,1025.4
628.429,1044.2
628.561,1057.3
628.693,1051.2
628.825,1039.3
628.957,1037.5
629.089,1031.2
629.221,1032.9
629.354,1036.3
629.486,1037.2
629.618,1034.9
629.75,1041.2
629.882,1038.7
630.014,1037.9
630.146,1041.0
630.278,1053.3
630.41,1062.8
630.542,1083.3
630.674,1128.5
630.806,1206.1
630.938,1315.1
631.07,1408.9
631.202,1431.5
631.334,1369.5
631.466,1291.7
631.598,1215.0
631.73,1159.1
631.862,1125.1
631.994,1110.4
632.126,1095.9
632.258,1083.2
632.39,1077.4
632.522,1073.2
632.654,1072.8
632.786,1081.0
632.918,1102.3
633.05,1126.1
633.182,1157.3
633.314,1158.5
633.446,1156.7
633.578,1149.1
633.71,1123.3
633.842,1102.3
633.974,1079.3
634.106,1065.5
634.237,1042.8
634.369,1028.7
634.501,1009.7
634.633,1001.5
634.765,1002.6
634.897,992.1
635.029,990.7
635.161,988.6
635.293,984.0
635.425,982.3
635.557,980.6
635.689,979.0
635.82,975.4
635.952,979.0
636.084,974.5
636.216,975.2
636.348,980.6
636.48,974.4
636.612,971.2
636.744,977.9
636.875,971.2
637.007,975.3
637.139,977.5
637.271,972.4
637.403,971.5
637.535,972.0
637.667,975.4
637.798,970.9
637.93,975.4
638.062,969.4
638.194,972.7
638.326,973.1
638.458,968.6
638.589,973.6
638.721,970.1
638.853,973.8
638.985,970.5
639.117,971.4
639.248,966.2
639.38,969.3
639.512,968.1
639.644,965.2
639.776,969.9
639.907,970.4
640.039,970.5
640.171,966.8
640.303,970.6
640.435,968.4
640.566,967.3
640.698,964.1
640.83,967.1
640.962,970.8
641.093,968.1
641.225,972.5
641.357,968.6
641.489,972.8
641.62,966.0
641.752,967.4
641.884,966.0
642.016,964.8
642.147,966.1
642.279,966.3
642.411,969.1
642.543,965.7
642.674,963.1
642.806,968.0
642.938,965.8
643.069,966.3
643.201,969.9
643.333,968.1
643.465,963.5
643.596,963.1
643.728,966.4
643.86,962.3
643.991,959.9
644.123,961.9
644.255,956.6
644.386,956.4
644.518,960.7
644.65,962.3
644.781,959.9
644.913,959.8
645.045,958.1
645.176,959.7
645.308,957.4
645.44,957.6
645.571,959.4
645.703,960.5
645.835,954.4
645.966,957.3
646.098,952.5
646.23,954.3
646.361,957.6
646.493,954.1
646.625,954.8
646.756,956.8
646.888,953.3
647.019,956.9
647.151,955.7
647.283,956.9
647.414,958.7
647.546,958.3
647.678,953.4
647.809,956.6
647.941,951.1
648.072,955.5
648.204,956.6
648.336,955.3
648.467,957.8
648.599,954.4
648.73,952.8
648.862,952.4
648.993,951.6
649.125,951.1
649.257,951.4
649.388,953.8
649.52,953.6
649.651,952.2
649.783,948.8
649.914,951.1
650.046,953.0
650.178,949.8
650.309,949.0
650.441,948.4
650.572,946.2
650.704,949.8
650.835,947.2
650.967,947.1
651.098,949.5
651.23,945.5
651.361,948.6
651.493,950.1
651.625,947.4
651.756,949.9
651.888,942.8
652.019,952.3
652.151,944.9
652.282,945.2
652.414,944.7
652.545,949.2
652.677,946.4
652.808,946.6
652.94,948.4
653.071,947.7
653.203,944.0
653.334,944.9
653.466,948.0
653.597,948.7
653.729,947.7
653.86,949.4
653.992,949.2
654.123,946.2
654.255,945.5
654.386,945.5
654.518,946.0
654.649,943.6
654.78,945.7
654.912,943.8
655.043,946.0
655.175,947.8
655.306,947.2
655.438,944.3
655.569,942.8
655.701,945.7
655.832,943.7
655.964,942.5
656.095,945.6
656.226,944.8
656.358,945.3
656.489,943.3
656.621,943.5
656.752,947.5
656.884,943.9
657.015,942.3
657.146,944.0
657.278,943.3
657.409,944.3
657.541,942.0
657.672,944.8
657.804,944.3
657.935,938.9
658.066,943.0
658.198,944.7
658.329,943.8
658.461,945.8
658.592,940.3
658.723,945.3
658.855,942.7
658.986,939.5
659.118,943.6
659.249,939.5
659.38,940.0
659.512,942.9
659.643,941.8
659.774,939.8
659.906,939.5
660.037,942.7
660.169,936.8
660.3,940.1
660.431,942.5
660.563,941.5
660.694,938.8
660.825,942.3
660.957,940.6
661.088,939.0
661.22,936.2
661.351,939.3
661.482,934.6
661.614,936.5
661.745,938.5
661.876,936.6
662.008,940.7
662.139,935.2
662.27,939.3
662.402,934.2
662.533,937.8
662.664,934.0
662.796,940.0
662.927,937.2
663.058,935.8