File: spectra/VLFR_02-HDPE_bio_Raman_d01e2104.csv
nm,Intensity
528.626,1867.0
528.795,1868.7
528.963,1866.9
529.132,1868.5
529.3,1869.1
529.469,1867.5
529.637,1868.4
529.806,1866.7
529.974,1869.2
530.143,1869.0
530.311,1867.6
530.48,1867.0
530.648,1868.0
530.816,1867.9
530.985,1867.8
531.153,1870.8
531.322,1872.4
531.49,1877.6
531.658,1901.5
531.827,2431.8
531.995,5495.9
532.164,5045.6
532.332,2383.5
532.5,1873.6
532.669,1870.6
532.837,1871.0
533.006,1867.9
533.174,1869.7
533.342,1870.0
533.511,1878.2
533.679,1947.2
533.847,2085.9
534.016,2179.5
534.184,2212.8
534.352,2200.8
534.521,2205.8
534.689,2215.1
534.857,2224.1
535.025,2236.4
535.194,2232.2
535.362,2198.2
535.53,2161.0
535.699,2150.5
535.867,2159.0
536.035,2121.6
536.203,2132.4
536.372,2107.5
536.54,2081.0
536.708,2075.9
536.876,2076.3
537.044,2084.4
537.213,2122.5
537.381,2109.2
537.549,2093.5
537.717,2075.6
537.885,2080.6
538.054,2077.1
538.222,2066.3
538.39,2072.8
538.558,2058.3
538.726,2058.4
538.894,2047.4
539.063,2060.0
539.231,2038.5
539.399,2041.3
539.567,2041.6
539.735,2039.0
539.903,2044.5
540.071,2047.1
540.239,2040.8
540.408,2042.5
540.576,2034.2
540.744,2043.4
540.912,2060.0
541.08,2056.2
541.248,2054.9
541.416,2045.6
541.584,2054.7
541.752,2041.8
541.92,2044.3
542.088,2044.9
542.256,2038.5
542.424,2049.2
542.592,2041.8
542.76,2056.5
542.928,2048.3
543.096,2048.0
543.264,2048.1
543.432,2048.2
543.6,2047.7
543.768,2070.3
543.936,2109.2
544.104,2160.6
544.272,2129.3
544.44,2069.8
544.608,2048.8
544.776,2061.0
544.944,2069.4
545.112,2065.0
545.28,2049.1
545.448,2046.1
545.616,2063.2
545.784,2084.6
545.951,2095.5
546.119,2152.2
546.287,2305.3
546.455,2427.0
546.623,2354.5
546.791,2186.0
546.959,2111.4
547.127,2088.0
547.294,2072.5
547.462,2067.8
547.63,2055.7
547.798,2060.4
547.966,2071.7
548.134,2058.4
548.301,2062.1
548.469,2072.4
548.637,2069.4
548.805,2071.2
548.972,2079.6
549.14,2082.6
549.308,2092.4
549.476,2090.2
549.644,2092.4
549.811,2085.4
549.979,2117.1
550.147,2139.1
550.315,2151.9
550.482,2112.8
550.65,2093.5
550.818,2065.5
550.985,2069.0
551.153,2069.6
551.321,2062.1
551.488,2068.3
551.656,2073.7
551.824,2069.8
551.991,2073.3
552.159,2065.4
552.327,2058.6
552.494,2060.4
552.662,2068.7
552.83,2062.3
552.997,2063.5
553.165,2061.6
553.333,2077.8
553.5,2076.6
553.668,2073.5
553.835,2076.0
554.003,2077.3
554.171,2075.9
554.338,2078.1
554.506,2077.5
554.673,2087.2
554.841,2077.9
555.008,2083.2
555.176,2080.6
555.343,2088.7
555.511,2086.2
555.679,2099.3
555.846,2077.9
556.014,2094.6
556.181,2091.3
556.349,2095.1
556.516,2096.5
556.684,2097.9
556.851,2111.8
557.018,2096.6
557.186,2109.1
557.353,2105.1
557.521,2113.1
557.688,2116.1
557.856,2124.6
558.023,2118.8
558.191,2126.0
558.358,2124.1
558.525,2131.3
558.693,2106.5
558.86,2122.1
559.028,2120.1
559.195,2114.0
559.362,2112.1
559.53,2114.3
559.697,2120.4
559.864,2119.8
560.032,2106.5
560.199,2102.7
560.366,2122.3
560.534,2125.8
560.701,2122.5
560.868,2123.7
561.036,2124.8
561.203,2151.6
561.37,2140.7
561.538,2152.2
561.705,2189.0
561.872,2286.6
562.039,2701.4
562.207,3507.3
562.374,3815.7
562.541,2844.4
562.708,2270.9
562.876,2181.8
563.043,2171.3
563.21,2156.3
563.377,2163.4
563.545,2200.5
563.712,2286.4
563.879,2558.9
564.046,2715.6
564.213,2465.5
564.38,2278.9
564.548,2250.4
564.715,2211.4
564.882,2230.1
565.049,2203.2
565.216,2195.3
565.383,2192.5
565.551,2202.5
565.718,2236.0
565.885,2386.4
566.052,2690.3
566.219,2819.4
566.386,2578.4
566.553,2346.7
566.72,2271.5
566.887,2208.4
567.054,2174.9
567.221,2209.2
567.388,2241.1
567.555,2244.1
567.722,2178.5
567.889,2170.9
568.057,2142.9
568.224,2160.1
568.391,2129.7
568.558,2148.9
568.725,2137.9
568.892,2142.3
569.058,2148.3
569.225,2159.8
569.392,2154.2
569.559,2157.0
569.726,2155.4
569.893,2144.4
570.06,2161.1
570.227,2169.3
570.394,2170.4
570.561,2183.1
570.728,2206.9
570.895,2200.7
571.062,2231.1
571.229,2384.3
571.395,2823.0
571.562,3176.8
571.729,2722.4
571.896,2350.9
572.063,2276.4
572.23,2224.4
572.397,2208.1
572.563,2185.0
572.73,2181.0
572.897,2168.2
573.064,2170.9
573.231,2174.9
573.397,2174.6
573.564,2173.8
573.731,2205.4
573.898,2226.6
574.064,2215.8
574.231,2180.1
574.398,2162.9
574.565,2170.6
574.731,2181.4
574.898,2176.8
575.065,2200.5
575.232,2249.8
575.398,2449.3
575.565,2607.5
575.732,2514.0
575.898,2478.2
576.065,2584.2
576.232,2766.4
576.398,2825.0
576.565,2654.6
576.732,2604.4
576.898,2611.6
577.065,2595.8
577.232,2516.8
577.398,2381.0
577.565,2319.2
577.731,2280.3
577.898,2245.4
578.065,2245.4
578.231,2239.5
578.398,2214.5
578.564,2220.3
578.731,2225.4
578.897,2230.8
579.064,2255.0
579.23,2233.5
579.397,2246.9
579.563,2259.7
579.73,2252.5
579.896,2241.5
580.063,2265.5
580.229,2289.7
580.396,2265.1
580.562,2282.4
580.729,2283.5
580.895,2275.2
581.062,2280.6
581.228,2294.6
581.395,2306.0
581.561,2309.1
581.728,2289.9
581.894,2324.8
582.06,2318.7
582.227,2302.6
582.393,2316.2
582.56,2335.6
582.726,2315.7
582.892,2340.8
583.059,2330.8
583.225,2341.4
583.391,2333.3
583.558,2317.6
583.724,2340.5
583.89,2343.7
584.057,2330.4
584.223,2343.8
584.389,2344.5
584.556,2336.6
584.722,2334.0
584.888,2353.1
585.054,2347.8
585.221,2339.4
585.387,2317.5
585.553,2354.5
585.719,2370.5
585.886,2338.8
586.052,2335.6
586.218,2326.5
586.384,2365.8
586.55,2348.1
586.717,2361.9
586.883,2338.1
587.049,2365.2
587.215,2348.3
587.381,2354.2
587.548,2343.4
587.714,2334.4
587.88,2337.1
588.046,2343.1
588.212,2339.3
588.378,2321.8
588.544,2337.3
588.71,2333.1
588.876,2317.6
589.043,2303.3
589.209,2311.5
589.375,2315.5
589.541,2309.3
589.707,2304.1
589.873,2304.6
590.039,2315.1
590.205,2322.7
590.371,2321.3
590.537,2320.0
590.703,2326.3
590.869,2303.5
591.035,2297.6
591.201,2296.1
591.367,2318.6
591.533,2299.1
591.699,2305.0
591.865,2295.8
592.031,2309.2
592.197,2308.6
592.363,2311.6
592.529,2301.9
592.694,2308.2
592.86,2310.4
593.026,2298.8
593.192,2307.3
593.358,2300.2
593.524,2327.3
593.69,2291.4
593.856,2308.2
594.021,2290.5
594.187,2269.9
594.353,2306.7
594.519,2296.1
594.685,2301.5
594.851,2303.9
595.016,2294.3
595.182,2300.2
595.348,2333.4
595.514,2317.9
595.68,2314.4
595.845,2308.4
596.011,2302.1
596.177,2321.1
596.342,2330.9
596.508,2321.9
596.674,2310.1
596.84,2326.6
597.005,2320.1
597.171,2321.6
597.337,2331.5
597.502,2343.5
597.668,2315.1
597.834,2343.0
597.999,2323.4
598.165,2339.4
598.331,2327.8
598.496,2339.4
598.662,2340.0
598.828,2331.6
598.993,2342.4
599.159,2344.7
599.324,2348.7
599.49,2348.1
599.656,2337.3
599.821,2354.8
599.987,2342.2
600.152,2357.0
600.318,2351.9
600.483,2371.4
600.649,2348.5
600.814,2349.6
600.98,2348.7
601.145,2331.8
601.311,2365.6
601.476,2363.8
601.642,2349.3
601.807,2348.3
601.973,2362.9
602.138,2348.1
602.304,2357.8
602.469,2343.6
602.635,2338.7
602.8,2341.9
602.965,2338.7
603.131,2328.4
603.296,2339.7
603.462,2328.0
603.627,2326.1
603.792,2340.3
603.958,2334.1
604.123,2319.8
604.288,2303.5
604.454,2334.0
604.619,2316.8
604.784,2316.8
604.95,2316.3
605.115,2300.7
605.28,2306.7
605.446,2321.3
605.611,2307.7
605.776,2299.1
605.941,2295.9
606.107,2302.6
606.272,2295.6
606.437,2296.6
606.602,2288.2
606.767,2307.5
606.933,2293.0
607.098,2279.7
607.263,2288.7
607.428,2288.3
607.593,2274.2
607.759,2285.8
607.924,2276.3
608.089,2284.5
608.254,2268.7
608.419,2263.5
608.584,2266.5
608.749,2266.6
608.915,2258.4
609.08,2271.4
609.245,2250.4
609.41,2274.7
609.575,2264.6
609.74,2272.0
609.905,2251.6
610.07,2268.9
610.235,2261.3
610.4,2272.4
610.565,2267.5
610.73,2252.9
610.895,2271.2
611.06,2281.0
611.225,2263.3
611.39,2261.6
611.555,2254.8
611.72,2244.6
611.885,2263.2
612.05,2224.0
612.215,2248.3
612.38,2235.8
612.545,2240.9
612.71,2240.7
612.875,2235.9
613.04,2235.6
613.204,2230.4
613.369,2234.5
613.534,2237.4
613.699,2226.5
613.864,2250.1
614.029,2225.7
614.194,2242.6
614.358,2234.3
614.523,2233.2
614.688,2233.5
614.853,2229.8
615.018,2220.9
615.182,2227.7
615.347,2239.0
615.512,2248.8
615.677,2216.2
615.841,2245.2
616.006,2250.5
616.171,2235.8
616.336,2231.9
616.5,2243.4
616.665,2242.5
616.83,2244.4
616.994,2274.5
617.159,2275.3
617.324,2272.9
617.489,2284.1
617.653,2277.1
617.818,2289.9
617.982,2284.8
618.147,2297.2
618.312,2280.3
618.476,2275.2
618.641,2279.0
618.805,2277.2
618.97,2280.7
619.135,2291.0
619.299,2304.4
619.464,2324.3
619.628,2313.8
619.793,2317.6
619.957,2313.2
620.122,2306.5
620.286,2295.0
620.451,2308.7
620.615,2325.0
620.78,2339.6
620.944,2330.8
621.109,2362.6
621.273,2368.9
621.438,2407.7
621.602,2422.0
621.767,2472.1
621.931,2515.9
622.095,2576.4
622.26,2600.5
622.424,2605.4
622.589,2523.8
622.753,2450.1
622.917,2373.1
623.082,2366.1
623.246,2337.5
623.41,2322.0
623.575,2319.9
623.739,2327.4
623.903,2312.6
624.068,2330.6
624.232,2305.8
624.396,2299.5
624.561,2309.4
624.725,2316.0
624.889,2325.6
625.053,2319.5
625.218,2332.0
625.382,2344.2
625.546,2364.7
625.71,2376.0
625.875,2403.2
626.039,2463.6
626.203,2539.7
626.367,2706.6
626.531,3004.9
626.695,3738.3
626.86,4698.7
627.024,6017.1
627.188,6507.0
627.352,6314.4
627.516,5789.3
627.68,4982.2
627.844,4878.2
628.008,4811.8
628.172,5149.0
628.337,6009.5
628.501,6665.8
628.665,6167.6
628.829,4981.7
628.993,4554.6
629.157,4321.4
629.321,4205.3
629.485,3995.3
629.649,3817.2
629.813,3617.7
629.977,3518.3
630.141,3524.8
630.305,3493.9
630.469,3385.9
630.633,3266.0
630.797,3075.9
630.96,2874.5
631.124,2645.4
631.288,2525.3
631.452,2482.6
631.616,2431.1
631.78,2406.3
631.944,2378.4
632.108,2361.1
632.272,2352.2
632.435,2366.2
632.599,2339.6
632.763,2336.8
632.927,2351.2
633.091,2327.9
633.254,2314.7
633.418,2326.6
633.582,2305.6
633.746,2282.4
633.91,2305.3
634.073,2312.7
634.237,2279.4
634.401,2287.2
634.564,2288.8
634.728,2275.9
634.892,2283.1
635.056,2271.9
635.219,2250.2
635.383,2269.5
635.547,2242.1
635.71,2255.2
635.874,2248.2
636.038,2257.1
636.201,2239.8
636.365,2251.9
636.528,2246.4
636.692,2259.7
636.856,2257.2
637.019,2233.4
637.183,2235.9
637.346,2218.1
637.51,2225.6
637.673,2238.6
637.837,2207.2
638.0,2219.7
638.164,2225.9
638.327,2219.0
638.491,2197.9
638.654,2214.4
638.818,2213.2
638.981,2197.1
639.145,2213.1
639.308,2200.4
639.472,2209.5
639.635,2217.1
639.799,2190.6
639.962,2169.8
640.125,2201.0
640.289,2200.5
640.452,2197.8
640.616,2177.0
640.779,2182.9
640.942,2177.6
641.106,2189.1
641.269,2180.1
641.432,2189.4
641.596,2188.4
641.759,2171.3
641.922,2159.7
642.085,2166.4
642.249,2191.8
642.412,2175.6
642.575,2190.2
642.738,2187.5
642.902,2175.9
643.065,2163.2
643.228,2173.4
643.391,2180.9
643.555,2173.0
643.718,2175.2
643.881,2168.7
644.044,2160.6
644.207,2164.7
644.37,2172.7
644.534,2171.1
644.697,2158.5
644.86,2155.0
645.023,2146.7
645.186,2158.8
645.349,2156.4
645.512,2150.0
645.675,2143.3
645.838,2161.1
646.001,2149.4
646.164,2129.2
646.327,2146.8
646.49,2147.1
646.653,2153.1
646.816,2138.8
646.979,2139.1
647.142,2149.9
647.305,2151.7
647.468,2142.2
647.631,2154.8
647.794,2128.8
647.957,2142.5
648.12,2147.6
648.283,2151.9
648.446,2149.6
648.609,2151.2
648.772,2138.8
648.935,2156.6
649.098,2161.2
649.26,2169.3
649.423,2173.5
649.586,2180.6
649.749,2184.2
649.912,2203.9
650.075,2204.8
650.237,2181.9
650.4,2170.9
650.563,2171.0
650.726,2157.9
650.888,2149.0
651.051,2129.3
651.214,2154.2
651.377,2133.3
651.539,2135.4
651.702,2126.6
651.865,2118.6
652.027,2114.6
652.19,2115.5
652.353,2130.5
652.515,2105.2
652.678,2109.3
652.841,2108.8
653.003,2110.2
653.166,2117.0
653.329,2119.3
653.491,2113.1
653.654,2122.8
653.816,2117.5
653.979,2108.1
654.142,2108.8
654.304,2107.7
654.467,2100.4
654.629,2090.9
654.792,2097.1
654.954,2089.4
655.117,2088.8
655.279,2091.4
655.442,2082.7
655.604,2074.1
655.767,2089.2
655.929,2077.3
656.091,2068.5
656.254,2054.8
656.416,2061.7
656.579,2073.5
656.741,2080.5
656.904,2084.5
657.066,2068.6
657.228,2062.1
657.391,2075.3
657.553,2066.5
657.715,2069.1
657.878,2061.5
658.04,2072.6
658.202,2061.6
658.365,2058.7
658.527,2063.0
658.689,2064.8
658.851,2047.8
659.014,2054.0
659.176,2063.0
659.338,2061.3
659.5,2044.9
659.663,2047.2
659.825,2051.4
659.987,2061.5
660.149,2062.5
660.311,2055.3
660.474,2065.5
660.636,2046.5
660.798,2053.1
660.96,2040.3
661.041,2039.3