File: spectra/VLFR_02-HDPE_bio_Raman_e0f4c69d.csv
nm,Intensity
528.626,1861.2
528.795,1863.2
528.963,1862.8
529.132,1861.5
529.3,1862.5
529.469,1862.7
529.637,1862.4
529.806,1861.3
529.974,1863.8
530.143,1860.8
530.311,1862.8
530.48,1862.4
530.648,1861.8
530.816,1862.5
530.985,1864.7
531.153,1861.8
531.322,1863.8
531.49,1866.7
531.658,1884.4
531.827,2214.8
531.995,3508.7
532.164,3932.8
532.332,2173.4
532.5,1866.6
532.669,1865.8
532.837,1862.3
533.006,1861.5
533.174,1862.5
533.342,1862.3
533.511,1879.8
533.679,1956.2
533.847,2105.0
534.016,2213.4
534.184,2262.3
534.352,2259.3
534.521,2253.3
534.689,2274.6
534.857,2268.6
535.025,2299.3
535.194,2286.2
535.362,2248.1
535.53,2199.4
535.699,2192.1
535.867,2181.8
536.035,2152.6
536.203,2150.7
536.372,2141.2
536.54,2129.9
536.708,2122.0
536.876,2121.6
537.044,2103.3
537.213,2125.3
537.381,2138.7
537.549,2136.1
537.717,2116.0
537.885,2110.2
538.054,2122.1
538.222,2117.7
538.39,2121.5
538.558,2094.2
538.726,2098.3
538.894,2093.5
539.063,2106.0
539.231,2088.0
539.399,2093.7
539.567,2088.2
539.735,2084.7
539.903,2091.0
540.071,2084.5
540.239,2088.5
540.408,2077.6
540.576,2070.7
540.744,2076.9
540.912,2093.3
541.08,2099.2
541.248,2103.9
541.416,2093.8
541.584,2089.9
541.752,2087.9
541.92,2092.9
542.088,2091.4
542.256,2094.5
542.424,2089.7
542.592,2104.5
542.76,2092.9
542.928,2091.2
543.096,2093.7
543.264,2089.7
543.432,2090.4
543.6,2100.6
543.768,2103.8
543.936,2143.9
544.104,2156.8
544.272,2133.0
544.44,2103.5
544.608,2101.7
544.776,2106.9
544.944,2119.7
545.112,2107.8
545.28,2104.6
545.448,2105.6
545.616,2111.5
545.784,2126.5
545.951,2122.4
546.119,2147.5
546.287,2191.4
546.455,2228.3
546.623,2203.6
546.791,2158.9
546.959,2136.4
547.127,2124.7
547.294,2131.6
547.462,2115.4
547.63,2105.2
547.798,2097.5
547.966,2117.2
548.134,2119.2
548.301,2119.7
548.469,2132.2
548.637,2129.2
548.805,2116.5
548.972,2118.5
549.14,2123.5
549.308,2129.2
549.476,2125.4
549.644,2135.8
549.811,2127.9
549.979,2144.0
550.147,2145.1
550.315,2153.0
550.482,2139.0
550.65,2130.3
550.818,2121.9
550.985,2132.5
551.153,2118.7
551.321,2127.7
551.488,2136.1
551.656,2145.8
551.824,2141.3
551.991,2149.3
552.159,2139.3
552.327,2128.4
552.494,2132.5
552.662,2116.0
552.83,2123.8
552.997,2137.4
553.165,2143.1
553.333,2166.7
553.5,2142.5
553.668,2149.7
553.835,2153.8
554.003,2129.8
554.171,2144.3
554.338,2157.0
554.506,2145.3
554.673,2170.3
554.841,2150.9
555.008,2163.2
555.176,2167.3
555.343,2169.7
555.511,2166.4
555.679,2159.9
555.846,2167.7
556.014,2170.0
556.181,2169.2
556.349,2167.8
556.516,2175.9
556.684,2175.7
556.851,2167.1
557.018,2178.2
557.186,2185.7
557.353,2164.5
557.521,2192.6
557.688,2190.9
557.856,2207.4
558.023,2196.9
558.191,2210.4
558.358,2210.2
558.525,2212.6
558.693,2207.1
558.86,2185.9
559.028,2191.3
559.195,2189.3
559.362,2183.9
559.53,2196.3
559.697,2200.5
559.864,2184.3
560.032,2190.0
560.199,2177.4
560.366,2184.2
560.534,2196.7
560.701,2196.6
560.868,2204.1
561.036,2197.1
561.203,2211.0
561.37,2218.4
561.538,2201.7
561.705,2227.3
561.872,2256.2
562.039,2427.9
562.207,2739.6
562.374,2840.5
562.541,2456.8
562.708,2269.7
562.876,2248.2
563.043,2243.9
563.21,2236.0
563.377,2274.4
563.545,2265.2
563.712,2385.0
563.879,2668.0
564.046,2828.0
564.213,2549.4
564.38,2374.6
564.548,2345.6
564.715,2339.2
564.882,2309.4
565.049,2291.9
565.216,2289.2
565.383,2281.7
565.551,2295.8
565.718,2347.1
565.885,2482.3
566.052,2802.0
566.219,2901.1
566.386,2618.1
566.553,2378.2
566.72,2318.8
566.887,2262.4
567.054,2250.7
567.221,2287.0
567.388,2365.9
567.555,2346.8
567.722,2254.3
567.889,2242.7
568.057,2234.5
568.224,2220.9
568.391,2229.9
568.558,2222.8
568.725,2217.2
568.892,2239.2
569.058,2233.5
569.225,2248.5
569.392,2238.9
569.559,2228.5
569.726,2239.7
569.893,2242.3
570.06,2242.7
570.227,2254.9
570.394,2278.5
570.561,2274.7
570.728,2282.2
570.895,2301.2
571.062,2311.0
571.229,2473.5
571.395,2953.4
571.562,3314.1
571.729,2867.1
571.896,2470.5
572.063,2386.6
572.23,2334.8
572.397,2316.4
572.563,2284.7
572.73,2272.7
572.897,2263.4
573.064,2261.2
573.231,2242.9
573.397,2263.3
573.564,2258.9
573.731,2292.1
573.898,2309.9
574.064,2302.2
574.231,2271.3
574.398,2250.8
574.565,2240.3
574.731,2251.0
574.898,2268.9
575.065,2272.3
575.232,2331.0
575.398,2527.6
575.565,2703.9
575.732,2595.3
575.898,2560.0
576.065,2729.5
576.232,2977.4
576.398,2968.0
576.565,2800.5
576.732,2706.0
576.898,2742.3
577.065,2715.3
577.232,2592.6
577.398,2496.1
577.565,2402.6
577.731,2332.4
577.898,2308.9
578.065,2306.6
578.231,2281.9
578.398,2278.5
578.564,2265.4
578.731,2274.7
578.897,2279.4
579.064,2284.2
579.23,2283.0
579.397,2272.4
579.563,2291.3
579.73,2286.5
579.896,2272.6
580.063,2317.4
580.229,2274.5
580.396,2305.5
580.562,2277.7
580.729,2312.2
580.895,2305.0
581.062,2308.2
581.228,2314.5
581.395,2293.8
581.561,2312.5
581.728,2306.8
581.894,2316.7
582.06,2315.2
582.227,2322.2
582.393,2314.3
582.56,2310.7
582.726,2324.2
582.892,2320.8
583.059,2311.9
583.225,2348.5
583.391,2331.3
583.558,2344.0
583.724,2320.6
583.89,2323.7
584.057,2337.5
584.223,2328.2
584.389,2338.8
584.556,2349.1
584.722,2340.7
584.888,2346.0
585.054,2350.5
585.221,2356.4
585.387,2368.4
585.553,2357.3
585.719,2360.1
585.886,2352.9
586.052,2384.3
586.218,2374.7
586.384,2375.8
586.55,2385.3
586.717,2377.5
586.883,2410.2
587.049,2394.4
587.215,2394.1
587.381,2408.1
587.548,2416.4
587.714,2432.2
587.88,2422.5
588.046,2427.3
588.212,2433.8
588.378,2431.2
588.544,2455.8
588.71,2465.8
588.876,2433.1
589.043,2413.9
589.209,2461.7
589.375,2461.9
589.541,2454.2
589.707,2436.1
589.873,2478.6
590.039,2487.1
590.205,2484.9
590.371,2497.6
590.537,2493.7
590.703,2527.7
590.869,2524.4
591.035,2539.7
591.201,2523.7
591.367,2564.4
591.533,2527.0
591.699,2570.5
591.865,2574.4
592.031,2544.9
592.197,2578.0
592.363,2587.9
592.529,2583.3
592.694,2586.8
592.86,2607.1
593.026,2595.1
593.192,2602.4
593.358,2603.9
593.524,2627.5
593.69,2596.6
593.856,2605.1
594.021,2610.2
594.187,2623.1
594.353,2617.7
594.519,2636.4
594.685,2648.5
594.851,2641.3
595.016,2689.5
595.182,2623.2
595.348,2640.3
595.514,2686.2
595.68,2683.0
595.845,2679.6
596.011,2673.2
596.177,2690.8
596.342,2708.1
596.508,2687.2
596.674,2722.8
596.84,2694.2
597.005,2708.7
597.171,2703.5
597.337,2727.1
597.502,2733.1
597.668,2746.1
597.834,2732.5
597.999,2753.0
598.165,2734.9
598.331,2750.9
598.496,2769.4
598.662,2779.0
598.828,2735.4
598.993,2782.7
599.159,2775.7
599.324,2768.9
599.49,2773.6
599.656,2803.5
599.821,2796.6
599.987,2795.9
600.152,2783.5
600.318,2804.2
600.483,2789.7
600.649,2790.0
600.814,2822.4
600.98,2841.1
601.145,2802.5
601.311,2826.8
601.476,2843.0
601.642,2826.9
601.807,2818.9
601.973,2826.8
602.138,2842.3
602.304,2874.2
602.469,2844.4
602.635,2824.5
602.8,2825.8
602.965,2825.7
603.131,2822.7
603.296,2832.1
603.462,2844.3
603.627,2793.7
603.792,2836.7
603.958,2829.2
604.123,2853.0
604.288,2821.9
604.454,2856.0
604.619,2817.9
604.784,2842.9
604.95,2809.8
605.115,2810.3
605.28,2809.6
605.446,2799.4
605.611,2832.0
605.776,2812.9
605.941,2834.3
606.107,2802.9
606.272,2808.9
606.437,2769.8
606.602,2813.2
606.767,2798.2
606.933,2801.7
607.098,2791.4
607.263,2800.0
607.428,2784.9
607.593,2790.1
607.759,2793.0
607.924,2770.8
608.089,2793.9
608.254,2810.4
608.419,2762.0
608.584,2767.8
608.749,2775.9
608.915,2785.8
609.08,2791.5
609.245,2753.2
609.41,2767.9
609.575,2786.1
609.74,2770.7
609.905,2759.1
610.07,2756.0
610.235,2734.6
610.4,2741.3
610.565,2764.2
610.73,2774.1
610.895,2772.4
611.06,2769.5
611.225,2741.7
611.39,2767.3
611.555,2748.4
611.72,2730.3
611.885,2749.4
612.05,2745.1
612.215,2714.4
612.38,2735.9
612.545,2696.9
612.71,2686.5
612.875,2715.8
613.04,2738.9
613.204,2744.3
613.369,2710.7
613.534,2690.4
613.699,2691.6
613.864,2691.8
614.029,2714.0
614.194,2674.8
614.358,2690.0
614.523,2685.8
614.688,2712.7
614.853,2692.6
615.018,2665.3
615.182,2656.0
615.347,2686.8
615.512,2679.5
615.677,2642.4
615.841,2666.3
616.006,2677.5
616.171,2639.4
616.336,2662.2
616.5,2662.8
616.665,2665.2
616.83,2640.1
616.994,2640.3
617.159,2709.0
617.324,2695.8
617.489,2676.6
617.653,2722.7
617.818,2681.3
617.982,2664.5
618.147,2679.3
618.312,2649.8
618.476,2653.1
618.641,2667.7
618.805,2648.2
618.97,2665.2
619.135,2674.6
619.299,2655.8
619.464,2670.7
619.628,2675.1
619.793,2702.4
619.957,2678.0
620.122,2643.1
620.286,2631.2
620.451,2635.8
620.615,2685.0
620.78,2637.7
620.944,2674.6
621.109,2676.5
621.273,2663.9
621.438,2763.7
621.602,2777.8
621.767,2795.9
621.931,2810.4
622.095,2910.8
622.26,2913.3
622.424,2904.8
622.589,2846.2
622.753,2757.6
622.917,2692.2
623.082,2657.8
623.246,2644.8
623.41,2620.2
623.575,2599.5
623.739,2604.2
623.903,2566.5
624.068,2573.3
624.232,2586.5
624.396,2568.3
624.561,2574.6
624.725,2564.5
624.889,2569.5
625.053,2582.1
625.218,2578.7
625.382,2590.3
625.546,2619.9
625.71,2612.4
625.875,2635.7
626.039,2711.2
626.203,2791.3
626.367,2962.0
626.531,3333.4
626.695,4000.7
626.86,5122.1
627.024,6390.4
627.188,7076.1
627.352,6649.3
627.516,6090.0
627.68,5407.3
627.844,5224.4
628.008,5158.8
628.172,5613.8
628.337,6680.6
628.501,7499.7
628.665,6825.9
628.829,5438.6
628.993,4784.7
629.157,4611.3
629.321,4487.2
629.485,4251.7
629.649,4052.3
629.813,3857.1
629.977,3755.7
630.141,3670.7
630.305,3637.5
630.469,3625.7
630.633,3458.0
630.797,3247.1
630.96,3075.8
631.124,2819.5
631.288,2682.3
631.452,2634.5
631.616,2587.3
631.78,2527.9
631.944,2513.8
632.108,2501.9
632.272,2506.4
632.435,2484.8
632.599,2477.1
632.763,2488.1
632.927,2476.4
633.091,2452.1
633.254,2452.1
633.418,2457.5
633.582,2426.5
633.746,2425.4
633.91,2432.4
634.073,2426.5
634.237,2409.8
634.401,2399.0
634.564,2405.1
634.728,2415.1
634.892,2410.8
635.056,2417.0
635.219,2382.0
635.383,2388.0
635.547,2376.0
635.71,2378.7
635.874,2387.5
636.038,2384.4
636.201,2376.0
636.365,2396.1
636.528,2371.1
636.692,2367.7
636.856,2349.8
637.019,2369.0
637.183,2386.9
637.346,2357.6
637.51,2342.8
637.673,2345.3
637.837,2340.0
638.0,2373.3
638.164,2331.1
638.327,2353.0
638.491,2345.8
638.654,2345.2
638.818,2334.2
638.981,2338.6
639.145,2339.6
639.308,2332.7
639.472,2354.9
639.635,2332.1
639.799,2348.7
639.962,2331.2
640.125,2316.5
640.289,2342.2
640.452,2337.1
640.616,2308.2
640.779,2324.9
640.942,2320.2
641.106,2329.8
641.269,2329.2
641.432,2337.9
641.596,2341.8
641.759,2311.4
641.922,2331.9
642.085,2339.1
642.249,2320.4
642.412,2335.4
642.575,2343.0
642.738,2349.7
642.902,2327.4
643.065,2312.6
643.228,2322.6
643.391,2334.0
643.555,2322.7
643.718,2321.8
643.881,2332.1
644.044,2325.7
644.207,2334.3
644.37,2341.5
644.534,2334.8
644.697,2322.1
644.86,2310.3
645.023,2332.2
645.186,2350.1
645.349,2341.3
645.512,2309.8
645.675,2323.4
645.838,2323.1
646.001,2323.9
646.164,2327.5
646.327,2310.1
646.49,2338.8
646.653,2338.4
646.816,2316.3
646.979,2310.8
647.142,2296.3
647.305,2317.1
647.468,2328.6
647.631,2312.3
647.794,2310.9
647.957,2323.3
648.12,2303.1
648.283,2321.5
648.446,2301.1
648.609,2328.1
648.772,2323.3
648.935,2314.3
649.098,2330.1
649.26,2297.3
649.423,2320.7
649.586,2350.7
649.749,2344.2
649.912,2330.3
650.075,2348.3
650.237,2327.6
650.4,2327.5
650.563,2323.5
650.726,2330.3
650.888,2316.1
651.051,2313.8
651.214,2287.5
651.377,2284.0
651.539,2284.4
651.702,2279.4
651.865,2295.2
652.027,2288.7
652.19,2295.8
652.353,2301.0
652.515,2280.9
652.678,2282.6
652.841,2277.6
653.003,2271.7
653.166,2279.6
653.329,2283.4
653.491,2283.3
653.654,2261.8
653.816,2288.5
653.979,2279.7
654.142,2268.9
654.304,2262.7
654.467,2262.2
654.629,2249.8
654.792,2256.5
654.954,2270.0
655.117,2261.5
655.279,2255.3
655.442,2254.4
655.604,2245.0
655.767,2250.6
655.929,2235.8
656.091,2250.5
656.254,2201.4
656.416,2205.5
656.579,2238.4
656.741,2228.4
656.904,2248.8
657.066,2256.2
657.228,2239.1
657.391,2242.3
657.553,2232.0
657.715,2228.2
657.878,2240.8
658.04,2241.2
658.202,2225.3
658.365,2216.5
658.527,2230.4
658.689,2229.0
658.851,2238.4
659.014,2233.4
659.176,2198.3
659.338,2222.3
659.5,2211.1
659.663,2221.9
659.825,2195.2
659.987,2209.8
660.149,2218.7
660.311,2209.9
660.474,2195.1
660.636,2206.2
660.798,2202.8
660.96,2200.8
661.041,2211.7