File: spectra/VLFR_01-LDPE_nobio_Raman_8b051ab0.csv
cm-1,Intensity
-123.878,1851.55
-117.855,1853.0
-111.836,1851.95
-105.821,1853.45
-99.8104,1852.25
-93.8036,1854.25
-87.8007,1852.8
-81.8019,1852.7
-75.807,1851.35
-69.8161,1852.35
-63.8293,1852.65
-57.8464,1852.6
-51.8675,1852.45
-45.8926,1853.4
-39.9216,1854.35
-33.9547,1853.55
-27.9917,1854.5
-22.0326,1856.05
-16.0776,1877.25
-10.1265,2190.7
-4.17932,3138.75
1.76388,3060.35
7.70313,1964.2
13.6384,1854.2
19.5698,1853.6
25.4972,1853.75
31.4207,1852.5
37.3403,1853.45
43.256,1854.05
49.1677,1865.6
55.0755,1921.05
60.9794,2029.75
66.8794,2098.35
72.7754,2113.0
78.6676,2113.65
84.5559,2108.25
90.4402,2114.15
96.3207,2111.65
102.197,2111.0
108.07,2105.6
113.939,2112.8
119.804,2110.8
125.665,2103.15
131.522,2093.75
137.375,2095.0
143.225,2092.45
149.07,2091.05
154.912,2088.75
160.75,2083.7
166.584,2086.5
172.414,2085.05
178.241,2086.45
184.063,2088.05
189.882,2094.05
195.697,2107.15
201.508,2102.15
207.315,2115.45
213.119,2117.8
218.918,2116.5
224.714,2119.55
230.506,2097.65
236.294,2108.8
242.078,2098.65
247.859,2093.45
253.636,2091.25
259.409,2097.5
265.178,2107.65
270.943,2108.25
276.705,2106.7
282.463,2110.2
288.217,2108.65
293.967,2109.45
299.713,2102.05
305.456,2095.5
311.195,2077.95
316.93,2089.7
322.662,2094.7
328.389,2086.2
334.113,2087.85
339.834,2078.15
345.55,2085.6
351.263,2083.35
356.972,2095.85
362.677,2097.55
368.379,2092.8
374.077,2085.55
379.771,2090.0
385.461,2088.05
391.148,2094.5
396.831,2091.05
402.51,2097.6
408.186,2102.8
413.858,2094.8
419.526,2093.35
425.19,2084.75
430.851,2088.95
436.508,2080.0
442.162,2083.85
447.811,2083.55
453.458,2087.15
459.1,2091.6
464.739,2087.25
470.374,2086.0
476.005,2085.75
481.633,2102.65
487.257,2100.8
492.878,2098.35
498.494,2095.35
504.107,2090.9
509.717,2100.25
515.323,2098.9
520.925,2093.0
526.524,2105.9
532.119,2093.85
537.71,2096.15
543.298,2095.0
548.882,2099.15
554.462,2096.15
560.039,2101.7
565.613,2097.5
571.182,2101.3
576.748,2104.25
582.311,2102.8
587.87,2100.35
593.425,2098.35
598.977,2103.45
604.525,2104.7
610.069,2099.4
615.61,2096.5
621.148,2091.7
626.682,2110.0
632.212,2101.75
637.739,2098.6
643.262,2103.65
648.781,2111.6
654.297,2106.6
659.81,2110.55
665.319,2108.05
670.824,2112.4
676.326,2120.45
681.824,2107.45
687.319,2108.9
692.81,2099.85
698.298,2096.8
703.782,2100.4
709.262,2113.6
714.739,2111.15
720.213,2115.85
725.683,2114.95
731.15,2112.3
736.613,2123.6
742.072,2116.05
747.528,2107.3
752.981,2110.2
758.43,2114.6
763.875,2116.5
769.317,2120.25
774.756,2119.15
780.191,2114.1
785.623,2117.25
791.051,2119.3
796.475,2118.0
801.897,2122.75
807.314,2124.55
812.729,2122.05
818.139,2120.75
823.547,2122.05
828.951,2126.45
834.351,2119.8
839.748,2117.65
845.142,2125.0
850.532,2130.6
855.918,2130.7
861.302,2143.75
866.681,2132.2
872.058,2135.1
877.431,2136.1
882.8,2133.45
888.166,2135.15
893.529,2144.55
898.888,2132.4
904.244,2134.5
909.596,2130.9
914.945,2144.0
920.291,2143.05
925.633,2137.5
930.972,2132.85
936.308,2137.1
941.64,2129.5
946.968,2139.4
952.294,2140.7
957.615,2155.5
962.934,2144.75
968.249,2139.5
973.561,2145.75
978.869,2141.8
984.174,2144.45
989.476,2147.3
994.774,2150.0
1000.07,2147.65
1005.36,2147.3
1010.65,2160.15
1015.93,2157.95
1021.22,2163.45
1026.49,2158.85
1031.77,2166.55
1037.04,2168.7
1042.31,2182.75
1047.57,2179.95
1052.83,2200.55
1058.09,2257.3
1063.35,2293.45
1068.6,2242.8
1073.85,2219.25
1079.09,2214.4
1084.33,2224.15
1089.57,2213.65
1094.81,2211.75
1100.04,2205.9
1105.27,2196.85
1110.49,2204.45
1115.71,2218.7
1120.93,2243.7
1126.15,2287.5
1131.36,2291.1
1136.57,2227.55
1141.77,2197.35
1146.98,2207.55
1152.18,2201.3
1157.37,2198.6
1162.56,2211.5
1167.75,2206.4
1172.94,2210.65
1178.12,2193.3
1183.3,2207.8
1188.48,2209.3
1193.65,2194.9
1198.82,2194.5
1203.99,2198.0
1209.15,2195.8
1214.31,2212.7
1219.46,2210.0
1224.62,2209.6
1229.77,2226.05
1234.92,2215.35
1240.06,2216.85
1245.2,2224.05
1250.34,2220.2
1255.47,2231.9
1260.6,2222.9
1265.73,2246.2
1270.85,2232.4
1275.97,2246.05
1281.09,2255.45
1286.21,2314.0
1291.32,2396.8
1296.43,2471.1
1301.53,2390.5
1306.63,2314.25
1311.73,2311.1
1316.83,2288.65
1321.92,2280.1
1327.01,2278.4
1332.1,2260.7
1337.18,2249.4
1342.26,2249.5
1347.34,2257.85
1352.41,2259.75
1357.48,2243.75
1362.55,2247.65
1367.61,2261.0
1372.67,2253.2
1377.73,2249.7
1382.78,2232.8
1387.84,2235.95
1392.88,2235.2
1397.93,2236.4
1402.97,2244.6
1408.01,2245.6
1413.05,2280.75
1418.08,2313.45
1423.11,2330.9
1428.14,2338.25
1433.16,2395.85
1438.18,2457.75
1443.2,2441.85
1448.21,2413.3
1453.22,2395.4
1458.23,2380.15
1463.23,2362.35
1468.23,2329.7
1473.23,2303.8
1478.23,2287.75
1483.22,2262.35
1488.21,2254.35
1493.2,2245.75
1498.18,2261.35
1503.16,2247.8
1508.14,2244.3
1513.11,2241.05
1518.08,2242.9
1523.05,2251.3
1528.01,2233.1
1532.97,2254.15
1537.93,2253.85
1542.89,2252.95
1547.84,2251.7
1552.79,2261.85
1557.73,2267.35
1562.68,2263.3
1567.62,2257.4
1572.56,2257.1
1577.49,2270.9
1582.42,2265.65
1587.35,2264.85
1592.27,2265.65
1597.19,2269.15
1602.11,2253.45
1607.03,2250.5
1611.94,2257.45
1616.85,2269.15
1621.76,2253.0
1626.66,2254.2
1631.56,2258.05
1636.46,2242.7
1641.36,2244.55
1646.25,2248.95
1651.14,2246.2
1656.02,2259.6
1660.9,2256.1
1665.78,2251.0
1670.66,2241.55
1675.54,2247.4
1680.41,2251.55
1685.27,2261.3
1690.14,2252.4
1695.0,2250.8
1699.86,2235.95
1704.71,2249.2
1709.57,2246.7
1714.42,2251.5
1719.26,2243.75
1724.11,2241.0
1728.95,2252.7
1733.79,2248.8
1738.62,2246.6
1743.46,2268.9
1748.28,2250.1
1753.11,2250.2
1757.93,2257.9
1762.75,2273.1
1767.57,2269.95
1772.39,2261.95
1777.2,2257.35
1782.01,2269.3
1786.81,2273.2
1791.62,2268.0
1796.41,2274.55
1801.21,2265.55
1806.01,2263.2
1810.8,2242.4
1815.59,2268.2
1820.37,2258.2
1825.15,2262.4
1829.93,2257.6
1834.71,2266.35
1839.48,2259.3
1844.25,2279.25
1849.02,2280.7
1853.79,2275.6
1858.55,2280.4
1863.31,2275.25
1868.06,2281.3
1872.82,2283.5
1877.57,2296.05
1882.31,2279.0
1887.06,2288.3
1891.8,2288.7
1896.54,2281.7
1901.28,2294.4
1906.01,2281.25
1910.74,2293.9
1915.47,2296.6
1920.19,2285.75
1924.91,2289.75
1929.63,2302.6
1934.35,2287.95
1939.06,2306.8
1943.77,2297.4
1948.48,2297.95
1953.19,2291.15
1957.89,2292.65
1962.59,2307.95
1967.28,2299.5
1971.98,2298.2
1976.67,2302.55
1981.35,2300.3
1986.04,2302.05
1990.72,2314.9
1995.4,2303.95
2000.08,2310.65
2004.75,2313.35
2009.42,2298.8
2014.09,2319.35
2018.75,2314.2
2023.42,2319.15
2028.08,2316.8
2032.73,2317.95
2037.39,2314.95
2042.04,2319.5
2046.69,2333.45
2051.33,2314.25
2055.97,2316.65
2060.61,2322.3
2065.25,2326.35
2069.88,2307.05
2074.52,2313.4
2079.15,2327.6
2083.77,2335.35
2088.39,2335.6
2093.01,2324.7
2097.63,2342.85
2102.25,2329.85
2106.86,2342.95
2111.47,2338.65
2116.08,2336.4
2120.68,2343.0
2125.28,2332.15
2129.88,2330.2
2134.47,2332.05
2139.07,2333.2
2143.66,2341.6
2148.24,2346.6
2152.83,2331.95
2157.41,2343.55
2161.99,2336.3
2166.57,2338.55
2171.14,2321.2
2175.71,2328.6
2180.28,2353.75
2184.84,2332.15
2189.41,2328.8
2193.97,2330.05
2198.52,2339.75
2203.08,2337.55
2207.63,2331.8
2212.18,2332.7
2216.73,2319.35
2221.27,2332.7
2225.81,2328.05
2230.35,2326.6
2234.89,2317.4
2239.42,2325.75
2243.95,2311.1
2248.48,2326.1
2253.0,2315.3
2257.52,2314.5
2262.04,2319.1
2266.56,2305.5
2271.07,2309.65
2275.58,2295.75
2280.09,2312.5
2284.6,2305.4
2289.1,2297.45
2293.6,2301.5
2298.1,2311.3
2302.6,2294.65
2307.09,2291.8
2311.58,2288.45
2316.07,2298.05
2320.55,2296.0
2325.03,2286.3
2329.51,2297.25
2333.99,2295.4
2338.46,2282.6
2342.93,2276.75
2347.4,2286.15
2351.87,2290.55
2356.33,2296.9
2360.79,2285.0
2365.25,2298.6
2369.71,2270.6
2374.16,2276.65
2378.61,2280.2
2383.06,2284.1
2387.5,2274.25
2391.94,2279.75
2396.38,2270.0
2400.82,2278.15
2405.26,2271.2
2409.69,2269.95
2414.12,2275.75
2418.54,2273.1
2422.97,2284.9
2427.39,2280.05
2431.81,2274.8
2436.22,2282.95
2440.64,2261.2
2445.05,2276.5
2449.46,2270.85
2453.86,2265.25
2458.27,2274.4
2462.67,2262.4
2467.06,2266.65
2471.46,2263.35
2475.85,2273.55
2480.24,2259.95
2484.63,2266.4
2489.02,2263.9
2493.4,2257.4
2497.78,2251.95
2502.16,2264.6
2506.53,2271.5
2510.9,2261.75
2515.27,2275.1
2519.64,2260.65
2524.0,2261.65
2528.37,2263.15
2532.73,2261.15
2537.08,2256.4
2541.44,2259.0
2545.79,2261.15
2550.14,2262.4
2554.48,2248.9
2558.83,2257.35
2563.17,2263.45
2567.51,2263.3
2571.85,2250.35
2576.18,2252.45
2580.51,2265.9
2584.84,2266.15
2589.17,2268.5
2593.49,2273.15
2597.81,2271.95
2602.13,2276.7
2606.45,2275.8
2610.76,2272.55
2615.07,2274.6
2619.38,2282.8
2623.69,2267.1
2627.99,2270.15
2632.29,2269.6
2636.59,2265.2
2640.89,2273.35
2645.18,2270.85
2649.47,2269.35
2653.76,2287.1
2658.05,2278.6
2662.33,2278.25
2666.61,2275.65
2670.89,2282.35
2675.17,2288.1
2679.44,2283.85
2683.71,2275.4
2687.98,2285.5
2692.25,2280.1
2696.51,2300.35
2700.77,2303.5
2705.03,2313.95
2709.29,2317.6
2713.54,2341.5
2717.79,2348.2
2722.04,2349.15
2726.29,2342.8
2730.53,2335.55
2734.77,2306.9
2739.01,2294.8
2743.25,2281.55
2747.48,2279.1
2751.71,2276.35
2755.94,2281.35
2760.17,2265.6
2764.39,2267.2
2768.61,2268.9
2772.83,2263.0
2777.05,2261.7
2781.27,2264.55
2785.48,2276.95
2789.69,2270.25
2793.89,2270.7
2798.1,2271.8
2802.3,2271.3
2806.5,2280.95
2810.7,2272.15
2814.89,2298.45
2819.09,2316.35
2823.28,2342.65
2827.46,2367.15
2831.65,2462.7
2835.83,2654.2
2840.01,2987.1
2844.19,3322.35
2848.37,3583.6
2852.54,3567.05
2856.71,3393.2
2860.88,3194.3
2865.05,3109.7
2869.21,3059.8
2873.37,3185.45
2877.53,3430.05
2881.69,3578.4
2885.84,3451.3
2889.99,3241.5
2894.14,3160.4
2898.29,3084.7
2902.43,3043.65
2906.58,2966.35
2910.72,2893.6
2914.85,2834.25
2918.99,2850.05
2923.12,2820.2
2927.25,2788.2
2931.38,2779.5
2935.5,2700.55
2939.63,2636.1
2943.75,2519.25
2947.87,2444.2
2951.98,2386.3
2956.1,2343.0
2960.21,2340.35
2964.32,2307.0
2968.42,2297.65
2972.53,2282.4
2976.63,2273.6
2980.73,2282.1
2984.83,2271.95
2988.92,2250.2
2993.01,2261.4
2997.1,2250.45
3001.19,2253.75
3005.28,2246.5
3009.36,2225.05
3013.44,2235.75
3017.52,2235.35
3021.6,2234.9
3025.67,2226.8
3029.74,2223.75
3033.81,2227.7
3037.88,2225.5
3041.94,2223.85
3046.01,2227.5
3050.07,2235.05
3054.12,2213.25
3058.18,2226.4
3062.23,2218.9
3066.28,2205.85
3070.33,2223.3
3074.38,2226.65
3078.42,2228.85
3082.46,2218.65
3086.5,2205.6
3090.54,2212.15
3094.57,2214.05
3098.6,2212.1
3102.63,2210.65
3106.66,2216.3
3110.69,2203.6
3114.71,2207.9
3118.73,2201.8
3122.75,2215.55
3126.77,2216.8
3130.78,2208.3
3134.79,2197.1
3138.8,2202.05
3142.81,2205.65
3146.81,2200.0
3150.82,2197.05
3154.82,2207.55
3158.81,2218.95
3162.81,2202.8
3166.8,2212.2
3170.79,2207.65
3174.78,2191.55
3178.77,2200.2
3182.75,2204.7
3186.74,2197.5
3190.72,2199.35
3194.69,2192.7
3198.67,2197.45
3202.64,2192.8
3206.61,2204.05
3210.58,2205.2
3214.55,2192.0
3218.51,2186.1
3222.47,2196.9
3226.43,2199.15
3230.39,2203.3
3234.35,2194.7
3238.3,2196.4
3242.25,2197.25
3246.2,2189.1
3250.15,2194.05
3254.09,2200.35
3258.03,2193.45
3261.97,2191.65
3265.91,2196.2
3269.84,2187.2
3273.78,2187.0
3277.71,2184.05
3281.64,2183.0
3285.56,2185.1
3289.49,2199.95
3293.41,2187.05
3297.33,2179.45
3301.25,2180.6
3305.16,2182.7
3309.07,2187.55
3312.99,2196.15
3316.89,2184.05
3320.8,2178.7
3324.7,2186.15
3328.61,2186.6
3332.51,2178.0
3336.4,2170.5
3340.3,2177.75
3344.19,2184.45
3348.08,2190.45
3351.97,2161.15
3355.86,2181.7
3359.74,2177.75
3363.63,2185.15
3367.51,2162.95
3371.39,2179.25
3375.26,2170.5
3379.13,2182.3
3383.01,2170.25
3386.88,2165.0
3390.74,2172.05
3394.61,2158.45
3398.47,2155.65
3402.33,2175.15
3406.19,2161.9
3410.05,2155.25
3413.9,2175.2
3417.75,2169.4
3421.6,2174.4
3425.45,2153.6
3429.3,2155.45
3433.14,2174.0
3436.98,2166.7
3440.82,2167.95
3444.66,2152.2
3448.49,2142.25
3452.32,2152.1
3456.15,2165.2
3459.98,2161.65
3463.81,2148.3
3467.63,2153.8
3471.46,2152.3
3475.28,2152.85
3479.09,2156.25
3482.91,2151.2
3486.72,2147.9
3490.53,2149.3
3494.34,2130.75
3498.15,2150.85
3501.96,2154.9
3505.76,2134.55
3509.56,2143.75
3513.36,2144.7
3517.15,2136.65
3520.95,2135.4
3524.74,2136.4
3528.53,2139.75
3532.32,2149.7
3536.11,2129.35
3539.89,2124.8
3543.67,2131.55
3547.45,2131.8
3551.23,2120.7
3555.0,2115.3
3558.78,2121.2
3562.55,2127.95
3566.32,2121.2
3570.09,2117.05
3573.85,2117.85
3577.61,2110.85
3581.37,2122.75
3585.13,2104.35
3588.89,2112.7
3592.64,2117.3
3596.4,2106.65
3600.15,2114.0
3603.9,2107.45
3607.64,2108.5
3611.39,2099.65
3615.13,2112.65
3618.87,2112.3
3622.61,2094.7
3626.34,2101.8
3630.08,2109.7
3633.81,2105.0
3637.54,2089.75
3641.27,2094.35
3644.99,2103.6
3648.72,2098.6
3652.44,2100.65
3656.16,2097.25
3659.87,2097.45
3663.59,2100.9
3665.45,2094.0