File: spectra/VLFR_02-HDPE_bio_Raman_67585c36.csv
nm,Intensity
528.626,1865.0
528.795,1864.4
528.963,1867.7
529.132,1865.9
529.3,1865.9
529.469,1865.3
529.637,1866.2
529.806,1867.9
529.974,1867.3
530.143,1867.4
530.311,1868.1
530.48,1866.5
530.648,1866.8
530.816,1867.3
530.985,1866.5
531.153,1866.1
531.322,1870.7
531.49,1872.0
531.658,1894.3
531.827,2240.7
531.995,3466.8
532.164,3505.8
532.332,2118.2
532.5,1870.4
532.669,1868.3
532.837,1869.0
533.006,1868.9
533.174,1867.9
533.342,1867.2
533.511,1877.8
533.679,1912.4
533.847,1990.2
534.016,2053.5
534.184,2070.5
534.352,2079.3
534.521,2092.1
534.689,2095.5
534.857,2107.0
535.025,2115.4
535.194,2124.7
535.362,2127.1
535.53,2142.8
535.699,2135.1
535.867,2143.0
536.035,2134.6
536.203,2112.0
536.372,2100.8
536.54,2096.0
536.708,2090.5
536.876,2100.0
537.044,2100.9
537.213,2131.0
537.381,2127.7
537.549,2122.2
537.717,2104.4
537.885,2101.8
538.054,2113.9
538.222,2104.8
538.39,2085.1
538.558,2085.7
538.726,2095.6
538.894,2095.9
539.063,2092.5
539.231,2089.8
539.399,2090.5
539.567,2086.2
539.735,2080.1
539.903,2094.4
540.071,2098.2
540.239,2082.4
540.408,2085.0
540.576,2092.6
540.744,2103.3
540.912,2106.2
541.08,2107.3
541.248,2112.0
541.416,2105.4
541.584,2103.0
541.752,2106.6
541.92,2116.0
542.088,2108.5
542.256,2108.0
542.424,2101.3
542.592,2115.2
542.76,2114.7
542.928,2113.6
543.096,2114.9
543.264,2120.3
543.432,2112.4
543.6,2121.1
543.768,2146.6
543.936,2165.6
544.104,2204.7
544.272,2185.2
544.44,2137.8
544.608,2124.0
544.776,2131.9
544.944,2144.3
545.112,2135.6
545.28,2145.1
545.448,2136.9
545.616,2137.9
545.784,2161.9
545.951,2195.8
546.119,2256.2
546.287,2407.2
546.455,2502.8
546.623,2431.0
546.791,2286.7
546.959,2204.0
547.127,2170.5
547.294,2165.0
547.462,2153.3
547.63,2147.0
547.798,2159.9
547.966,2144.9
548.134,2149.7
548.301,2161.3
548.469,2161.5
548.637,2160.9
548.805,2164.8
548.972,2175.6
549.14,2177.3
549.308,2184.1
549.476,2182.1
549.644,2178.6
549.811,2195.2
549.979,2226.1
550.147,2250.4
550.315,2260.2
550.482,2239.8
550.65,2183.2
550.818,2183.3
550.985,2161.7
551.153,2160.0
551.321,2165.5
551.488,2181.1
551.656,2200.9
551.824,2200.0
551.991,2193.8
552.159,2175.3
552.327,2176.5
552.494,2163.0
552.662,2165.1
552.83,2164.8
552.997,2173.1
553.165,2175.2
553.333,2167.4
553.5,2172.7
553.668,2167.5
553.835,2178.6
554.003,2194.6
554.171,2170.7
554.338,2181.8
554.506,2192.3
554.673,2186.8
554.841,2185.4
555.008,2184.3
555.176,2190.1
555.343,2184.3
555.511,2189.1
555.679,2195.4
555.846,2179.8
556.014,2190.9
556.181,2192.5
556.349,2190.3
556.516,2202.6
556.684,2206.2
556.851,2203.5
557.018,2207.0
557.186,2198.3
557.353,2191.4
557.521,2213.1
557.688,2214.8
557.856,2221.5
558.023,2206.8
558.191,2207.4
558.358,2196.0
558.525,2217.9
558.693,2202.3
558.86,2217.2
559.028,2195.0
559.195,2206.2
559.362,2228.2
559.53,2224.9
559.697,2225.1
559.864,2223.7
560.032,2214.2
560.199,2229.5
560.366,2221.5
560.534,2238.5
560.701,2240.9
560.868,2240.6
561.036,2266.3
561.203,2249.5
561.37,2261.6
561.538,2268.1
561.705,2321.7
561.872,2422.1
562.039,2855.1
562.207,3806.3
562.374,4095.6
562.541,2996.0
562.708,2405.4
562.876,2306.9
563.043,2286.9
563.21,2261.7
563.377,2262.4
563.545,2271.6
563.712,2273.8
563.879,2317.8
564.046,2330.4
564.213,2310.5
564.38,2302.4
564.548,2285.3
564.715,2288.8
564.882,2299.2
565.049,2276.0
565.216,2290.6
565.383,2286.6
565.551,2304.0
565.718,2317.0
565.885,2350.2
566.052,2408.4
566.219,2471.9
566.386,2494.2
566.553,2449.6
566.72,2390.1
566.887,2315.7
567.054,2293.5
567.221,2299.2
567.388,2278.2
567.555,2301.0
567.722,2290.6
567.889,2299.5
568.057,2286.9
568.224,2269.3
568.391,2281.3
568.558,2274.2
568.725,2283.6
568.892,2284.3
569.058,2274.1
569.225,2280.1
569.392,2295.0
569.559,2292.2
569.726,2293.7
569.893,2295.7
570.06,2294.1
570.227,2293.1
570.394,2297.5
570.561,2288.2
570.728,2300.7
570.895,2292.9
571.062,2305.3
571.229,2348.0
571.395,2420.7
571.562,2472.3
571.729,2412.3
571.896,2348.5
572.063,2339.8
572.23,2320.9
572.397,2328.0
572.563,2320.8
572.73,2310.2
572.897,2326.8
573.064,2312.4
573.231,2310.9
573.397,2329.0
573.564,2330.8
573.731,2315.5
573.898,2306.2
574.064,2312.7
574.231,2310.4
574.398,2308.6
574.565,2298.4
574.731,2314.4
574.898,2315.9
575.065,2318.7
575.232,2318.2
575.398,2324.9
575.565,2347.9
575.732,2380.2
575.898,2375.3
576.065,2402.3
576.232,2428.5
576.398,2425.3
576.565,2437.5
576.732,2418.8
576.898,2416.2
577.065,2411.2
577.232,2391.7
577.398,2359.5
577.565,2331.8
577.731,2331.2
577.898,2333.6
578.065,2305.4
578.231,2321.9
578.398,2320.5
578.564,2326.4
578.731,2305.5
578.897,2323.6
579.064,2309.0
579.23,2344.5
579.397,2337.6
579.563,2359.6
579.73,2386.0
579.896,2388.4
580.063,2384.9
580.229,2369.3
580.396,2378.1
580.562,2355.8
580.729,2355.2
580.895,2360.9
581.062,2349.9
581.228,2357.8
581.395,2354.2
581.561,2364.3
581.728,2361.0
581.894,2358.3
582.06,2363.8
582.227,2333.3
582.393,2336.4
582.56,2354.7
582.726,2351.9
582.892,2354.7
583.059,2344.8
583.225,2362.3
583.391,2347.8
583.558,2338.7
583.724,2342.6
583.89,2358.8
584.057,2349.7
584.223,2350.6
584.389,2370.6
584.556,2361.5
584.722,2344.4
584.888,2356.4
585.054,2367.9
585.221,2352.6
585.387,2360.4
585.553,2360.3
585.719,2355.1
585.886,2367.7
586.052,2363.7
586.218,2360.5
586.384,2376.1
586.55,2368.0
586.717,2371.4
586.883,2367.7
587.049,2387.5
587.215,2383.1
587.381,2380.1
587.548,2391.9
587.714,2392.9
587.88,2394.1
588.046,2392.6
588.212,2388.6
588.378,2395.1
588.544,2399.6
588.71,2401.3
588.876,2384.6
589.043,2372.4
589.209,2380.5
589.375,2402.5
589.541,2392.6
589.707,2392.2
589.873,2401.5
590.039,2391.2
590.205,2402.3
590.371,2414.2
590.537,2418.6
590.703,2435.3
590.869,2442.5
591.035,2407.3
591.201,2434.7
591.367,2438.6
591.533,2435.9
591.699,2430.9
591.865,2439.4
592.031,2446.4
592.197,2451.0
592.363,2424.8
592.529,2445.5
592.694,2463.0
592.86,2459.9
593.026,2453.6
593.192,2450.9
593.358,2442.0
593.524,2446.2
593.69,2465.6
593.856,2444.5
594.021,2456.9
594.187,2447.4
594.353,2449.9
594.519,2467.5
594.685,2466.2
594.851,2443.5
595.016,2463.6
595.182,2466.5
595.348,2482.4
595.514,2474.6
595.68,2469.7
595.845,2476.5
596.011,2455.3
596.177,2476.7
596.342,2483.5
596.508,2484.9
596.674,2458.7
596.84,2460.6
597.005,2488.9
597.171,2471.2
597.337,2497.3
597.502,2488.8
597.668,2474.7
597.834,2484.3
597.999,2504.3
598.165,2512.8
598.331,2489.1
598.496,2479.8
598.662,2464.5
598.828,2487.8
598.993,2495.8
599.159,2477.4
599.324,2495.9
599.49,2514.1
599.656,2488.3
599.821,2514.0
599.987,2505.7
600.152,2520.1
600.318,2495.3
600.483,2495.3
600.649,2493.7
600.814,2496.5
600.98,2504.2
601.145,2504.0
601.311,2484.5
601.476,2511.3
601.642,2498.8
601.807,2505.4
601.973,2502.1
602.138,2491.4
602.304,2495.0
602.469,2506.8
602.635,2497.9
602.8,2490.7
602.965,2509.5
603.131,2509.3
603.296,2503.6
603.462,2491.6
603.627,2529.5
603.792,2514.5
603.958,2502.0
604.123,2490.0
604.288,2485.0
604.454,2498.4
604.619,2503.5
604.784,2504.2
604.95,2498.0
605.115,2493.8
605.28,2484.5
605.446,2486.2
605.611,2468.4
605.776,2487.2
605.941,2503.1
606.107,2480.3
606.272,2498.4
606.437,2487.0
606.602,2488.5
606.767,2491.8
606.933,2512.2
607.098,2479.7
607.263,2501.7
607.428,2522.0
607.593,2478.5
607.759,2474.1
607.924,2495.0
608.089,2465.4
608.254,2475.4
608.419,2489.4
608.584,2476.7
608.749,2497.8
608.915,2494.5
609.08,2478.2
609.245,2478.7
609.41,2477.0
609.575,2475.5
609.74,2483.2
609.905,2493.7
610.07,2472.5
610.235,2487.0
610.4,2487.7
610.565,2473.2
610.73,2494.3
610.895,2513.5
611.06,2477.6
611.225,2470.9
611.39,2475.5
611.555,2500.9
611.72,2483.8
611.885,2469.6
612.05,2484.5
612.215,2475.7
612.38,2475.2
612.545,2490.5
612.71,2499.7
612.875,2470.5
613.04,2475.0
613.204,2488.6
613.369,2468.4
613.534,2461.4
613.699,2480.8
613.864,2467.3
614.029,2473.2
614.194,2483.7
614.358,2477.2
614.523,2477.3
614.688,2485.5
614.853,2481.9
615.018,2481.9
615.182,2499.7
615.347,2478.1
615.512,2480.8
615.677,2477.2
615.841,2468.2
616.006,2473.6
616.171,2462.6
616.336,2478.5
616.5,2478.9
616.665,2462.0
616.83,2455.7
616.994,2481.8
617.159,2464.9
617.324,2496.0
617.489,2489.3
617.653,2479.9
617.818,2472.1
617.982,2470.2
618.147,2495.1
618.312,2474.7
618.476,2471.6
618.641,2474.9
618.805,2469.2
618.97,2489.4
619.135,2481.7
619.299,2479.4
619.464,2490.3
619.628,2499.1
619.793,2503.5
619.957,2495.3
620.122,2476.1
620.286,2484.5
620.451,2488.8
620.615,2485.4
620.78,2486.7
620.944,2469.4
621.109,2450.6
621.273,2495.1
621.438,2496.0
621.602,2513.7
621.767,2496.1
621.931,2498.3
622.095,2538.5
622.26,2520.3
622.424,2524.3
622.589,2505.7
622.753,2485.9
622.917,2471.3
623.082,2467.2
623.246,2479.4
623.41,2477.8
623.575,2469.0
623.739,2466.0
623.903,2461.3
624.068,2488.3
624.232,2449.3
624.396,2468.6
624.561,2449.7
624.725,2457.9
624.889,2463.9
625.053,2477.5
625.218,2450.5
625.382,2454.0
625.546,2465.2
625.71,2466.9
625.875,2462.8
626.039,2480.1
626.203,2497.6
626.367,2516.1
626.531,2557.9
626.695,2713.5
626.86,2852.5
627.024,3056.2
627.188,3140.3
627.352,3175.4
627.516,3016.2
627.68,2937.0
627.844,2836.1
628.008,2872.2
628.172,2903.3
628.337,3060.1
628.501,3249.9
628.665,3108.9
628.829,2937.6
628.993,2877.2
629.157,2840.0
629.321,2816.3
629.485,2793.8
629.649,2755.9
629.813,2715.2
629.977,2666.0
630.141,2665.7
630.305,2665.6
630.469,2660.9
630.633,2653.1
630.797,2603.6
630.96,2559.0
631.124,2503.6
631.288,2490.6
631.452,2485.0
631.616,2444.3
631.78,2447.7
631.944,2459.1
632.108,2449.8
632.272,2464.6
632.435,2461.6
632.599,2446.1
632.763,2424.6
632.927,2439.9
633.091,2447.9
633.254,2458.1
633.418,2440.1
633.582,2440.2
633.746,2428.9
633.91,2431.8
634.073,2434.5
634.237,2416.8
634.401,2429.3
634.564,2418.5
634.728,2432.2
634.892,2446.1
635.056,2433.8
635.219,2418.8
635.383,2401.2
635.547,2429.7
635.71,2444.6
635.874,2410.0
636.038,2417.4
636.201,2409.7
636.365,2420.5
636.528,2428.0
636.692,2404.8
636.856,2420.5
637.019,2438.5
637.183,2412.5
637.346,2420.6
637.51,2431.2
637.673,2427.7
637.837,2410.7
638.0,2421.5
638.164,2408.6
638.327,2425.8
638.491,2423.5
638.654,2432.1
638.818,2422.3
638.981,2419.6
639.145,2408.9
639.308,2404.4
639.472,2422.5
639.635,2417.9
639.799,2387.8
639.962,2401.7
640.125,2419.1
640.289,2421.8
640.452,2415.4
640.616,2411.6
640.779,2425.2
640.942,2393.9
641.106,2417.6
641.269,2406.5
641.432,2419.5
641.596,2412.4
641.759,2394.7
641.922,2398.4
642.085,2417.9
642.249,2401.8
642.412,2420.7
642.575,2399.4
642.738,2410.2
642.902,2414.1
643.065,2428.9
643.228,2423.0
643.391,2403.3
643.555,2421.5
643.718,2438.9
643.881,2412.1
644.044,2430.1
644.207,2420.7
644.37,2439.0
644.534,2439.0
644.697,2431.8
644.86,2403.5
645.023,2418.1
645.186,2400.6
645.349,2400.1
645.512,2421.0
645.675,2420.6
645.838,2418.5
646.001,2418.4
646.164,2424.5
646.327,2421.0
646.49,2419.3
646.653,2410.9
646.816,2400.4
646.979,2411.7
647.142,2427.5
647.305,2411.2
647.468,2436.0
647.631,2428.2
647.794,2405.7
647.957,2417.2
648.12,2427.1
648.283,2423.2
648.446,2405.3
648.609,2430.9
648.772,2441.8
648.935,2439.4
649.098,2428.1
649.26,2457.0
649.423,2471.1
649.586,2470.6
649.749,2493.0
649.912,2475.3
650.075,2470.1
650.237,2475.4
650.4,2451.1
650.563,2471.0
650.726,2453.9
650.888,2415.7
651.051,2433.4
651.214,2411.5
651.377,2408.2
651.539,2419.8
651.702,2420.6
651.865,2407.0
652.027,2399.8
652.19,2424.5
652.353,2402.2
652.515,2406.1
652.678,2385.0
652.841,2399.3
653.003,2418.7
653.166,2402.8
653.329,2392.9
653.491,2381.1
653.654,2426.2
653.816,2422.4
653.979,2415.3
654.142,2407.0
654.304,2399.7
654.467,2389.3
654.629,2373.3
654.792,2387.7
654.954,2369.7
655.117,2359.9
655.279,2389.9
655.442,2373.5
655.604,2358.0
655.767,2344.5
655.929,2351.8
656.091,2336.8
656.254,2341.9
656.416,2351.5
656.579,2334.4
656.741,2354.0
656.904,2346.2
657.066,2351.0
657.228,2359.4
657.391,2344.7
657.553,2329.6
657.715,2345.1
657.878,2300.7
658.04,2333.2
658.202,2331.4
658.365,2336.4
658.527,2319.9
658.689,2324.1
658.851,2323.2
659.014,2316.6
659.176,2327.9
659.338,2280.9
659.5,2295.8
659.663,2324.7
659.825,2293.1
659.987,2316.4
660.149,2300.4
660.311,2323.0
660.474,2310.1
660.636,2314.6
660.798,2299.9
660.96,2323.3
661.041,2331.0