File: spectra/VLFR_09-PET_bio_Raman_066249d6.csv
nm,Intensity
528.635,1850.6
528.803,1847.5
528.972,1849.9
529.14,1852.0
529.308,1851.1
529.477,1851.8
529.645,1852.4
529.814,1853.6
529.982,1853.0
530.151,1850.1
530.319,1849.6
530.487,1852.5
530.656,1851.1
530.824,1853.7
530.993,1853.2
531.161,1852.6
531.329,1857.7
531.498,1861.6
531.666,1898.8
531.835,2494.3
532.003,5258.3
532.171,4408.9
532.34,2056.3
532.508,1860.1
532.676,1861.0
532.845,1860.1
533.013,1861.5
533.181,1872.2
533.35,1910.5
533.518,2217.3
533.686,4140.9
533.854,7819.3
534.023,9870.0
534.191,10301.8
534.359,9944.5
534.528,9331.3
534.696,9091.4
534.864,8802.7
535.032,8450.4
535.201,7911.5
535.369,7643.5
535.537,7574.6
535.705,7193.5
535.874,6792.7
536.042,6629.4
536.21,6490.2
536.378,6329.3
536.546,6318.9
536.715,6283.9
536.883,6217.4
537.051,6204.0
537.219,6137.8
537.387,6121.0
537.556,6041.1
537.724,6081.5
537.892,6099.1
538.06,6210.3
538.228,6084.4
538.396,6153.9
538.565,6153.7
538.733,6170.9
538.901,6241.7
539.069,6236.9
539.237,6323.6
539.405,6496.3
539.573,6661.9
539.741,6642.8
539.909,6623.5
540.077,6738.8
540.246,6573.7
540.414,6481.8
540.582,6559.7
540.75,6576.4
540.918,6599.5
541.086,6537.5
541.254,6474.2
541.422,6533.5
541.59,6432.5
541.758,6488.2
541.926,6485.6
542.094,6671.3
542.262,6670.1
542.43,6733.7
542.598,6627.8
542.766,6780.5
542.934,6848.9
543.102,6804.7
543.27,6847.9
543.438,6828.4
543.606,6908.3
543.774,6914.1
543.942,6958.7
544.11,6896.2
544.278,6961.5
544.445,6979.1
544.613,7189.5
544.781,7004.5
544.949,7114.6
545.117,7048.3
545.285,7071.3
545.453,7213.2
545.621,7308.0
545.789,7041.5
545.957,7304.9
546.124,7312.7
546.292,7308.1
546.46,7295.5
546.628,7272.2
546.796,7391.6
546.964,7355.3
547.131,7499.0
547.299,7273.3
547.467,7437.1
547.635,7531.5
547.803,7361.5
547.97,7749.0
548.138,7550.0
548.306,7612.9
548.474,7792.8
548.642,7795.7
548.809,7880.9
548.977,7732.8
549.145,7716.0
549.313,7681.1
549.48,7790.3
549.648,7823.8
549.816,7778.2
549.983,7879.6
550.151,7910.3
550.319,8172.7
550.487,9034.1
550.654,9857.2
550.822,8912.6
550.99,8312.4
551.157,8077.1
551.325,8161.5
551.493,8262.1
551.66,8251.4
551.828,8280.8
551.996,8275.3
552.163,8212.6
552.331,8248.3
552.499,8473.9
552.666,8630.6
552.834,8913.2
553.001,8848.2
553.169,8477.2
553.337,8459.5
553.504,8440.2
553.672,8463.0
553.839,8564.2
554.007,8531.0
554.174,8608.0
554.342,8704.0
554.509,8787.1
554.677,8756.0
554.845,8837.3
555.012,8761.0
555.18,8974.8
555.347,9056.6
555.515,9296.4
555.682,9560.4
555.85,9453.2
556.017,9419.9
556.185,9455.5
556.352,9432.1
556.52,9569.4
556.687,9599.9
556.854,9743.1
557.022,9978.7
557.189,10589.5
557.357,11155.3
557.524,12685.3
557.692,12625.6
557.859,11066.4
558.026,10317.5
558.194,10157.8
558.361,10046.3
558.529,9962.2
558.696,10060.1
558.863,9908.2
559.031,9724.8
559.198,9745.3
559.365,9743.1
559.533,9493.4
559.7,9742.1
559.867,9779.3
560.035,9779.1
560.202,9690.3
560.369,9778.9
560.537,9766.7
560.704,10106.2
560.871,10002.6
561.039,10109.4
561.206,10222.9
561.373,10314.7
561.54,10296.3
561.708,10462.2
561.875,10834.1
562.042,11099.0
562.209,10901.0
562.377,10806.6
562.544,10497.9
562.711,10354.0
562.878,10555.0
563.046,10646.2
563.213,10539.7
563.38,10559.3
563.547,10438.8
563.714,10532.1
563.881,10538.6
564.049,10977.7
564.216,10854.6
564.383,10812.5
564.55,11111.3
564.717,11767.7
564.884,12207.5
565.052,12469.6
565.219,12666.4
565.386,12402.0
565.553,12389.7
565.72,12481.6
565.887,12497.2
566.054,12120.5
566.221,11802.5
566.388,11337.0
566.555,11237.6
566.722,11193.5
566.889,11132.7
567.056,11081.0
567.224,11001.4
567.391,11505.3
567.558,11766.9
567.725,12142.1
567.892,11906.2
568.059,11924.0
568.226,11576.0
568.393,11417.0
568.56,11535.0
568.727,11388.4
568.893,11350.0
569.06,11422.7
569.227,11534.6
569.394,11807.4
569.561,11558.3
569.728,11844.0
569.895,11920.8
570.062,11903.8
570.229,12231.2
570.396,12517.0
570.563,12871.1
570.73,13670.3
570.897,14750.6
571.063,15521.3
571.23,16304.6
571.397,16439.6
571.564,15991.1
571.731,14638.9
571.898,13845.2
572.064,13713.1
572.231,13238.1
572.398,12793.2
572.565,12419.1
572.732,12293.4
572.899,12385.8
573.065,12159.7
573.232,12391.2
573.399,12305.0
573.566,12380.5
573.732,12143.7
573.899,12196.3
574.066,12460.3
574.233,12499.0
574.399,12102.5
574.566,12415.7
574.733,12365.5
574.9,12533.5
575.066,12654.7
575.233,13067.3
575.4,13419.8
575.566,13254.3
575.733,12944.9
575.9,12733.2
576.066,13112.7
576.233,13202.1
576.4,13004.1
576.566,13231.4
576.733,13173.2
576.899,13164.8
577.066,13170.3
577.233,13059.4
577.399,12968.4
577.566,12664.2
577.732,12942.5
577.899,12801.7
578.066,12836.9
578.232,12636.4
578.399,12714.3
578.565,12932.6
578.732,12727.7
578.898,12570.0
579.065,13005.8
579.231,13066.0
579.398,12897.1
579.564,13002.4
579.731,12994.0
579.897,12903.3
580.064,13223.1
580.23,13073.9
580.397,13363.5
580.563,13297.9
580.73,13436.3
580.896,13692.0
581.063,13659.4
581.229,13790.1
581.396,14263.9
581.562,15159.5
581.728,17371.9
581.895,22989.0
582.061,29141.7
582.228,28582.0
582.394,20883.4
582.56,15585.7
582.727,14272.1
582.893,14247.9
583.059,13696.3
583.226,13518.3
583.392,13426.7
583.558,13539.8
583.725,13602.0
583.891,13681.7
584.057,13799.7
584.224,13724.1
584.39,13667.2
584.556,13756.2
584.722,13654.3
584.889,13688.7
585.055,14061.0
585.221,14237.2
585.387,15327.3
585.554,17074.9
585.72,19484.4
585.886,21926.5
586.052,22807.0
586.219,20786.3
586.385,18436.6
586.551,17332.3
586.717,15444.7
586.883,14669.7
587.049,14272.1
587.216,13972.8
587.382,14225.3
587.548,13811.8
587.714,14000.1
587.88,14132.5
588.046,14029.0
588.212,13746.7
588.379,14098.6
588.545,14024.7
588.711,13990.4
588.877,13714.4
589.043,14252.6
589.209,13840.2
589.375,13901.4
589.541,13991.1
589.707,13453.0
589.873,13957.1
590.039,13611.6
590.205,13729.2
590.371,13979.8
590.537,14103.5
590.703,14009.5
590.869,13769.6
591.035,13645.6
591.201,13994.0
591.367,14185.2
591.533,14269.3
591.699,14108.9
591.865,14205.4
592.031,14000.8
592.197,13991.9
592.363,14050.8
592.529,14365.8
592.695,13997.3
592.86,13745.2
593.026,14185.8
593.192,14207.4
593.358,14074.4
593.524,14226.1
593.69,13989.7
593.856,14300.7
594.022,14213.5
594.187,14052.6
594.353,14207.5
594.519,14305.9
594.685,14230.8
594.851,14143.9
595.016,14345.9
595.182,14270.4
595.348,14460.5
595.514,14420.8
595.679,14615.9
595.845,14282.7
596.011,14355.9
596.177,14467.3
596.342,14600.7
596.508,14401.3
596.674,14374.5
596.84,14378.4
597.005,14949.5
597.171,14370.4
597.337,14765.0
597.502,14476.3
597.668,14567.1
597.834,14750.0
597.999,14638.2
598.165,14452.5
598.331,14531.0
598.496,14585.8
598.662,14728.7
598.827,14766.0
598.993,14679.3
599.159,14741.5
599.324,14550.2
599.49,14879.5
599.655,14933.7
599.821,14574.8
599.987,14627.6
600.152,15052.8
600.318,15006.9
600.483,14814.9
600.649,14686.3
600.814,14876.6
600.98,15072.5
601.145,14957.4
601.311,15036.0
601.476,14681.3
601.642,14868.6
601.807,15189.7
601.973,14940.5
602.138,14917.3
602.303,15029.2
602.469,15477.2
602.634,14898.9
602.8,15099.1
602.965,15285.8
603.13,15374.7
603.296,15074.5
603.461,15286.7
603.627,15115.3
603.792,15252.0
603.957,15007.1
604.123,15364.0
604.288,15521.7
604.453,15390.1
604.619,15307.8
604.784,15354.9
604.949,15398.0
605.115,15381.4
605.28,15049.9
605.445,15463.3
605.61,15424.7
605.776,15830.4
605.941,15565.2
606.106,15407.7
606.272,15454.9
606.437,15529.6
606.602,15749.8
606.767,15904.8
606.932,15711.4
607.098,15756.7
607.263,15767.3
607.428,15814.0
607.593,15521.4
607.758,15904.2
607.923,16061.2
608.089,15914.6
608.254,16075.3
608.419,15825.7
608.584,16024.5
608.749,15652.9
608.914,15730.2
609.079,16091.8
609.244,16584.0
609.41,15840.2
609.575,15985.5
609.74,16093.0
609.905,16380.2
610.07,16159.9
610.235,16194.2
610.4,16686.2
610.565,16505.3
610.73,16348.7
610.895,16112.8
611.06,16856.1
611.225,16368.9
611.39,16444.0
611.555,16441.1
611.72,16663.5
611.885,16733.8
612.05,16576.3
612.215,16694.1
612.38,17040.2
612.545,16723.2
612.709,16684.0
612.874,16888.8
613.039,16611.5
613.204,17007.7
613.369,16988.7
613.534,17023.3
613.699,16988.8
613.864,17285.5
614.028,17151.8
614.193,17361.9
614.358,17674.9
614.523,17397.1
614.688,17543.3
614.853,17132.2
615.017,17414.5
615.182,17483.7
615.347,18014.4
615.512,17601.9
615.676,17414.6
615.841,17680.4
616.006,18256.3
616.171,18071.8
616.335,17694.5
616.5,17869.8
616.665,17947.3
616.829,17874.6
616.994,18175.9
617.159,18183.3
617.324,18003.3
617.488,18072.6
617.653,18203.9
617.818,18541.7
617.982,18631.5
618.147,18499.2
618.311,18279.6
618.476,18807.3
618.641,18766.0
618.805,18832.9
618.97,18487.2
619.134,18572.6
619.299,18836.9
619.463,19041.6
619.628,19212.6
619.793,18655.9
619.957,18834.9
620.122,18971.0
620.286,19065.7
620.451,18798.6
620.615,19249.9
620.78,19525.6
620.944,19171.0
621.109,19141.1
621.273,19040.5
621.438,19295.0
621.602,19755.3
621.766,19664.2
621.931,19101.0
622.095,19311.6
622.26,19689.6
622.424,19450.3
622.588,19893.7
622.753,20042.3
622.917,19689.4
623.082,20123.6
623.246,19981.7
623.41,19735.5
623.575,20257.0
623.739,19899.2
623.903,20137.5
624.068,20027.2
624.232,20794.6
624.396,20558.8
624.56,20654.8
624.725,20852.9
624.889,21004.8
625.053,20894.7
625.218,20657.5
625.382,20614.2
625.546,20300.2
625.71,20854.4
625.874,20551.2
626.039,20867.6
626.203,20977.5
626.367,20904.3
626.531,20910.2
626.695,20984.7
626.86,20497.6
627.024,21321.4
627.188,21302.2
627.352,20776.3
627.516,21424.5
627.68,21497.3
627.844,21314.7
628.008,21561.5
628.172,21628.1
628.337,21297.9
628.501,21654.0
628.665,22052.5
628.829,22143.1
628.993,21930.0
629.157,22183.7
629.321,22031.7
629.485,22286.3
629.649,22739.9
629.813,22581.5
629.977,22087.3
630.141,21662.8
630.305,22289.4
630.469,22128.5
630.633,22238.5
630.797,22683.9
630.961,23009.5
631.124,22713.7
631.288,23049.3
631.452,23811.8
631.616,23185.3
631.78,23967.8
631.944,23782.2
632.108,23769.4
632.272,23281.2
632.436,23729.8
632.599,23970.7
632.763,23809.8
632.927,23563.0
633.091,24256.8
633.255,23914.3
633.418,23279.7
633.582,23207.5
633.746,23729.2
633.91,23837.3
634.074,23393.7
634.237,23585.7
634.401,23242.5
634.565,23259.3
634.728,23582.4
634.892,23680.0
635.056,23467.4
635.22,23609.7
635.383,23314.9
635.547,23292.6
635.711,23341.9
635.874,24475.0
636.038,24988.2
636.202,24710.0
636.365,25857.3
636.529,25887.8
636.692,26007.4
636.856,24622.4
637.02,24408.5
637.183,24026.6
637.347,23537.7
637.51,24064.8
637.674,24096.7
637.837,23488.5
638.001,23126.3
638.164,23809.3
638.328,24087.1
638.491,23707.2
638.655,23187.1
638.818,23977.4
638.982,23742.2
639.145,23099.3
639.309,23817.0
639.472,23794.3
639.636,22997.7
639.799,23822.5
639.963,23894.2
640.126,23523.3
640.289,23622.6
640.453,23375.0
640.616,24241.5
640.78,23358.4
640.943,23103.6
641.106,23355.0
641.27,24209.4
641.433,23743.8
641.596,23120.9
641.76,23995.2
641.923,23484.6
642.086,23732.9
642.249,23868.7
642.413,23623.3
642.576,24341.0
642.739,23748.3
642.903,23754.4
643.066,23437.5
643.229,23260.8
643.392,23759.0
643.555,23489.7
643.719,23069.4
643.882,23597.1
644.045,23964.6
644.208,24023.1
644.371,24031.8
644.534,23109.5
644.698,23489.5
644.861,23649.4
645.024,23925.3
645.187,23481.7
645.35,23886.4
645.513,23999.0
645.676,23273.5
645.839,24212.3
646.002,23377.9
646.165,23530.2
646.329,23215.6
646.492,23786.8
646.655,23882.8
646.818,23357.9
646.981,23302.3
647.144,22793.7
647.307,23915.0
647.47,24362.0
647.633,22620.2
647.796,22828.1
647.958,23528.1
648.121,23630.6
648.284,23261.3
648.447,22213.8
648.61,23475.2
648.773,23443.6
648.936,22242.9
649.099,23019.7
649.262,23049.7
649.425,22236.6
649.587,22982.5
649.75,23636.8
649.913,22328.9
650.076,22274.5
650.239,22322.1
650.402,22771.0
650.564,22795.6
650.727,22868.1
650.89,22624.8
651.053,22387.5
651.215,22172.7
651.378,22316.9
651.541,22254.8
651.704,22053.9
651.866,22484.8
652.029,22345.2
652.192,22267.8
652.354,22637.3
652.517,22304.3
652.68,22036.4
652.842,21953.6
653.005,22411.5
653.168,22368.6
653.33,21889.0
653.493,21239.5
653.656,21846.9
653.818,22108.8
653.981,21600.2
654.143,21312.4
654.306,21883.6
654.468,21659.5
654.631,21500.5
654.794,21836.1
654.956,21003.8
655.119,21156.3
655.281,21690.3
655.444,21206.8
655.606,21115.3
655.769,21397.6
655.931,21522.5
656.093,20757.2
656.256,20761.7
656.418,21135.4
656.581,20702.1
656.743,20924.9
656.906,20766.4
657.068,21064.6
657.23,20759.2
657.393,20272.4
657.555,20242.7
657.718,20396.6
657.88,20068.0
658.042,20384.4
658.205,19759.4
658.367,20063.7
658.529,19783.5
658.691,19721.2
658.854,19538.4
659.016,19908.5
659.178,19346.4
659.341,19420.2
659.503,19664.0
659.665,19202.9
659.827,19484.4
659.989,19759.1
660.152,19456.0
660.314,18803.7
660.476,19090.2
660.638,19697.5
660.8,18664.8
660.963,19453.4
661.044,19157.9