File: spectra/VLFR_01-LDPE_bio_Raman_1af1ed82.csv
nm,Intensity
528.635,1834.9
528.803,1834.0
528.972,1833.8
529.14,1833.3
529.308,1834.9
529.477,1835.8
529.645,1834.5
529.814,1834.1
529.982,1833.6
530.151,1834.2
530.319,1835.7
530.487,1836.4
530.656,1836.1
530.824,1835.3
530.993,1836.2
531.161,1836.2
531.329,1837.4
531.498,1842.9
531.666,1872.6
531.835,2428.3
532.003,5706.3
532.171,4120.2
532.34,2014.9
532.508,1841.3
532.676,1836.1
532.845,1835.4
533.013,1835.2
533.181,1835.3
533.35,1839.0
533.518,1861.2
533.686,1994.9
533.854,2219.4
534.023,2330.3
534.191,2328.7
534.359,2296.0
534.528,2275.7
534.696,2266.9
534.864,2249.3
535.032,2220.7
535.201,2185.6
535.369,2162.1
535.537,2114.5
535.705,2093.2
535.874,2069.0
536.042,2060.6
536.21,2057.9
536.378,2063.4
536.546,2043.5
536.715,2048.2
536.883,2039.3
537.051,2034.7
537.219,2046.7
537.387,2050.8
537.556,2029.5
537.724,2041.0
537.892,2038.5
538.06,2032.6
538.228,2014.8
538.396,2019.4
538.565,2016.8
538.733,2006.1
538.901,2014.5
539.069,2019.3
539.237,1996.9
539.405,1997.3
539.573,1977.9
539.741,1971.1
539.909,1965.9
540.077,1972.3
540.246,1962.2
540.414,1958.3
540.582,1964.2
540.75,1958.5
540.918,1953.9
541.086,1956.2
541.254,1952.3
541.422,1961.0
541.59,1944.9
541.758,1948.2
541.926,1949.8
542.094,1957.6
542.262,1950.2
542.43,1951.7
542.598,1949.8
542.766,1956.1
542.934,1954.8
543.102,1956.4
543.27,1953.4
543.438,1945.8
543.606,1946.9
543.774,1941.2
543.942,1944.7
544.11,1946.2
544.278,1943.1
544.445,1945.5
544.613,1939.9
544.781,1939.0
544.949,1931.8
545.117,1940.3
545.285,1934.4
545.453,1940.5
545.621,1930.8
545.789,1932.5
545.957,1933.8
546.124,1932.9
546.292,1932.5
546.46,1930.6
546.628,1934.6
546.796,1940.9
546.964,1931.7
547.131,1932.5
547.299,1941.1
547.467,1938.9
547.635,1933.7
547.803,1934.4
547.97,1941.2
548.138,1936.0
548.306,1935.4
548.474,1930.0
548.642,1932.1
548.809,1925.8
548.977,1921.5
549.145,1925.3
549.313,1927.6
549.48,1932.8
549.648,1932.0
549.816,1926.4
549.983,1926.5
550.151,1922.0
550.319,1926.5
550.487,1922.7
550.654,1928.2
550.822,1933.1
550.99,1927.7
551.157,1922.8
551.325,1929.6
551.493,1933.7
551.66,1935.4
551.828,1933.4
551.996,1933.0
552.163,1931.1
552.331,1933.9
552.499,1933.1
552.666,1933.9
552.834,1935.4
553.001,1943.9
553.169,1953.1
553.337,1954.7
553.504,1960.0
553.672,1962.3
553.839,1954.5
554.007,1959.0
554.174,1969.3
554.342,1964.1
554.509,1966.7
554.677,1973.8
554.845,1968.8
555.012,1973.4
555.18,1975.9
555.347,1979.0
555.515,1977.2
555.682,1987.9
555.85,1990.8
556.017,1988.9
556.185,2001.1
556.352,1999.8
556.52,2007.6
556.687,2013.0
556.854,2025.5
557.022,2030.3
557.189,2035.3
557.357,2037.5
557.524,2047.4
557.692,2047.5
557.859,2055.4
558.026,2071.3
558.194,2061.3
558.361,2070.6
558.529,2083.3
558.696,2069.8
558.863,2064.6
559.031,2045.1
559.198,2030.0
559.365,2029.3
559.533,2013.8
559.7,2016.8
559.867,2017.3
560.035,2017.9
560.202,2007.9
560.369,2004.2
560.537,2003.6
560.704,1998.5
560.871,2009.7
561.039,2002.2
561.206,2016.7
561.373,2006.7
561.54,2016.1
561.708,2018.1
561.875,2018.0
562.042,2038.3
562.209,2033.4
562.377,2037.4
562.544,2055.9
562.711,2069.0
562.878,2073.0
563.046,2071.1
563.213,2096.4
563.38,2130.3
563.547,2156.1
563.714,2315.3
563.881,2669.5
564.049,2870.9
564.216,2590.4
564.383,2324.0
564.55,2299.3
564.717,2281.2
564.884,2250.7
565.052,2197.5
565.219,2172.3
565.386,2171.9
565.553,2177.2
565.72,2253.5
565.887,2472.6
566.054,2818.2
566.221,2801.5
566.388,2394.5
566.555,2220.1
566.722,2155.8
566.889,2121.7
567.056,2104.9
567.224,2127.9
567.391,2156.5
567.558,2148.1
567.725,2103.4
567.892,2069.1
568.059,2052.7
568.226,2061.0
568.393,2059.2
568.56,2050.7
568.727,2051.1
568.893,2054.5
569.06,2048.0
569.227,2056.5
569.394,2064.4
569.561,2054.1
569.728,2058.8
569.895,2070.9
570.062,2077.3
570.229,2103.6
570.396,2114.7
570.563,2138.3
570.73,2158.1
570.897,2188.1
571.063,2258.0
571.23,2476.6
571.397,3075.3
571.564,3490.8
571.731,2913.9
571.898,2526.5
572.064,2394.3
572.231,2318.8
572.398,2257.3
572.565,2196.5
572.732,2151.7
572.899,2145.1
573.065,2123.4
573.232,2133.9
573.399,2126.9
573.566,2117.2
573.732,2147.7
573.899,2196.0
574.066,2193.7
574.233,2134.8
574.399,2106.6
574.566,2091.6
574.733,2096.2
574.9,2117.0
575.066,2143.4
575.233,2212.4
575.4,2414.1
575.566,2612.5
575.733,2613.5
575.9,2711.7
576.066,3033.1
576.233,3416.4
576.4,3283.7
576.566,3089.9
576.733,2970.2
576.899,2938.3
577.066,2828.9
577.233,2714.9
577.399,2504.7
577.566,2337.7
577.732,2290.8
577.899,2247.9
578.066,2240.0
578.232,2232.8
578.399,2233.4
578.565,2228.0
578.732,2215.0
578.898,2224.1
579.065,2205.8
579.231,2203.8
579.398,2227.7
579.564,2234.9
579.731,2230.7
579.897,2230.5
580.064,2247.8
580.23,2252.6
580.397,2277.3
580.563,2257.2
580.73,2267.4
580.896,2305.0
581.063,2275.2
581.229,2275.7
581.396,2283.7
581.562,2315.1
581.728,2288.3
581.895,2305.8
582.061,2306.8
582.228,2327.0
582.394,2315.1
582.56,2328.9
582.727,2326.7
582.893,2350.4
583.059,2355.9
583.226,2345.3
583.392,2341.1
583.558,2350.0
583.725,2375.7
583.891,2385.3
584.057,2382.6
584.224,2385.0
584.39,2405.3
584.556,2406.6
584.722,2390.3
584.889,2402.2
585.055,2409.2
585.221,2434.0
585.387,2423.8
585.554,2443.3
585.72,2434.4
585.886,2437.0
586.052,2464.4
586.219,2464.1
586.385,2473.1
586.551,2470.2
586.717,2484.1
586.883,2524.4
587.049,2526.7
587.216,2506.6
587.382,2552.8
587.548,2589.8
587.714,2573.1
587.88,2553.5
588.046,2593.1
588.212,2592.0
588.379,2623.5
588.545,2630.5
588.711,2632.3
588.877,2642.4
589.043,2657.4
589.209,2634.0
589.375,2656.1
589.541,2690.4
589.707,2682.0
589.873,2659.1
590.039,2696.4
590.205,2694.8
590.371,2687.8
590.537,2699.2
590.703,2724.2
590.869,2711.7
591.035,2743.1
591.201,2727.5
591.367,2750.3
591.533,2701.6
591.699,2750.3
591.865,2761.0
592.031,2747.9
592.197,2773.5
592.363,2748.6
592.529,2738.7
592.695,2773.2
592.86,2736.5
593.026,2754.3
593.192,2730.4
593.358,2767.3
593.524,2747.3
593.69,2739.6
593.856,2767.6
594.022,2732.3
594.187,2731.2
594.353,2741.2
594.519,2752.2
594.685,2760.4
594.851,2746.8
595.016,2783.7
595.182,2739.3
595.348,2771.4
595.514,2768.8
595.679,2754.5
595.845,2760.8
596.011,2749.2
596.177,2758.2
596.342,2766.0
596.508,2726.7
596.674,2768.5
596.84,2773.8
597.005,2766.8
597.171,2780.7
597.337,2750.0
597.502,2763.2
597.668,2813.9
597.834,2764.2
597.999,2778.0
598.165,2784.1
598.331,2776.1
598.496,2788.5
598.662,2811.9
598.827,2785.4
598.993,2805.3
599.159,2813.7
599.324,2855.4
599.49,2829.9
599.655,2827.6
599.821,2820.7
599.987,2823.0
600.152,2820.7
600.318,2835.6
600.483,2832.3
600.649,2831.4
600.814,2835.3
600.98,2822.0
601.145,2851.9
601.311,2800.7
601.476,2852.1
601.642,2822.6
601.807,2841.5
601.973,2866.5
602.138,2842.7
602.303,2824.8
602.469,2805.4
602.634,2792.6
602.8,2780.1
602.965,2759.3
603.13,2775.5
603.296,2779.4
603.461,2768.7
603.627,2784.9
603.792,2760.9
603.957,2734.7
604.123,2704.9
604.288,2727.4
604.453,2705.5
604.619,2695.5
604.784,2700.0
604.949,2684.4
605.115,2686.9
605.28,2651.1
605.445,2654.7
605.61,2634.7
605.776,2615.9
605.941,2621.0
606.106,2619.0
606.272,2621.7
606.437,2588.3
606.602,2586.4
606.767,2575.7
606.932,2570.2
607.098,2556.5
607.263,2573.4
607.428,2539.7
607.593,2528.0
607.758,2527.4
607.923,2528.1
608.089,2529.5
608.254,2541.3
608.419,2511.3
608.584,2517.3
608.749,2506.9
608.914,2475.4
609.079,2507.3
609.244,2471.6
609.41,2476.2
609.575,2488.5
609.74,2475.0
609.905,2486.2
610.07,2447.4
610.235,2472.5
610.4,2476.8
610.565,2451.0
610.73,2451.5
610.895,2454.2
611.06,2472.5
611.225,2455.1
611.39,2453.5
611.555,2441.0
611.72,2417.8
611.885,2422.7
612.05,2416.4
612.215,2403.5
612.38,2411.6
612.545,2428.8
612.709,2410.2
612.874,2392.0
613.039,2392.0
613.204,2402.2
613.369,2406.9
613.534,2363.0
613.699,2390.0
613.864,2365.2
614.028,2365.8
614.193,2365.6
614.358,2377.9
614.523,2394.6
614.688,2386.0
614.853,2345.6
615.017,2349.3
615.182,2356.9
615.347,2372.0
615.512,2365.9
615.676,2332.2
615.841,2367.8
616.006,2347.5
616.171,2347.4
616.335,2358.5
616.5,2364.4
616.665,2361.7
616.829,2360.6
616.994,2358.9
617.159,2386.7
617.324,2403.0
617.488,2386.5
617.653,2397.8
617.818,2402.1
617.982,2398.0
618.147,2381.1
618.311,2372.1
618.476,2368.9
618.641,2382.9
618.805,2372.5
618.97,2375.3
619.134,2388.7
619.299,2414.5
619.463,2406.1
619.628,2393.9
619.793,2399.6
619.957,2387.6
620.122,2389.9
620.286,2388.8
620.451,2388.6
620.615,2415.2
620.78,2451.4
620.944,2419.4
621.109,2458.0
621.273,2494.0
621.438,2526.8
621.602,2567.3
621.766,2640.6
621.931,2673.4
622.095,2734.1
622.26,2768.7
622.424,2739.4
622.588,2638.3
622.753,2558.6
622.917,2479.3
623.082,2451.5
623.246,2428.7
623.41,2411.7
623.575,2391.6
623.739,2372.9
623.903,2374.9
624.068,2362.4
624.232,2376.0
624.396,2371.4
624.56,2379.7
624.725,2377.6
624.889,2393.6
625.053,2373.4
625.218,2406.7
625.382,2441.6
625.546,2455.6
625.71,2491.8
625.874,2511.0
626.039,2593.0
626.203,2693.1
626.367,2951.5
626.531,3375.2
626.695,4393.2
626.86,5815.3
627.024,7681.0
627.188,8643.3
627.352,8410.2
627.516,7389.5
627.68,6553.4
627.844,6214.7
628.008,6381.1
628.172,6641.2
628.337,7901.1
628.501,9266.4
628.665,8544.4
628.829,7251.9
628.993,6701.1
629.157,6383.5
629.321,6091.2
629.485,5790.9
629.649,5391.6
629.813,5170.4
629.977,4895.4
630.141,4858.5
630.305,4841.4
630.469,4618.7
630.633,4377.6
630.797,4127.5
630.961,3614.3
631.124,3209.1
631.288,2975.8
631.452,2859.3
631.616,2745.7
631.78,2707.4
631.944,2644.3
632.108,2543.9
632.272,2525.2
632.436,2482.7
632.599,2446.6
632.763,2433.7
632.927,2437.1
633.091,2397.7
633.255,2394.8
633.418,2387.0
633.582,2375.5
633.746,2365.4
633.91,2343.1
634.074,2336.4
634.237,2377.1
634.401,2335.5
634.565,2335.0
634.728,2308.8
634.892,2319.9
635.056,2332.6
635.22,2322.4
635.383,2328.0
635.547,2310.4
635.711,2290.7
635.874,2318.7
636.038,2304.2
636.202,2302.2
636.365,2312.6
636.529,2305.0
636.692,2307.7
636.856,2305.9
637.02,2294.2
637.183,2307.5
637.347,2299.2
637.51,2284.5
637.674,2271.9
637.837,2287.8
638.001,2286.7
638.164,2294.0
638.328,2280.1
638.491,2288.1
638.655,2304.4
638.818,2269.0
638.982,2310.0
639.145,2291.8
639.309,2287.3
639.472,2308.1
639.636,2287.7
639.799,2296.0
639.963,2314.4
640.126,2296.6
640.289,2281.0
640.453,2296.6
640.616,2292.3
640.78,2296.3
640.943,2315.1
641.106,2297.9
641.27,2298.6
641.433,2299.2
641.596,2311.2
641.76,2304.2
641.923,2303.9
642.086,2312.8
642.249,2319.3
642.413,2315.6
642.576,2328.1
642.739,2324.6
642.903,2313.2
643.066,2306.4
643.229,2307.9
643.392,2320.0
643.555,2314.8
643.719,2319.1
643.882,2330.2
644.045,2319.3
644.208,2337.0
644.371,2315.1
644.534,2302.7
644.698,2308.9
644.861,2317.3
645.024,2310.8
645.187,2300.0
645.35,2309.1
645.513,2312.0
645.676,2314.6
645.839,2297.9
646.002,2287.4
646.165,2313.7
646.329,2311.7
646.492,2320.1
646.655,2299.4
646.818,2283.5
646.981,2271.8
647.144,2303.0
647.307,2317.3
647.47,2303.0
647.633,2279.8
647.796,2280.7
647.958,2276.5
648.121,2288.8
648.284,2273.7
648.447,2284.9
648.61,2286.1
648.773,2278.4
648.936,2274.3
649.099,2253.2
649.262,2246.3
649.425,2253.7
649.587,2241.4
649.75,2279.9
649.913,2255.9
650.076,2243.4
650.239,2245.1
650.402,2249.4
650.564,2259.8
650.727,2235.2
650.89,2243.1
651.053,2236.3
651.215,2230.2
651.378,2235.0
651.541,2254.4
651.704,2236.5
651.866,2251.6
652.029,2235.0
652.192,2233.1
652.354,2257.2
652.517,2228.4
652.68,2230.3
652.842,2248.5
653.005,2233.5
653.168,2221.2
653.33,2214.3
653.493,2209.8
653.656,2204.5
653.818,2217.0
653.981,2212.4
654.143,2208.4
654.306,2220.6
654.468,2202.4
654.631,2222.9
654.794,2203.8
654.956,2192.0
655.119,2206.0
655.281,2210.3
655.444,2194.8
655.606,2193.0
655.769,2186.0
655.931,2186.6
656.093,2179.4
656.256,2194.7
656.418,2197.1
656.581,2189.1
656.743,2171.3
656.906,2165.6
657.068,2158.2
657.23,2151.9
657.393,2170.1
657.555,2179.0
657.718,2164.1
657.88,2124.6
658.042,2151.0
658.205,2154.8
658.367,2135.1
658.529,2127.2
658.691,2136.7
658.854,2140.5
659.016,2131.3
659.178,2133.0
659.341,2127.4
659.503,2127.8
659.665,2119.6
659.827,2126.9
659.989,2136.1
660.152,2116.6
660.314,2102.9
660.476,2103.5
660.638,2095.8
660.8,2106.3
660.963,2102.4
661.044,2083.5