File: spectra/VLFR_08-PLA_bio_Raman_cb4574df.csv
nm,Intensity
528.626,1858.6
528.795,1860.6
528.963,1858.9
529.132,1858.7
529.3,1858.9
529.469,1860.9
529.637,1860.0
529.806,1859.0
529.974,1859.7
530.143,1858.2
530.311,1858.6
530.48,1859.4
530.648,1858.7
530.816,1859.8
530.985,1861.8
531.153,1863.8
531.322,1863.3
531.49,1869.8
531.658,1895.1
531.827,2435.9
531.995,4801.8
532.164,4960.3
532.332,2238.5
532.5,1866.8
532.669,1863.8
532.837,1862.1
533.006,1862.1
533.174,1863.5
533.342,1870.7
533.511,1933.9
533.679,2297.7
533.847,3037.4
534.016,3451.3
534.184,3479.7
534.352,3292.3
534.521,3203.9
534.689,3096.3
534.857,3062.1
535.025,2988.5
535.194,2887.6
535.362,2821.4
535.53,2779.5
535.699,2684.7
535.867,2619.5
536.035,2621.0
536.203,2608.8
536.372,2654.8
536.54,2661.3
536.708,2661.9
536.876,2602.7
537.044,2534.3
537.213,2529.7
537.381,2549.0
537.549,2583.4
537.717,2563.7
537.885,2510.3
538.054,2488.1
538.222,2436.0
538.39,2419.0
538.558,2392.2
538.726,2395.9
538.894,2389.7
539.063,2381.1
539.231,2376.3
539.399,2347.7
539.567,2323.8
539.735,2279.6
539.903,2287.7
540.071,2308.9
540.239,2355.2
540.408,2408.7
540.576,2488.9
540.744,2495.0
540.912,2486.6
541.08,2487.2
541.248,2458.5
541.416,2417.0
541.584,2402.3
541.752,2370.9
541.92,2340.4
542.088,2330.7
542.256,2347.1
542.424,2350.5
542.592,2348.5
542.76,2355.1
542.928,2402.1
543.096,2466.3
543.264,2543.8
543.432,2623.2
543.6,2710.4
543.768,2713.3
543.936,2706.4
544.104,2630.7
544.272,2520.1
544.44,2431.1
544.608,2386.3
544.776,2352.0
544.944,2307.2
545.112,2332.3
545.28,2286.3
545.448,2263.8
545.616,2273.3
545.784,2258.8
545.951,2251.4
546.119,2275.0
546.287,2277.7
546.455,2283.0
546.623,2260.6
546.791,2285.7
546.959,2307.9
547.127,2307.4
547.294,2315.8
547.462,2304.1
547.63,2314.9
547.798,2274.3
547.966,2297.9
548.134,2303.0
548.301,2307.5
548.469,2315.8
548.637,2317.9
548.805,2323.2
548.972,2304.8
549.14,2317.9
549.308,2309.4
549.476,2311.2
549.644,2315.8
549.811,2313.8
549.979,2304.2
550.147,2319.4
550.315,2317.8
550.482,2328.3
550.65,2328.0
550.818,2372.5
550.985,2357.9
551.153,2386.0
551.321,2368.7
551.488,2394.3
551.656,2406.7
551.824,2409.6
551.991,2418.3
552.159,2403.9
552.327,2422.0
552.494,2422.8
552.662,2403.4
552.83,2414.1
552.997,2419.5
553.165,2400.2
553.333,2358.5
553.5,2362.1
553.668,2403.5
553.835,2450.5
554.003,2495.7
554.171,2464.8
554.338,2435.6
554.506,2413.2
554.673,2386.0
554.841,2376.7
555.008,2360.7
555.176,2352.9
555.343,2325.2
555.511,2290.4
555.679,2291.3
555.846,2307.9
556.014,2297.7
556.181,2302.4
556.349,2308.7
556.516,2332.6
556.684,2330.1
556.851,2334.7
557.018,2385.8
557.186,2428.2
557.353,2542.6
557.521,2660.1
557.688,3045.1
557.856,3529.6
558.023,3970.6
558.191,3826.5
558.358,3168.1
558.525,2759.3
558.693,2627.4
558.86,2545.7
559.028,2533.0
559.195,2494.4
559.362,2504.2
559.53,2466.4
559.697,2460.8
559.864,2435.4
560.032,2425.3
560.199,2397.9
560.366,2386.6
560.534,2390.9
560.701,2406.7
560.868,2361.2
561.036,2377.7
561.203,2340.3
561.37,2360.6
561.538,2362.2
561.705,2364.7
561.872,2376.7
562.039,2363.0
562.207,2376.5
562.374,2373.6
562.541,2437.2
562.708,2459.3
562.876,2528.1
563.043,2593.1
563.21,2786.0
563.377,2868.5
563.545,2831.8
563.712,2760.6
563.879,2632.1
564.046,2506.9
564.213,2464.5
564.38,2471.9
564.548,2526.0
564.715,2609.7
564.882,2714.7
565.049,2760.8
565.216,2728.0
565.383,2709.5
565.551,2717.7
565.718,2783.3
565.885,2957.1
566.052,3046.1
566.219,3014.0
566.386,2854.0
566.553,2693.7
566.72,2535.7
566.887,2481.9
567.054,2456.3
567.221,2411.1
567.388,2442.7
567.555,2470.8
567.722,2529.8
567.889,2548.8
568.057,2535.6
568.224,2501.4
568.391,2490.6
568.558,2508.6
568.725,2485.9
568.892,2495.3
569.058,2504.0
569.225,2504.6
569.392,2484.0
569.559,2467.4
569.726,2435.3
569.893,2452.4
570.06,2441.3
570.227,2455.1
570.394,2460.0
570.561,2463.6
570.728,2493.3
570.895,2490.7
571.062,2510.6
571.229,2581.2
571.395,2688.5
571.562,2775.5
571.729,2824.0
571.896,2750.3
572.063,2702.2
572.23,2661.5
572.397,2629.6
572.563,2621.2
572.73,2623.4
572.897,2647.4
573.064,2626.9
573.231,2633.0
573.397,2659.0
573.564,2655.7
573.731,2635.5
573.898,2648.6
574.064,2582.8
574.231,2651.4
574.398,2691.5
574.565,2723.3
574.731,2666.7
574.898,2545.1
575.065,2483.6
575.232,2496.3
575.398,2489.5
575.565,2461.4
575.732,2492.0
575.898,2509.3
576.065,2568.7
576.232,2709.1
576.398,2975.3
576.565,3225.3
576.732,3346.9
576.898,3332.4
577.065,3137.6
577.232,2845.5
577.398,2664.9
577.565,2564.7
577.731,2515.8
577.898,2511.1
578.065,2475.9
578.231,2460.9
578.398,2466.1
578.564,2460.5
578.731,2431.9
578.897,2458.4
579.064,2473.5
579.23,2450.2
579.397,2448.1
579.563,2438.7
579.73,2456.0
579.896,2455.6
580.063,2463.8
580.229,2441.3
580.396,2437.1
580.562,2459.1
580.729,2469.6
580.895,2438.0
581.062,2450.6
581.228,2437.9
581.395,2436.9
581.561,2472.0
581.728,2452.8
581.894,2451.6
582.06,2451.7
582.227,2458.3
582.393,2432.5
582.56,2449.1
582.726,2445.0
582.892,2453.1
583.059,2465.8
583.225,2417.8
583.391,2445.8
583.558,2454.1
583.724,2461.2
583.89,2474.3
584.057,2472.0
584.223,2472.9
584.389,2475.2
584.556,2469.0
584.722,2445.8
584.888,2461.8
585.054,2448.3
585.221,2444.7
585.387,2470.0
585.553,2480.1
585.719,2489.3
585.886,2492.1
586.052,2479.0
586.218,2521.3
586.384,2601.8
586.55,2712.6
586.717,2884.7
586.883,2944.1
587.049,3047.0
587.215,3129.8
587.381,3210.6
587.548,3228.3
587.714,3133.4
587.88,2907.6
588.046,2705.3
588.212,2575.2
588.378,2540.3
588.544,2509.4
588.71,2481.6
588.876,2458.7
589.043,2470.8
589.209,2468.5
589.375,2469.8
589.541,2479.1
589.707,2466.6
589.873,2443.2
590.039,2457.5
590.205,2446.2
590.371,2450.1
590.537,2448.8
590.703,2446.9
590.869,2426.1
591.035,2418.8
591.201,2454.9
591.367,2451.3
591.533,2425.6
591.699,2441.3
591.865,2456.1
592.031,2457.5
592.197,2447.9
592.363,2462.6
592.529,2452.0
592.694,2439.1
592.86,2462.0
593.026,2446.7
593.192,2439.9
593.358,2464.6
593.524,2448.5
593.69,2429.5
593.856,2444.9
594.021,2430.8
594.187,2461.6
594.353,2453.0
594.519,2442.6
594.685,2449.6
594.851,2444.3
595.016,2459.3
595.182,2466.4
595.348,2452.2
595.514,2440.2
595.68,2451.0
595.845,2431.5
596.011,2448.3
596.177,2458.0
596.342,2462.5
596.508,2444.1
596.674,2467.3
596.84,2454.4
597.005,2462.5
597.171,2471.7
597.337,2444.6
597.502,2471.6
597.668,2464.2
597.834,2451.9
597.999,2502.0
598.165,2442.5
598.331,2441.5
598.496,2458.7
598.662,2476.3
598.828,2463.0
598.993,2448.4
599.159,2442.9
599.324,2453.0
599.49,2463.6
599.656,2493.0
599.821,2474.5
599.987,2470.5
600.152,2466.1
600.318,2445.2
600.483,2461.7
600.649,2472.3
600.814,2463.6
600.98,2480.5
601.145,2482.0
601.311,2456.9
601.476,2476.2
601.642,2486.9
601.807,2475.7
601.973,2473.5
602.138,2490.4
602.304,2458.8
602.469,2468.3
602.635,2479.6
602.8,2462.3
602.965,2454.5
603.131,2461.6
603.296,2476.4
603.462,2485.9
603.627,2451.6
603.792,2455.9
603.958,2479.7
604.123,2468.3
604.288,2447.8
604.454,2445.8
604.619,2445.3
604.784,2435.1
604.95,2484.8
605.115,2486.7
605.28,2443.7
605.446,2475.0
605.611,2450.0
605.776,2464.7
605.941,2448.8
606.107,2458.2
606.272,2462.8
606.437,2473.5
606.602,2460.2
606.767,2449.4
606.933,2480.0
607.098,2471.0
607.263,2462.5
607.428,2480.1
607.593,2454.0
607.759,2470.2
607.924,2462.0
608.089,2480.1
608.254,2471.1
608.419,2461.1
608.584,2450.9
608.749,2467.2
608.915,2460.0
609.08,2449.0
609.245,2439.6
609.41,2465.5
609.575,2437.6
609.74,2492.3
609.905,2469.1
610.07,2450.9
610.235,2457.5
610.4,2473.2
610.565,2477.7
610.73,2434.0
610.895,2477.8
611.06,2453.8
611.225,2467.6
611.39,2485.6
611.555,2465.3
611.72,2443.7
611.885,2457.9
612.05,2441.5
612.215,2446.3
612.38,2473.6
612.545,2456.7
612.71,2450.6
612.875,2464.6
613.04,2459.3
613.204,2459.9
613.369,2463.8
613.534,2453.0
613.699,2451.5
613.864,2472.6
614.029,2447.4
614.194,2462.9
614.358,2475.8
614.523,2449.5
614.688,2455.5
614.853,2483.2
615.018,2476.3
615.182,2446.9
615.347,2465.5
615.512,2464.5
615.677,2466.9
615.841,2471.3
616.006,2486.1
616.171,2461.3
616.336,2459.9
616.5,2453.7
616.665,2475.7
616.83,2452.5
616.994,2487.9
617.159,2483.2
617.324,2457.8
617.489,2477.3
617.653,2467.9
617.818,2467.9
617.982,2461.4
618.147,2452.6
618.312,2440.9
618.476,2451.1
618.641,2423.3
618.805,2438.7
618.97,2464.4
619.135,2432.4
619.299,2467.5
619.464,2448.8
619.628,2462.9
619.793,2447.1
619.957,2459.9
620.122,2454.6
620.286,2451.2
620.451,2437.7
620.615,2452.1
620.78,2451.9
620.944,2449.5
621.109,2436.7
621.273,2454.3
621.438,2451.0
621.602,2440.9
621.767,2451.6
621.931,2451.2
622.095,2495.5
622.26,2508.8
622.424,2516.2
622.589,2545.4
622.753,2559.9
622.917,2601.2
623.082,2594.5
623.246,2595.0
623.41,2574.1
623.575,2556.2
623.739,2537.6
623.903,2527.9
624.068,2511.6
624.232,2464.1
624.396,2476.7
624.561,2475.3
624.725,2472.8
624.889,2434.1
625.053,2466.6
625.218,2440.0
625.382,2442.1
625.546,2446.0
625.71,2424.3
625.875,2461.4
626.039,2446.0
626.203,2443.8
626.367,2442.3
626.531,2438.6
626.695,2451.6
626.86,2444.8
627.024,2444.7
627.188,2455.3
627.352,2462.0
627.516,2517.1
627.68,2542.9
627.844,2595.2
628.008,2764.1
628.172,2992.2
628.337,3194.0
628.501,3327.2
628.665,3263.7
628.829,3172.5
628.993,3042.7
629.157,3084.6
629.321,3138.9
629.485,3092.9
629.649,3069.2
629.813,3130.4
629.977,3145.4
630.141,3278.9
630.305,3486.9
630.469,3853.9
630.633,4651.7
630.797,5969.2
630.96,7136.1
631.124,7512.1
631.288,6743.8
631.452,5644.9
631.616,4744.8
631.78,4221.1
631.944,3914.7
632.108,3735.0
632.272,3696.6
632.435,3635.1
632.599,3668.6
632.763,3880.1
632.927,4224.5
633.091,4556.7
633.254,4727.1
633.418,4517.9
633.582,4318.1
633.746,4111.3
633.91,3690.4
634.073,3387.5
634.237,3113.7
634.401,2902.4
634.564,2719.4
634.728,2650.2
634.892,2580.6
635.056,2547.4
635.219,2505.3
635.383,2471.3
635.547,2435.8
635.71,2425.7
635.874,2405.8
636.038,2407.4
636.201,2417.1
636.365,2389.4
636.528,2398.8
636.692,2367.2
636.856,2369.5
637.019,2380.9
637.183,2366.6
637.346,2376.1
637.51,2357.8
637.673,2331.1
637.837,2363.4
638.0,2363.8
638.164,2352.4
638.327,2353.1
638.491,2342.3
638.654,2332.4
638.818,2336.9
638.981,2341.7
639.145,2351.1
639.308,2329.2
639.472,2341.3
639.635,2324.3
639.799,2328.7
639.962,2321.2
640.125,2333.9
640.289,2351.9
640.452,2349.4
640.616,2328.9
640.779,2341.1
640.942,2328.9
641.106,2324.9
641.269,2342.7
641.432,2335.2
641.596,2330.5
641.759,2337.9
641.922,2356.9
642.085,2316.6
642.249,2318.2
642.412,2334.6
642.575,2347.6
642.738,2305.7
642.902,2314.2
643.065,2326.0
643.228,2312.1
643.391,2288.2
643.555,2303.2
643.718,2310.7
643.881,2290.6
644.044,2289.5
644.207,2283.5
644.37,2268.0
644.534,2266.8
644.697,2285.8
644.86,2259.2
645.023,2278.0
645.186,2270.8
645.349,2269.2
645.512,2268.1
645.675,2278.5
645.838,2248.8
646.001,2235.2
646.164,2259.3
646.327,2263.4
646.49,2256.1
646.653,2260.5
646.816,2269.6
646.979,2245.7
647.142,2261.7
647.305,2245.3
647.468,2252.8
647.631,2238.5
647.794,2223.2
647.957,2244.7
648.12,2240.9
648.283,2214.5
648.446,2243.0
648.609,2228.1
648.772,2247.6
648.935,2218.8
649.098,2236.8
649.26,2234.3
649.423,2224.7
649.586,2218.8
649.749,2231.4
649.912,2225.6
650.075,2225.1
650.237,2216.6
650.4,2233.5
650.563,2226.8
650.726,2202.5
650.888,2212.2
651.051,2229.9
651.214,2201.9
651.377,2215.0
651.539,2212.1
651.702,2207.4
651.865,2225.5
652.027,2203.2
652.19,2197.5
652.353,2216.2
652.515,2205.3
652.678,2196.6
652.841,2190.1
653.003,2194.3
653.166,2183.2
653.329,2186.1
653.491,2184.3
653.654,2191.5
653.816,2194.0
653.979,2187.5
654.142,2175.2
654.304,2173.4
654.467,2188.4
654.629,2195.0
654.792,2180.0
654.954,2166.5
655.117,2193.3
655.279,2187.7
655.442,2168.9
655.604,2201.2
655.767,2186.1
655.929,2182.0
656.091,2161.8
656.254,2170.6
656.416,2176.7
656.579,2178.6
656.741,2168.0
656.904,2163.1
657.066,2167.2
657.228,2159.4
657.391,2195.2
657.553,2159.2
657.715,2159.5
657.878,2154.5
658.04,2166.2
658.202,2148.7
658.365,2154.9
658.527,2157.1
658.689,2152.5
658.851,2122.2
659.014,2146.9
659.176,2146.4
659.338,2153.9
659.5,2133.8
659.663,2132.0
659.825,2125.1
659.987,2130.3
660.149,2133.7
660.311,2135.3
660.474,2116.6
660.636,2134.4
660.798,2152.5
660.96,2120.9
661.041,2118.4