File: spectra/VLFR_01-LDPE_bio_Raman_0fbf0413.csv
nm,Intensity
528.65,1855.0
528.819,1854.35
528.987,1854.6
529.155,1855.85
529.324,1853.9
529.492,1854.75
529.66,1856.05
529.829,1855.45
529.997,1854.75
530.165,1855.85
530.334,1855.45
530.502,1854.25
530.67,1855.9
530.839,1855.0
531.007,1854.95
531.175,1855.25
531.344,1859.0
531.512,1860.25
531.68,1878.15
531.848,2185.45
532.017,3220.45
532.185,2956.85
532.353,1963.15
532.521,1858.55
532.69,1855.85
532.858,1855.7
533.026,1856.1
533.194,1857.0
533.363,1857.5
533.531,1874.0
533.699,1959.55
533.867,2127.85
534.036,2216.05
534.204,2239.95
534.372,2218.8
534.54,2203.15
534.708,2206.3
534.877,2187.7
535.045,2180.0
535.213,2170.3
535.381,2154.75
535.549,2134.5
535.717,2127.2
535.886,2118.95
536.054,2098.3
536.222,2105.05
536.39,2100.7
536.558,2093.55
536.726,2079.15
536.894,2094.35
537.062,2087.75
537.231,2092.5
537.399,2102.15
537.567,2093.2
537.735,2100.05
537.903,2104.5
538.071,2099.85
538.239,2087.95
538.407,2090.85
538.575,2075.95
538.743,2085.4
538.911,2086.0
539.079,2076.85
539.247,2073.4
539.415,2068.9
539.583,2066.05
539.751,2063.35
539.919,2055.7
540.087,2064.15
540.255,2055.85
540.423,2050.4
540.591,2055.1
540.759,2047.55
540.927,2049.25
541.095,2045.35
541.263,2046.7
541.431,2040.95
541.599,2037.6
541.767,2044.65
541.935,2050.65
542.103,2050.6
542.271,2048.9
542.439,2053.75
542.607,2050.7
542.775,2050.5
542.943,2052.35
543.111,2049.6
543.279,2050.75
543.446,2047.0
543.614,2048.7
543.782,2045.85
543.95,2048.5
544.118,2035.6
544.286,2049.45
544.454,2042.4
544.622,2043.25
544.789,2036.15
544.957,2046.8
545.125,2044.8
545.293,2045.95
545.461,2034.45
545.629,2043.8
545.796,2042.55
545.964,2040.75
546.132,2038.1
546.3,2043.15
546.468,2045.85
546.635,2046.8
546.803,2040.45
546.971,2034.0
547.139,2040.9
547.306,2042.8
547.474,2043.35
547.642,2039.6
547.81,2031.1
547.977,2042.85
548.145,2045.3
548.313,2042.85
548.481,2047.6
548.648,2031.85
548.816,2039.0
548.984,2049.3
549.151,2038.7
549.319,2030.05
549.487,2039.7
549.655,2041.7
549.822,2043.45
549.99,2035.15
550.158,2040.45
550.325,2043.95
550.493,2037.9
550.66,2043.6
550.828,2044.0
550.996,2045.4
551.163,2049.5
551.331,2040.2
551.499,2047.4
551.666,2046.4
551.834,2044.35
552.001,2047.2
552.169,2044.75
552.337,2048.8
552.504,2045.5
552.672,2043.05
552.839,2041.7
553.007,2055.8
553.174,2058.4
553.342,2066.0
553.509,2065.8
553.677,2068.2
553.844,2067.85
554.012,2058.65
554.179,2066.15
554.347,2066.7
554.514,2067.0
554.682,2067.1
554.849,2068.45
555.017,2075.65
555.184,2071.5
555.352,2065.15
555.519,2083.0
555.687,2082.6
555.854,2076.25
556.022,2088.45
556.189,2097.2
556.357,2096.35
556.524,2096.65
556.691,2090.1
556.859,2099.3
557.026,2106.9
557.194,2099.45
557.361,2114.6
557.528,2130.25
557.696,2111.25
557.863,2124.6
558.031,2128.1
558.198,2135.2
558.365,2134.25
558.533,2132.0
558.7,2128.9
558.867,2120.55
559.035,2113.4
559.202,2121.1
559.369,2102.85
559.537,2109.0
559.704,2112.05
559.871,2113.1
560.038,2112.1
560.206,2097.5
560.373,2100.55
560.54,2106.75
560.708,2105.3
560.875,2107.55
561.042,2110.85
561.209,2113.45
561.377,2109.75
561.544,2112.7
561.711,2116.9
561.878,2118.55
562.045,2129.55
562.213,2127.9
562.38,2136.15
562.547,2137.0
562.714,2147.6
562.881,2163.35
563.049,2159.65
563.216,2169.75
563.383,2177.25
563.55,2199.7
563.717,2295.65
563.884,2490.2
564.052,2575.15
564.219,2426.35
564.386,2289.25
564.553,2286.85
564.72,2274.5
564.887,2253.55
565.054,2229.35
565.221,2212.1
565.388,2204.45
565.556,2214.35
565.723,2273.75
565.89,2377.25
566.057,2572.05
566.224,2543.35
566.391,2347.6
566.558,2244.75
566.725,2206.65
566.892,2185.0
567.059,2193.4
567.226,2205.75
567.393,2230.0
567.56,2205.55
567.727,2185.0
567.894,2175.4
568.061,2174.2
568.228,2163.8
568.395,2171.95
568.562,2171.9
568.729,2171.95
568.896,2171.1
569.063,2171.8
569.23,2181.9
569.396,2183.8
569.563,2188.5
569.73,2190.5
569.897,2196.5
570.064,2193.9
570.231,2210.85
570.398,2222.2
570.565,2231.6
570.732,2230.05
570.898,2261.9
571.065,2289.15
571.232,2421.6
571.399,2750.7
571.566,3007.3
571.733,2703.75
571.9,2452.45
572.066,2394.85
572.233,2349.0
572.4,2308.15
572.567,2296.8
572.734,2270.1
572.9,2253.35
573.067,2243.05
573.234,2244.8
573.401,2249.75
573.567,2263.15
573.734,2271.6
573.901,2294.15
574.068,2292.4
574.234,2271.25
574.401,2249.15
574.568,2251.6
574.734,2248.25
574.901,2264.5
575.068,2279.45
575.235,2313.4
575.401,2435.65
575.568,2550.4
575.735,2584.85
575.901,2634.45
576.068,2782.6
576.235,3025.7
576.401,3016.4
576.568,2852.7
576.734,2807.15
576.901,2786.1
577.068,2774.8
577.234,2653.05
577.401,2540.0
577.567,2463.9
577.734,2433.9
577.901,2433.2
578.067,2393.55
578.234,2406.05
578.4,2428.25
578.567,2410.05
578.733,2433.25
578.9,2439.25
579.066,2461.7
579.233,2453.05
579.399,2449.8
579.566,2466.35
579.732,2488.15
579.899,2484.05
580.065,2499.2
580.232,2513.7
580.398,2546.55
580.565,2516.1
580.731,2532.25
580.898,2550.65
581.064,2563.75
581.231,2561.4
581.397,2589.4
581.563,2597.2
581.73,2580.6
581.896,2618.8
582.063,2615.0
582.229,2618.75
582.395,2628.05
582.562,2631.15
582.728,2619.3
582.895,2656.5
583.061,2660.25
583.227,2688.05
583.394,2686.25
583.56,2678.0
583.726,2673.35
583.893,2696.25
584.059,2730.8
584.225,2694.85
584.391,2724.25
584.558,2737.75
584.724,2734.15
584.89,2730.95
585.057,2742.0
585.223,2726.25
585.389,2724.65
585.555,2734.05
585.722,2769.45
585.888,2779.15
586.054,2772.95
586.22,2753.25
586.386,2781.15
586.553,2762.85
586.719,2812.65
586.885,2791.8
587.051,2809.2
587.217,2835.15
587.384,2835.1
587.55,2854.8
587.716,2826.65
587.882,2866.5
588.048,2875.6
588.214,2876.75
588.38,2874.25
588.546,2871.35
588.713,2879.55
588.879,2876.2
589.045,2876.2
589.211,2913.95
589.377,2927.25
589.543,2913.75
589.709,2912.65
589.875,2907.45
590.041,2945.95
590.207,2933.5
590.373,2957.45
590.539,2998.3
590.705,2986.2
590.871,2981.5
591.037,2977.5
591.203,3028.5
591.369,2972.9
591.535,3023.45
591.701,3011.7
591.867,3036.75
592.033,3053.45
592.199,3033.6
592.365,3059.3
592.531,3055.55
592.697,3077.15
592.863,3071.9
593.029,3038.65
593.195,3093.65
593.361,3095.05
593.526,3063.8
593.692,3083.05
593.858,3087.2
594.024,3093.5
594.19,3127.25
594.356,3105.4
594.522,3115.2
594.687,3156.75
594.853,3155.85
595.019,3198.4
595.185,3151.3
595.351,3127.75
595.516,3210.35
595.682,3199.4
595.848,3220.5
596.014,3249.15
596.18,3250.75
596.345,3238.05
596.511,3260.35
596.677,3298.4
596.843,3265.1
597.008,3277.05
597.174,3302.65
597.34,3333.25
597.505,3323.4
597.671,3293.55
597.837,3354.2
598.002,3393.5
598.168,3412.9
598.334,3404.3
598.499,3416.0
598.665,3430.85
598.831,3447.6
598.996,3464.25
599.162,3473.45
599.328,3481.3
599.493,3518.65
599.659,3479.45
599.824,3480.45
599.99,3514.2
600.156,3523.2
600.321,3504.3
600.487,3554.55
600.652,3530.85
600.818,3524.65
600.983,3520.1
601.149,3501.5
601.314,3532.35
601.48,3581.5
601.645,3535.15
601.811,3529.8
601.976,3551.9
602.142,3565.6
602.307,3504.55
602.473,3540.55
602.638,3499.0
602.804,3510.9
602.969,3498.15
603.135,3494.35
603.3,3433.25
603.466,3445.55
603.631,3429.5
603.796,3454.4
603.962,3447.75
604.127,3392.35
604.293,3418.2
604.458,3399.25
604.623,3354.1
604.789,3312.85
604.954,3324.35
605.119,3277.3
605.285,3322.85
605.45,3271.7
605.615,3286.4
605.781,3269.65
605.946,3219.15
606.111,3215.15
606.277,3213.1
606.442,3188.55
606.607,3198.75
606.772,3166.35
606.938,3157.75
607.103,3160.95
607.268,3151.7
607.433,3125.4
607.599,3124.65
607.764,3069.6
607.929,3070.8
608.094,3091.2
608.259,3018.45
608.425,3054.9
608.59,3025.55
608.755,3017.3
608.92,2988.35
609.085,3017.0
609.25,2999.55
609.415,2968.6
609.581,2962.2
609.746,2989.05
609.911,2978.5
610.076,2991.9
610.241,2935.05
610.406,2947.55
610.571,2970.9
610.736,2905.0
610.901,2955.3
611.066,2948.3
611.231,2896.55
611.396,2926.75
611.561,2925.35
611.727,2906.25
611.892,2897.9
612.057,2847.5
612.222,2866.65
612.386,2859.05
612.551,2867.4
612.716,2839.4
612.881,2860.2
613.046,2866.4
613.211,2806.75
613.376,2825.7
613.541,2817.75
613.706,2807.2
613.871,2812.8
614.036,2818.4
614.201,2782.05
614.366,2778.3
614.531,2815.9
614.695,2782.65
614.86,2757.65
615.025,2760.6
615.19,2774.2
615.355,2791.4
615.52,2748.75
615.684,2758.5
615.849,2743.9
616.014,2746.4
616.179,2761.5
616.344,2750.1
616.508,2739.9
616.673,2723.5
616.838,2744.5
617.003,2749.45
617.168,2722.95
617.332,2738.7
617.497,2744.85
617.662,2738.45
617.826,2741.65
617.991,2771.5
618.156,2727.6
618.32,2702.65
618.485,2727.5
618.65,2722.05
618.814,2716.8
618.979,2715.85
619.144,2719.45
619.308,2696.35
619.473,2728.45
619.638,2717.4
619.802,2716.8
619.967,2743.8
620.131,2719.1
620.296,2697.55
620.461,2721.55
620.625,2713.85
620.79,2756.35
620.954,2711.7
621.119,2731.75
621.283,2760.2
621.448,2765.5
621.612,2843.4
621.777,2844.1
621.941,2860.55
622.106,2929.25
622.27,2902.1
622.435,2905.4
622.599,2880.65
622.764,2805.15
622.928,2732.0
623.093,2718.05
623.257,2724.5
623.422,2690.55
623.586,2650.8
623.75,2674.35
623.915,2652.6
624.079,2650.3
624.244,2668.3
624.408,2690.95
624.572,2639.8
624.737,2665.4
624.901,2670.1
625.065,2662.4
625.23,2665.45
625.394,2705.4
625.558,2708.9
625.723,2740.85
625.887,2743.35
626.051,2771.1
626.215,2837.25
626.38,2993.05
626.544,3282.6
626.708,3973.5
626.872,4830.95
627.037,6169.05
627.201,6766.2
627.365,6474.1
627.529,6043.7
627.693,5373.25
627.858,5159.5
628.022,5145.85
628.186,5476.25
628.35,6191.25
628.514,6888.85
628.678,6480.6
628.843,5702.8
629.007,5431.7
629.171,5303.15
629.335,5048.3
629.499,4772.5
629.663,4597.1
629.827,4404.35
629.991,4258.8
630.155,4215.9
630.319,4233.7
630.483,4179.9
630.647,3950.05
630.812,3705.75
630.976,3418.8
631.14,3186.25
631.304,3038.95
631.468,2947.6
631.632,2840.55
631.796,2829.1
631.959,2790.15
632.123,2754.15
632.287,2714.55
632.451,2734.15
632.615,2706.4
632.779,2680.8
632.943,2660.8
633.107,2628.6
633.271,2641.0
633.435,2680.15
633.599,2653.85
633.763,2626.15
633.926,2603.0
634.09,2593.0
634.254,2644.8
634.418,2594.4
634.582,2578.8
634.746,2612.9
634.909,2616.15
635.073,2596.6
635.237,2579.65
635.401,2581.5
635.564,2579.15
635.728,2559.85
635.892,2580.45
636.056,2562.05
636.219,2576.85
636.383,2595.4
636.547,2575.1
636.711,2561.9
636.874,2587.65
637.038,2571.4
637.202,2546.65
637.365,2543.4
637.529,2566.95
637.693,2559.95
637.856,2529.85
638.02,2565.95
638.184,2558.65
638.347,2563.25
638.511,2550.45
638.674,2537.75
638.838,2545.25
639.002,2529.75
639.165,2551.95
639.329,2544.0
639.492,2534.5
639.656,2538.55
639.819,2517.5
639.983,2542.45
640.146,2520.55
640.31,2523.8
640.473,2526.5
640.637,2518.1
640.8,2533.15
640.964,2532.95
641.127,2510.45
641.291,2543.4
641.454,2519.1
641.618,2501.05
641.781,2543.65
641.944,2504.3
642.108,2519.75
642.271,2533.7
642.435,2550.25
642.598,2522.55
642.761,2530.55
642.925,2542.55
643.088,2535.7
643.251,2512.9
643.415,2533.9
643.578,2537.05
643.741,2527.35
643.905,2527.7
644.068,2534.4
644.231,2510.45
644.394,2537.7
644.558,2514.15
644.721,2536.45
644.884,2503.65
645.047,2551.05
645.211,2517.0
645.374,2519.3
645.537,2539.6
645.7,2499.15
645.863,2525.8
646.027,2527.85
646.19,2520.75
646.353,2503.65
646.516,2526.5
646.679,2532.75
646.842,2519.6
647.005,2509.25
647.169,2545.05
647.332,2537.9
647.495,2521.7
647.658,2517.95
647.821,2502.1
647.984,2543.0
648.147,2517.15
648.31,2511.2
648.473,2488.9
648.636,2506.45
648.799,2522.6
648.962,2514.65
649.125,2514.1
649.288,2526.05
649.451,2519.7
649.614,2508.8
649.777,2486.8
649.94,2515.2
650.103,2487.8
650.266,2539.95
650.429,2507.6
650.592,2504.55
650.755,2509.55
650.918,2526.4
651.08,2527.8
651.243,2519.5
651.406,2506.55
651.569,2507.2
651.732,2508.15
651.895,2513.05
652.058,2519.0
652.22,2521.3
652.383,2526.45
652.546,2491.45
652.709,2500.95
652.872,2514.15
653.034,2508.65
653.197,2508.35
653.36,2497.6
653.523,2466.4
653.685,2487.3
653.848,2495.35
654.011,2490.8
654.173,2476.8
654.336,2485.85
654.499,2516.15
654.662,2474.9
654.824,2499.25
654.987,2466.45
655.149,2472.15
655.312,2467.6
655.475,2484.15
655.637,2465.95
655.8,2476.45
655.963,2469.2
656.125,2491.05
656.288,2444.4
656.45,2453.4
656.613,2447.35
656.775,2452.95
656.938,2448.5
657.1,2418.15
657.263,2421.75
657.425,2417.9
657.588,2441.3
657.75,2418.65
657.913,2407.2
658.075,2417.85
658.238,2410.55
658.4,2403.95
658.563,2375.55
658.725,2367.2
658.888,2393.45
659.05,2374.95
659.212,2369.45
659.375,2366.25
659.537,2372.5
659.7,2363.1
659.862,2361.35
660.024,2351.25
660.187,2338.5
660.349,2324.65
660.511,2347.95
660.674,2327.5
660.836,2310.8
660.998,2312.1
661.079,2306.75