File: spectra/VLFR_06-PET_bio_Raman_2e26d36c.csv
nm,Intensity
528.65,1845.0
528.819,1845.7
528.987,1846.75
529.155,1845.65
529.324,1844.75
529.492,1845.2
529.66,1847.0
529.829,1846.6
529.997,1845.5
530.165,1846.4
530.334,1847.75
530.502,1846.5
530.67,1847.65
530.839,1847.25
531.007,1849.3
531.175,1851.1
531.344,1854.4
531.512,1859.75
531.68,1900.7
531.848,2528.9
532.017,5626.25
532.185,4885.6
532.353,2152.45
532.521,1857.7
532.69,1853.4
532.858,1856.95
533.026,1859.95
533.194,1869.2
533.363,1908.0
533.531,2270.5
533.699,4478.6
533.867,8589.35
534.036,10477.7
534.204,10761.2
534.372,10055.3
534.54,8920.6
534.708,8354.35
534.877,7578.35
535.045,6860.4
535.213,6395.8
535.381,5790.05
535.549,5223.5
535.717,4797.3
535.886,4338.5
536.054,3922.15
536.222,3745.75
536.39,3632.0
536.558,3525.65
536.726,3422.1
536.894,3312.5
537.062,3261.85
537.231,3201.85
537.399,3198.7
537.567,3179.15
537.735,3142.35
537.903,3110.7
538.071,3130.2
538.239,3213.05
538.407,3192.45
538.575,3225.95
538.743,3187.85
538.911,3184.55
539.079,3233.35
539.247,3219.6
539.415,3294.1
539.583,3387.2
539.751,3429.45
539.919,3463.7
540.087,3372.65
540.255,3258.15
540.423,3161.65
540.591,3111.0
540.759,3062.8
540.927,3053.4
541.095,3004.35
541.263,2965.25
541.431,2969.3
541.599,2966.6
541.767,2978.9
541.935,2968.9
542.103,3002.2
542.271,3021.2
542.439,3029.8
542.607,3025.75
542.775,3012.8
542.943,3027.75
543.111,3023.95
543.279,3020.4
543.446,2999.45
543.614,3052.55
543.782,3094.0
543.95,3104.0
544.118,3057.8
544.286,3087.05
544.454,3047.6
544.622,3091.5
544.789,3113.4
544.957,3111.85
545.125,3116.8
545.293,3112.85
545.461,3078.85
545.629,3139.4
545.796,3128.8
545.964,3165.0
546.132,3138.85
546.3,3106.8
546.468,3166.15
546.635,3153.75
546.803,3176.15
546.971,3169.4
547.139,3161.8
547.306,3190.9
547.474,3210.9
547.642,3203.35
547.81,3202.1
547.977,3209.25
548.145,3244.35
548.313,3238.4
548.481,3228.2
548.648,3241.55
548.816,3251.45
548.984,3226.95
549.151,3223.2
549.319,3255.95
549.487,3255.25
549.655,3241.65
549.822,3269.05
549.99,3299.45
550.158,3320.9
550.325,3436.8
550.493,4090.55
550.66,4820.85
550.828,4107.2
550.996,3491.45
551.163,3396.8
551.331,3394.4
551.499,3403.7
551.666,3439.25
551.834,3378.0
552.001,3443.5
552.169,3475.55
552.337,3501.85
552.504,3496.4
552.672,3804.95
552.839,4033.4
553.007,3799.7
553.174,3598.1
553.342,3495.15
553.509,3533.65
553.677,3550.9
553.844,3535.9
554.012,3552.7
554.179,3494.15
554.347,3560.35
554.514,3556.25
554.682,3583.45
554.849,3652.65
555.017,3707.3
555.184,3740.75
555.352,3947.8
555.519,4200.95
555.687,4379.55
555.854,4270.2
556.022,4268.05
556.189,4432.15
556.357,4495.9
556.524,4459.7
556.691,4547.55
556.859,4512.95
557.026,4830.25
557.194,5166.95
557.361,5812.8
557.528,6382.1
557.696,6071.2
557.863,5259.45
558.031,4804.15
558.198,4802.5
558.365,4904.5
558.533,4806.2
558.7,4690.5
558.867,4429.9
559.035,4272.05
559.202,4214.35
559.369,4080.4
559.537,4010.65
559.704,4000.7
559.871,4050.3
560.038,4078.4
560.206,4016.65
560.373,4014.05
560.54,4050.25
560.708,4089.0
560.875,4123.45
561.042,4158.3
561.209,4157.5
561.377,4164.1
561.544,4253.75
561.711,4244.55
561.878,4323.65
562.045,4429.25
562.213,4445.35
562.38,4373.65
562.547,4501.75
562.714,4596.4
562.881,4560.85
563.049,4593.05
563.216,4584.75
563.383,4574.0
563.55,4572.1
563.717,4437.4
563.884,4406.3
564.052,4469.3
564.219,4441.4
564.386,4553.8
564.553,4650.35
564.72,4760.1
564.887,4975.75
565.054,5357.65
565.221,5500.8
565.388,5652.45
565.556,5800.75
565.723,6085.2
565.89,6094.5
566.057,5774.8
566.224,5388.3
566.391,5031.95
566.558,4804.65
566.725,4684.05
566.892,4711.85
567.059,4673.45
567.226,4688.2
567.393,4965.0
567.56,5449.65
567.727,5518.3
567.894,5271.8
568.061,4903.65
568.228,4757.4
568.395,4740.1
568.562,4775.75
568.729,4718.3
568.896,4674.75
569.063,4827.5
569.23,4751.75
569.396,4854.4
569.563,5019.6
569.73,5099.55
569.897,5146.95
570.064,5227.5
570.231,5474.35
570.398,5772.1
570.565,6333.6
570.732,6781.95
570.898,7221.4
571.065,7715.7
571.232,8260.55
571.399,8283.1
571.566,7689.55
571.733,7013.85
571.9,6587.7
572.066,6405.5
572.233,5851.7
572.4,5511.7
572.567,5413.35
572.734,5169.3
572.9,5166.65
573.067,5143.15
573.234,5042.25
573.401,5094.2
573.567,5093.25
573.734,5165.3
573.901,5328.45
574.068,5406.5
574.234,5366.95
574.401,5242.95
574.568,5224.85
574.734,5226.35
574.901,5343.6
575.068,5467.35
575.235,5671.2
575.401,5732.7
575.568,5572.3
575.735,5319.1
575.901,5383.5
576.068,5431.45
576.235,5696.25
576.401,5795.2
576.568,5767.0
576.734,5770.05
576.901,5785.05
577.068,5606.85
577.234,5552.85
577.401,5407.3
577.567,5284.8
577.734,5322.3
577.901,5342.75
578.067,5301.95
578.234,5345.65
578.4,5303.9
578.567,5368.75
578.733,5297.1
578.9,5378.2
579.066,5357.75
579.233,5409.25
579.399,5369.0
579.566,5490.6
579.732,5473.6
579.899,5487.5
580.065,5448.05
580.232,5641.2
580.398,5594.6
580.565,5606.45
580.731,5633.15
580.898,5881.7
581.064,5944.7
581.231,5915.25
581.397,6174.0
581.563,6916.65
581.73,8488.55
581.896,12146.3
582.063,17211.6
582.229,17630.1
582.395,11256.7
582.562,7313.45
582.728,6161.45
582.895,5928.05
583.061,5926.65
583.227,5840.55
583.394,5969.05
583.56,5817.2
583.726,5756.1
583.893,5820.5
584.059,5811.55
584.225,5933.4
584.391,5942.55
584.558,6041.6
584.724,6022.55
584.89,6227.35
585.057,6328.05
585.223,6859.35
585.389,8135.6
585.555,9869.8
585.722,11860.5
585.888,13582.1
586.054,13299.8
586.22,12059.0
586.386,10565.8
586.553,8880.25
586.719,7456.85
586.885,6861.85
587.051,6399.65
587.217,6318.1
587.384,6112.35
587.55,6157.25
587.716,6158.5
587.882,6040.8
588.048,6044.0
588.214,6070.4
588.38,6099.9
588.546,6186.1
588.713,6037.8
588.879,5962.95
589.045,6107.25
589.211,6031.5
589.377,6030.55
589.543,6065.35
589.709,6001.6
589.875,6126.7
590.041,6035.8
590.207,6056.65
590.373,5920.95
590.539,6119.6
590.705,5994.2
590.871,6088.4
591.037,6059.45
591.203,6228.8
591.369,6084.85
591.535,6154.5
591.701,6154.0
591.867,6095.25
592.033,6135.4
592.199,6096.35
592.365,6231.05
592.531,6177.2
592.697,6138.3
592.863,6104.4
593.029,6193.8
593.195,6288.75
593.361,6197.35
593.526,6148.7
593.692,6161.5
593.858,6197.1
594.024,6130.75
594.19,6257.35
594.356,6115.85
594.522,6294.3
594.687,6207.7
594.853,6232.0
595.019,6230.0
595.185,6257.65
595.351,6316.4
595.516,6303.65
595.682,6433.85
595.848,6308.3
596.014,6321.3
596.18,6280.95
596.345,6380.65
596.511,6361.75
596.677,6355.65
596.843,6385.75
597.008,6336.2
597.174,6358.65
597.34,6428.55
597.505,6331.05
597.671,6329.45
597.837,6334.65
598.002,6403.75
598.168,6377.25
598.334,6345.1
598.499,6333.85
598.665,6443.4
598.831,6502.45
598.996,6336.6
599.162,6418.45
599.328,6570.7
599.493,6389.25
599.659,6406.0
599.824,6495.7
599.99,6346.95
600.156,6405.65
600.321,6438.65
600.487,6411.8
600.652,6490.8
600.818,6462.9
600.983,6583.4
601.149,6406.05
601.314,6527.2
601.48,6512.9
601.645,6506.7
601.811,6379.6
601.976,6402.2
602.142,6559.05
602.307,6481.45
602.473,6421.55
602.638,6471.75
602.804,6558.25
602.969,6494.05
603.135,6505.8
603.3,6535.9
603.466,6550.7
603.631,6498.95
603.796,6450.65
603.962,6584.9
604.127,6513.3
604.293,6526.25
604.458,6533.2
604.623,6624.55
604.789,6453.15
604.954,6549.3
605.119,6543.9
605.285,6321.25
605.45,6401.55
605.615,6581.4
605.781,6543.35
605.946,6503.9
606.111,6501.85
606.277,6600.45
606.442,6430.5
606.607,6521.7
606.772,6614.4
606.938,6526.85
607.103,6538.75
607.268,6543.85
607.433,6453.55
607.599,6449.55
607.764,6614.75
607.929,6528.6
608.094,6537.75
608.259,6459.5
608.425,6564.1
608.59,6615.05
608.755,6416.6
608.92,6542.35
609.085,6424.55
609.25,6472.3
609.415,6511.6
609.581,6666.25
609.746,6507.0
609.911,6555.1
610.076,6561.35
610.241,6402.85
610.406,6544.65
610.571,6556.55
610.736,6474.85
610.901,6654.4
611.066,6550.3
611.231,6407.4
611.396,6578.7
611.561,6657.05
611.727,6470.5
611.892,6547.85
612.057,6497.7
612.222,6461.1
612.386,6646.0
612.551,6374.2
612.716,6387.1
612.881,6507.75
613.046,6584.6
613.211,6543.1
613.376,6455.95
613.541,6579.8
613.706,6698.5
613.871,6441.05
614.036,6583.3
614.201,6627.65
614.366,6520.45
614.531,6545.9
614.695,6534.4
614.86,6651.35
615.025,6611.95
615.19,6632.65
615.355,6517.6
615.52,6626.55
615.684,6676.55
615.849,6542.2
616.014,6585.65
616.179,6474.75
616.344,6646.9
616.508,6578.35
616.673,6535.0
616.838,6650.5
617.003,6638.35
617.168,6602.4
617.332,6572.05
617.497,6649.8
617.662,6628.1
617.826,6769.15
617.991,6714.0
618.156,6685.05
618.32,6738.45
618.485,6706.95
618.65,6786.3
618.814,6596.85
618.979,6696.7
619.144,6714.05
619.308,6611.95
619.473,6606.95
619.638,6647.5
619.802,6512.45
619.967,6635.1
620.131,6669.05
620.296,6556.1
620.461,6618.9
620.625,6621.2
620.79,6589.4
620.954,6558.1
621.119,6622.1
621.283,6753.05
621.448,6634.3
621.612,6550.2
621.777,6631.55
621.941,6478.5
622.106,6650.25
622.27,6625.3
622.435,6680.05
622.599,6622.25
622.764,6736.05
622.928,6686.2
623.093,6632.85
623.257,6767.3
623.422,6692.85
623.586,6724.55
623.75,6650.75
623.915,6664.2
624.079,6669.25
624.244,6912.9
624.408,6735.95
624.572,6878.5
624.737,6929.0
624.901,6858.35
625.065,6856.15
625.23,6841.0
625.394,6857.6
625.558,6783.8
625.723,6740.55
625.887,6886.0
626.051,6869.75
626.215,6727.3
626.38,6761.25
626.544,6679.25
626.708,6839.8
626.872,6765.6
627.037,6822.2
627.201,6765.35
627.365,6953.85
627.529,6948.0
627.693,6920.5
627.858,7001.65
628.022,6966.9
628.186,7042.05
628.35,7164.4
628.514,7246.6
628.678,7471.2
628.843,7360.3
629.007,7264.6
629.171,7360.3
629.335,7485.05
629.499,7493.65
629.663,7345.55
629.827,7327.1
629.991,7234.3
630.155,7291.15
630.319,7422.55
630.483,7228.45
630.647,7360.35
630.812,7669.95
630.976,8120.95
631.14,8477.45
631.304,9168.95
631.468,9559.2
631.632,9852.25
631.796,9758.25
631.959,9731.1
632.123,9419.3
632.287,8893.8
632.451,8844.35
632.615,8601.15
632.779,8426.15
632.943,8235.9
633.107,8517.7
633.271,8639.7
633.435,8291.45
633.599,8164.5
633.763,8246.7
633.926,7965.4
634.09,7835.9
634.254,7907.8
634.418,7706.4
634.582,7600.45
634.746,7574.25
634.909,7673.25
635.073,7658.05
635.237,7895.8
635.401,7702.95
635.564,7940.7
635.728,8365.7
635.892,8640.85
636.056,9036.3
636.219,9851.95
636.383,10556.6
636.547,10789.5
636.711,10326.5
636.874,9629.6
637.038,8898.3
637.202,8581.2
637.365,8219.35
637.529,8142.3
637.693,8110.85
637.856,7828.75
638.02,7820.15
638.184,7773.75
638.347,7750.05
638.511,7788.85
638.674,7762.5
638.838,7610.6
639.002,7671.95
639.165,7828.15
639.329,7733.45
639.492,7830.9
639.656,7844.3
639.819,7571.8
639.983,7648.7
640.146,7890.25
640.31,7848.5
640.473,7505.85
640.637,7526.45
640.8,7596.8
640.964,7737.15
641.127,7777.3
641.291,7584.75
641.454,7674.05
641.618,7874.55
641.781,7703.8
641.944,7890.3
642.108,7807.5
642.271,7984.9
642.435,7905.3
642.598,7925.55
642.761,7898.5
642.925,7834.25
643.088,7928.65
643.251,7719.8
643.415,7719.5
643.578,7716.6
643.741,8026.55
643.905,7906.8
644.068,7532.1
644.231,7774.8
644.394,7867.8
644.558,7878.7
644.721,7716.55
644.884,7847.55
645.047,7743.1
645.211,7863.4
645.374,7939.35
645.537,7926.55
645.7,7837.9
645.863,7673.9
646.027,7784.55
646.19,7959.5
646.353,7890.3
646.516,7874.65
646.679,7944.3
646.842,7906.15
647.005,7866.25
647.169,7789.85
647.332,7828.1
647.495,8023.0
647.658,7852.75
647.821,7748.65
647.984,7903.5
648.147,8025.1
648.31,7772.4
648.473,7657.1
648.636,7841.4
648.799,7650.4
648.962,7807.4
649.125,7617.8
649.288,8030.8
649.451,7692.75
649.614,7922.25
649.777,7781.3
649.94,7594.4
650.103,7800.4
650.266,7802.7
650.429,7767.1
650.592,7731.15
650.755,7791.65
650.918,7549.2
651.08,7869.3
651.243,8024.3
651.406,7788.8
651.569,7642.7
651.732,7729.8
651.895,7656.35
652.058,7651.1
652.22,7769.5
652.383,7756.6
652.546,7521.95
652.709,7826.55
652.872,7594.95
653.034,7534.4
653.197,7484.5
653.36,7586.25
653.523,7414.6
653.685,7203.85
653.848,7423.9
654.011,7627.65
654.173,7345.25
654.336,7466.95
654.499,7537.2
654.662,7591.7
654.824,7435.05
654.987,7419.5
655.149,7405.05
655.312,7351.25
655.475,7566.25
655.637,7302.55
655.8,7567.35
655.963,7329.0
656.125,7392.35
656.288,7414.7
656.45,7491.45
656.613,7388.45
656.775,7548.2
656.938,7215.9
657.1,7439.05
657.263,7318.75
657.425,7275.4
657.588,7159.45
657.75,7295.2
657.913,7187.85
658.075,7112.05
658.238,7138.35
658.4,7212.5
658.563,7084.1
658.725,7178.4
658.888,7006.95
659.05,6879.5
659.212,7000.25
659.375,7010.45
659.537,6967.6
659.7,7001.1
659.862,6965.0
660.024,6914.2
660.187,6842.4
660.349,6981.75
660.511,6814.15
660.674,6672.15
660.836,6894.25
660.998,6901.15
661.079,6945.95