File: spectra/VLFR_02-HDPE_bio_Raman_82584088.csv
nm,Intensity
528.65,1836.5
528.819,1834.65
528.987,1835.9
529.155,1836.05
529.324,1834.75
529.492,1835.35
529.66,1835.45
529.829,1835.95
529.997,1835.6
530.165,1836.55
530.334,1836.0
530.502,1836.0
530.67,1835.6
530.839,1836.15
531.007,1836.45
531.175,1838.15
531.344,1839.35
531.512,1843.25
531.68,1865.45
531.848,2226.85
532.017,3689.9
532.185,3953.05
532.353,2078.25
532.521,1841.5
532.69,1836.9
532.858,1836.95
533.026,1836.65
533.194,1839.95
533.363,1841.65
533.531,1864.9
533.699,2014.45
533.867,2326.8
534.036,2543.0
534.204,2658.4
534.372,2654.65
534.54,2669.65
534.708,2707.05
534.877,2719.6
535.045,2725.3
535.213,2738.75
535.381,2710.95
535.549,2691.85
535.717,2689.25
535.886,2634.7
536.054,2626.9
536.222,2635.3
536.39,2635.15
536.558,2651.4
536.726,2641.75
536.894,2662.5
537.062,2661.55
537.231,2663.5
537.399,2665.55
537.567,2688.1
537.735,2687.5
537.903,2694.65
538.071,2684.75
538.239,2677.95
538.407,2679.5
538.575,2664.75
538.743,2676.55
538.911,2681.45
539.079,2697.15
539.247,2677.85
539.415,2659.5
539.583,2665.5
539.751,2665.95
539.919,2663.65
540.087,2675.7
540.255,2660.65
540.423,2688.25
540.591,2700.5
540.759,2675.3
540.927,2690.55
541.095,2683.55
541.263,2678.4
541.431,2681.95
541.599,2711.9
541.767,2719.35
541.935,2746.1
542.103,2737.0
542.271,2733.85
542.439,2740.85
542.607,2765.4
542.775,2769.0
542.943,2792.9
543.111,2782.45
543.279,2795.7
543.446,2803.95
543.614,2814.6
543.782,2840.05
543.95,2852.85
544.118,2899.55
544.286,2955.45
544.454,2987.85
544.622,3018.45
544.789,3055.0
544.957,3023.95
545.125,3040.75
545.293,3105.1
545.461,3188.4
545.629,3285.35
545.796,3371.7
545.964,3498.55
546.132,3473.4
546.3,3362.2
546.468,3269.3
546.635,3171.7
546.803,3074.0
546.971,3012.7
547.139,3025.65
547.306,3002.05
547.474,2976.4
547.642,2987.7
547.81,3003.25
547.977,2990.55
548.145,3012.85
548.313,3024.6
548.481,3035.35
548.648,3016.5
548.816,3051.15
548.984,3037.35
549.151,3066.9
549.319,3096.55
549.487,3144.15
549.655,3170.6
549.822,3230.8
549.99,3259.15
550.158,3207.9
550.325,3256.35
550.493,3343.0
550.66,3494.25
550.828,3522.8
550.996,3416.4
551.163,3334.25
551.331,3281.85
551.499,3300.55
551.666,3286.6
551.834,3243.0
552.001,3219.65
552.169,3193.3
552.337,3159.2
552.504,3184.6
552.672,3140.05
552.839,3173.8
553.007,3187.55
553.174,3250.0
553.342,3191.6
553.509,3194.9
553.677,3219.55
553.844,3225.05
554.012,3210.95
554.179,3245.5
554.347,3255.95
554.514,3260.25
554.682,3285.9
554.849,3299.65
555.017,3266.7
555.184,3265.0
555.352,3311.05
555.519,3315.45
555.687,3311.9
555.854,3315.6
556.022,3353.15
556.189,3324.25
556.357,3342.8
556.524,3327.05
556.691,3343.25
556.859,3379.9
557.026,3368.75
557.194,3372.6
557.361,3388.3
557.528,3395.55
557.696,3406.35
557.863,3388.6
558.031,3444.55
558.198,3440.7
558.365,3449.45
558.533,3447.7
558.7,3448.8
558.867,3476.9
559.035,3463.7
559.202,3486.35
559.369,3515.65
559.537,3523.25
559.704,3535.75
559.871,3537.05
560.038,3512.05
560.206,3551.7
560.373,3538.3
560.54,3580.25
560.708,3549.85
560.875,3600.3
561.042,3625.35
561.209,3663.15
561.377,3726.2
561.544,3877.8
561.711,4212.75
561.878,4803.95
562.045,5898.1
562.213,7071.15
562.38,7928.75
562.547,7214.85
562.714,5500.3
562.881,4286.25
563.049,3903.3
563.216,3798.5
563.383,3785.0
563.55,3828.55
563.717,3908.15
563.884,4195.75
564.052,4373.05
564.219,4168.65
564.386,4003.05
564.553,3981.4
564.72,3996.8
564.887,3935.6
565.054,3980.4
565.221,3953.65
565.388,4004.5
565.556,4063.7
565.723,4080.85
565.89,4245.4
566.057,4533.2
566.224,4725.95
566.391,4368.8
566.558,4175.35
566.725,4131.35
566.892,4136.5
567.059,4053.15
567.226,4090.8
567.393,4133.5
567.56,4123.2
567.727,4001.55
567.894,4012.55
568.061,4006.8
568.228,3998.5
568.395,4015.05
568.562,4050.55
568.729,4024.1
568.896,4042.4
569.063,4058.55
569.23,4036.5
569.396,4039.2
569.563,4032.4
569.73,4040.1
569.897,4023.9
570.064,4053.75
570.231,4033.35
570.398,4068.25
570.565,4103.45
570.732,4096.7
570.898,4171.55
571.065,4212.0
571.232,4255.6
571.399,4719.35
571.566,5077.9
571.733,4645.5
571.9,4318.05
572.066,4237.55
572.233,4208.55
572.4,4205.75
572.567,4197.1
572.734,4211.8
572.9,4169.05
573.067,4177.7
573.234,4209.25
573.401,4182.4
573.567,4180.3
573.734,4211.55
573.901,4248.6
574.068,4220.15
574.234,4214.7
574.401,4211.15
574.568,4236.8
574.734,4208.4
574.901,4221.75
575.068,4287.35
575.235,4375.2
575.401,4545.75
575.568,4648.05
575.735,4591.3
575.901,4565.85
576.068,4766.3
576.235,4970.2
576.401,4981.4
576.568,4835.0
576.734,4711.45
576.901,4789.5
577.068,4758.4
577.234,4671.75
577.401,4569.4
577.567,4499.6
577.734,4452.15
577.901,4445.25
578.067,4399.0
578.234,4437.8
578.4,4421.65
578.567,4396.6
578.733,4459.35
578.9,4474.5
579.066,4471.1
579.233,4453.6
579.399,4479.85
579.566,4539.9
579.732,4481.1
579.899,4488.95
580.065,4491.9
580.232,4567.75
580.398,4580.5
580.565,4550.7
580.731,4557.5
580.898,4566.5
581.064,4579.65
581.231,4582.55
581.397,4671.7
581.563,4576.85
581.73,4629.1
581.896,4598.3
582.063,4584.5
582.229,4642.95
582.395,4673.05
582.562,4599.15
582.728,4623.15
582.895,4650.05
583.061,4706.75
583.227,4685.45
583.394,4731.7
583.56,4670.55
583.726,4651.05
583.893,4725.85
584.059,4731.05
584.225,4715.15
584.391,4713.35
584.558,4689.35
584.724,4735.65
584.89,4747.85
585.057,4694.95
585.223,4764.25
585.389,4744.1
585.555,4719.95
585.722,4786.8
585.888,4745.25
586.054,4821.65
586.22,4844.85
586.386,4789.25
586.553,4793.15
586.719,4833.6
586.885,4807.6
587.051,4864.45
587.217,4915.85
587.384,4872.9
587.55,4886.0
587.716,4944.95
587.882,4913.35
588.048,5010.65
588.214,4972.35
588.38,5008.5
588.546,4968.2
588.713,4967.35
588.879,4982.35
589.045,4924.05
589.211,4945.1
589.377,5012.65
589.543,5048.5
589.709,5017.15
589.875,5034.55
590.041,5010.15
590.207,5117.7
590.373,5089.6
590.539,5058.95
590.705,5162.35
590.871,5070.55
591.037,5177.55
591.203,5174.95
591.369,5172.5
591.535,5142.0
591.701,5151.65
591.867,5186.9
592.033,5275.45
592.199,5279.55
592.365,5226.4
592.531,5296.55
592.697,5245.9
592.863,5263.85
593.029,5351.7
593.195,5290.7
593.361,5262.0
593.526,5292.7
593.692,5247.25
593.858,5316.75
594.024,5319.2
594.19,5377.65
594.356,5325.55
594.522,5319.35
594.687,5402.95
594.853,5439.0
595.019,5376.9
595.185,5316.4
595.351,5388.7
595.516,5490.2
595.682,5441.1
595.848,5398.55
596.014,5515.35
596.18,5496.35
596.345,5514.05
596.511,5456.15
596.677,5501.35
596.843,5523.6
597.008,5522.75
597.174,5509.7
597.34,5553.15
597.505,5443.4
597.671,5569.95
597.837,5551.8
598.002,5551.3
598.168,5507.6
598.334,5474.7
598.499,5580.6
598.665,5534.8
598.831,5587.95
598.996,5556.0
599.162,5516.85
599.328,5592.1
599.493,5668.25
599.659,5503.65
599.824,5610.5
599.99,5659.4
600.156,5622.8
600.321,5635.75
600.487,5620.1
600.652,5619.25
600.818,5537.5
600.983,5562.1
601.149,5646.5
601.314,5638.65
601.48,5639.9
601.645,5549.7
601.811,5620.25
601.976,5640.4
602.142,5618.0
602.307,5604.15
602.473,5582.35
602.638,5643.55
602.804,5652.05
602.969,5563.15
603.135,5599.85
603.3,5582.4
603.466,5536.65
603.631,5555.8
603.796,5544.7
603.962,5557.3
604.127,5525.65
604.293,5479.75
604.458,5520.65
604.623,5524.7
604.789,5471.1
604.954,5500.45
605.119,5498.2
605.285,5433.25
605.45,5402.5
605.615,5458.75
605.781,5479.0
605.946,5412.45
606.111,5456.25
606.277,5375.7
606.442,5408.25
606.607,5362.9
606.772,5384.35
606.938,5371.05
607.103,5430.55
607.268,5367.2
607.433,5348.2
607.599,5339.85
607.764,5244.55
607.929,5319.2
608.094,5283.3
608.259,5285.25
608.425,5393.05
608.59,5279.6
608.755,5306.3
608.92,5166.85
609.085,5280.35
609.25,5302.2
609.415,5251.9
609.581,5301.5
609.746,5248.05
609.911,5288.4
610.076,5109.85
610.241,5283.7
610.406,5227.4
610.571,5290.3
610.736,5264.75
610.901,5221.55
611.066,5215.65
611.231,5240.25
611.396,5232.4
611.561,5238.2
611.727,5162.15
611.892,5113.2
612.057,5166.85
612.222,5146.3
612.386,5172.55
612.551,5160.8
612.716,5114.75
612.881,5158.55
613.046,5124.1
613.211,5099.1
613.376,5160.9
613.541,5072.75
613.706,5119.0
613.871,5116.45
614.036,5100.9
614.201,5065.65
614.366,5113.5
614.531,5143.8
614.695,5080.15
614.86,5038.85
615.025,5110.15
615.19,5130.1
615.355,5030.55
615.52,5108.6
615.684,5068.55
615.849,5120.85
616.014,5064.35
616.179,5059.4
616.344,5065.25
616.508,4993.55
616.673,5048.25
616.838,5043.05
617.003,5046.15
617.168,5093.1
617.332,5057.55
617.497,5139.45
617.662,5025.75
617.826,5054.8
617.991,5069.95
618.156,5056.3
618.32,5019.3
618.485,5077.7
618.65,5016.1
618.814,5039.75
618.979,5024.95
619.144,5075.05
619.308,5016.35
619.473,5078.95
619.638,5100.9
619.802,5023.65
619.967,5036.25
620.131,5021.0
620.296,5031.85
620.461,5034.3
620.625,5014.95
620.79,4994.7
620.954,4987.95
621.119,5108.5
621.283,5091.55
621.448,5073.3
621.612,5113.4
621.777,5215.2
621.941,5236.35
622.106,5275.2
622.27,5377.4
622.435,5226.15
622.599,5220.35
622.764,5079.4
622.928,5032.5
623.093,5010.55
623.257,5049.25
623.422,4882.85
623.586,4942.15
623.75,4943.55
623.915,4930.25
624.079,4969.2
624.244,4976.25
624.408,4968.15
624.572,4835.85
624.737,4896.35
624.901,4956.15
625.065,4917.3
625.23,4977.25
625.394,4971.9
625.558,4929.15
625.723,4949.4
625.887,4935.85
626.051,5021.0
626.215,5199.4
626.38,5281.8
626.544,5600.75
626.708,6474.55
626.872,7696.85
627.037,9131.2
627.201,9741.35
627.365,9598.55
627.529,8668.55
627.693,8068.0
627.858,7579.0
628.022,7561.95
628.186,8104.15
628.35,9324.75
628.514,10252.3
628.678,9594.2
628.843,7945.1
629.007,7405.35
629.171,7242.65
629.335,6937.35
629.499,6864.3
629.663,6471.0
629.827,6340.5
629.991,6176.9
630.155,6082.8
630.319,6034.85
630.483,6014.75
630.647,5830.0
630.812,5594.1
630.976,5375.1
631.14,5141.0
631.304,5067.95
631.468,4911.3
631.632,4838.55
631.796,4756.7
631.959,4687.85
632.123,4737.7
632.287,4709.05
632.451,4805.05
632.615,4789.15
632.779,4706.5
632.943,4738.5
633.107,4615.75
633.271,4723.2
633.435,4729.1
633.599,4640.5
633.763,4629.1
633.926,4678.65
634.09,4660.3
634.254,4622.9
634.418,4609.9
634.582,4667.65
634.746,4588.2
634.909,4581.95
635.073,4577.55
635.237,4588.8
635.401,4530.6
635.564,4560.95
635.728,4506.35
635.892,4552.6
636.056,4512.7
636.219,4555.35
636.383,4453.8
636.547,4476.0
636.711,4554.15
636.874,4501.25
637.038,4512.55
637.202,4449.6
637.365,4400.9
637.529,4421.15
637.693,4403.65
637.856,4469.55
638.02,4540.9
638.184,4462.25
638.347,4444.75
638.511,4426.8
638.674,4443.8
638.838,4397.25
639.002,4461.9
639.165,4420.55
639.329,4408.7
639.492,4432.2
639.656,4311.7
639.819,4383.45
639.983,4396.1
640.146,4429.4
640.31,4332.3
640.473,4379.35
640.637,4339.8
640.8,4332.1
640.964,4313.05
641.127,4339.05
641.291,4337.7
641.454,4374.45
641.618,4341.8
641.781,4292.0
641.944,4358.5
642.108,4312.55
642.271,4287.3
642.435,4292.35
642.598,4363.95
642.761,4283.45
642.925,4315.65
643.088,4283.6
643.251,4226.6
643.415,4227.7
643.578,4265.0
643.741,4302.7
643.905,4328.75
644.068,4270.1
644.231,4233.35
644.394,4234.0
644.558,4243.45
644.721,4241.8
644.884,4210.5
645.047,4246.8
645.211,4266.05
645.374,4240.25
645.537,4249.5
645.7,4239.05
645.863,4252.45
646.027,4152.8
646.19,4194.8
646.353,4267.65
646.516,4142.5
646.679,4153.9
646.842,4172.6
647.005,4157.35
647.169,4133.75
647.332,4156.1
647.495,4141.3
647.658,4139.65
647.821,4095.0
647.984,4160.55
648.147,4190.75
648.31,4195.15
648.473,4075.35
648.636,4039.6
648.799,4124.95
648.962,4023.8
649.125,4089.3
649.288,4070.05
649.451,4080.7
649.614,4055.9
649.777,4105.9
649.94,4053.35
650.103,4037.1
650.266,4004.8
650.429,3986.4
650.592,4097.1
650.755,4025.95
650.918,4021.95
651.08,4012.15
651.243,4017.8
651.406,4048.6
651.569,4015.35
651.732,3941.55
651.895,3972.15
652.058,4019.45
652.22,3985.15
652.383,3962.6
652.546,3943.15
652.709,3890.9
652.872,3959.2
653.034,3954.55
653.197,3904.2
653.36,3894.35
653.523,3874.8
653.685,3817.8
653.848,3848.35
654.011,3814.6
654.173,3823.05
654.336,3861.35
654.499,3875.7
654.662,3713.8
654.824,3761.1
654.987,3757.7
655.149,3780.95
655.312,3800.0
655.475,3822.0
655.637,3751.0
655.8,3785.15
655.963,3798.9
656.125,3663.6
656.288,3707.9
656.45,3687.65
656.613,3684.2
656.775,3708.1
656.938,3611.0
657.1,3674.55
657.263,3653.3
657.425,3651.75
657.588,3678.65
657.75,3620.55
657.913,3622.25
658.075,3588.25
658.238,3529.65
658.4,3523.9
658.563,3561.75
658.725,3508.25
658.888,3502.75
659.05,3500.55
659.212,3478.35
659.375,3419.05
659.537,3421.3
659.7,3442.9
659.862,3494.4
660.024,3477.4
660.187,3435.15
660.349,3408.8
660.511,3430.8
660.674,3405.8
660.836,3379.75
660.998,3388.65
661.079,3354.5