File: spectra/VLFR_09-PET_bio_Raman_3a16bb78.csv
nm,Intensity
526.547,831.9
526.684,832.2
526.821,833.55
526.958,833.15
527.095,832.3
527.232,832.6
527.368,833.2
527.505,833.45
527.642,833.0
527.779,833.2
527.916,832.1
528.052,832.6
528.189,833.4
528.326,833.55
528.463,832.45
528.599,832.65
528.736,832.3
528.873,832.4
529.009,832.6
529.146,832.95
529.283,831.95
529.419,833.8
529.556,831.85
529.693,833.0
529.829,832.6
529.966,833.5
530.103,832.95
530.239,833.0
530.376,832.85
530.512,832.7
530.649,832.25
530.785,833.5
530.922,833.3
531.059,832.6
531.195,833.95
531.332,832.5
531.468,832.25
531.605,833.8
531.741,832.8
531.878,832.8
532.014,835.7
532.151,852.85
532.287,847.65
532.423,835.5
532.56,832.1
532.696,832.3
532.833,833.4
532.969,832.25
533.106,832.85
533.242,832.75
533.378,832.65
533.515,836.5
533.651,855.75
533.787,1012.25
533.924,1583.15
534.06,2204.3
534.196,2397.95
534.333,2351.5
534.469,2263.3
534.605,2206.75
534.742,2155.9
534.878,2085.25
535.014,2004.95
535.15,1937.15
535.287,1905.2
535.423,1874.4
535.559,1848.25
535.695,1812.2
535.832,1786.6
535.968,1756.15
536.104,1736.95
536.24,1712.55
536.376,1693.8
536.513,1684.2
536.649,1672.95
536.785,1679.55
536.921,1669.9
537.057,1652.9
537.193,1661.8
537.329,1657.05
537.465,1656.9
537.602,1651.6
537.738,1659.15
537.874,1658.25
538.01,1659.5
538.146,1665.55
538.282,1675.3
538.418,1666.3
538.554,1665.75
538.69,1673.15
538.826,1680.0
538.962,1672.6
539.098,1672.1
539.234,1688.25
539.37,1695.65
539.506,1693.5
539.642,1704.0
539.778,1720.35
539.914,1726.15
540.05,1737.55
540.186,1733.5
540.322,1738.6
540.458,1718.15
540.594,1715.45
540.729,1704.4
540.865,1713.65
541.001,1713.35
541.137,1711.25
541.273,1713.95
541.409,1711.6
541.545,1718.2
541.68,1710.5
541.816,1717.95
541.952,1729.45
542.088,1730.0
542.224,1730.05
542.36,1735.35
542.495,1727.55
542.631,1741.75
542.767,1742.15
542.903,1746.95
543.038,1750.5
543.174,1745.3
543.31,1761.75
543.446,1764.1
543.581,1760.0
543.717,1764.8
543.853,1780.1
543.988,1776.6
544.124,1780.55
544.26,1763.85
544.395,1776.55
544.531,1780.05
544.667,1793.35
544.802,1788.8
544.938,1801.45
545.074,1801.95
545.209,1802.1
545.345,1808.4
545.481,1814.05
545.616,1808.3
545.752,1820.05
545.887,1819.55
546.023,1819.2
546.158,1825.5
546.294,1819.8
546.43,1826.05
546.565,1830.15
546.701,1835.65
546.836,1845.0
546.972,1843.85
547.107,1844.75
547.243,1847.25
547.378,1850.05
547.514,1848.3
547.649,1845.85
547.785,1853.2
547.92,1843.95
548.056,1865.3
548.191,1862.7
548.326,1864.1
548.462,1866.9
548.597,1867.75
548.733,1877.85
548.868,1889.7
549.004,1884.65
549.139,1890.9
549.274,1895.9
549.41,1887.75
549.545,1890.65
549.68,1899.75
549.816,1899.35
549.951,1894.1
550.086,1902.35
550.222,1911.9
550.357,1907.15
550.492,1951.65
550.628,2108.6
550.763,2184.0
550.898,2004.95
551.034,1931.4
551.169,1929.8
551.304,1942.25
551.439,1937.45
551.575,1935.9
551.71,1942.25
551.845,1948.65
551.98,1945.95
552.116,1962.75
552.251,1962.7
552.386,1952.05
552.521,1954.35
552.656,1979.15
552.792,2019.8
552.927,2036.3
553.062,2008.4
553.197,1978.7
553.332,1967.85
553.467,1983.1
553.603,1981.85
553.738,1997.75
553.873,1997.65
554.008,1998.75
554.143,1994.95
554.278,1998.95
554.413,2003.3
554.548,2010.2
554.683,2010.85
554.819,2023.45
554.954,2016.25
555.089,2018.7
555.224,2034.35
555.359,2032.6
555.494,2062.55
555.629,2075.8
555.764,2095.85
555.899,2074.95
556.034,2070.75
556.169,2074.25
556.304,2089.1
556.439,2098.3
556.574,2101.7
556.709,2106.35
556.844,2121.45
556.979,2131.7
557.114,2138.55
557.249,2188.55
557.384,2259.55
557.519,2375.4
557.653,2482.9
557.788,2407.85
557.923,2251.9
558.058,2172.5
558.193,2150.95
558.328,2163.95
558.463,2138.0
558.598,2137.6
558.733,2132.85
558.867,2130.9
559.002,2120.8
559.137,2122.45
559.272,2120.05
559.407,2114.15
559.542,2118.75
559.677,2117.5
559.811,2129.15
559.946,2132.65
560.081,2135.0
560.216,2139.1
560.351,2146.75
560.485,2152.6
560.62,2157.5
560.755,2153.5
560.89,2153.95
561.024,2157.25
561.159,2162.15
561.294,2176.7
561.429,2181.35
561.563,2186.05
561.698,2204.65
561.833,2213.95
561.967,2230.05
562.102,2258.0
562.237,2254.9
562.371,2248.9
562.506,2235.7
562.641,2224.65
562.775,2225.5
562.91,2232.85
563.045,2241.4
563.179,2245.3
563.314,2255.2
563.449,2247.4
563.583,2255.75
563.718,2265.35
563.853,2268.4
563.987,2274.2
564.122,2275.8
564.256,2288.1
564.391,2298.1
564.525,2316.5
564.66,2339.55
564.795,2369.35
564.929,2426.55
565.064,2491.0
565.198,2513.85
565.333,2464.5
565.467,2445.8
565.602,2451.55
565.736,2463.7
565.871,2488.6
566.005,2474.95
566.14,2428.7
566.274,2389.45
566.409,2377.65
566.543,2345.9
566.678,2341.1
566.812,2336.1
566.947,2325.15
567.081,2331.8
567.216,2340.4
567.35,2331.0
567.484,2368.5
567.619,2399.6
567.753,2423.3
567.888,2421.95
568.022,2398.7
568.156,2394.95
568.291,2379.65
568.425,2379.4
568.56,2377.05
568.694,2373.5
568.828,2387.35
568.963,2387.85
569.097,2393.45
569.231,2404.55
569.366,2406.25
569.5,2416.0
569.634,2419.6
569.769,2441.45
569.903,2443.5
570.037,2456.2
570.172,2465.65
570.306,2465.6
570.44,2503.4
570.575,2540.4
570.709,2582.8
570.843,2640.45
570.977,2727.65
571.112,2820.25
571.246,2911.2
571.38,2971.0
571.514,2945.55
571.649,2850.15
571.783,2723.25
571.917,2683.9
572.051,2643.6
572.185,2611.75
572.32,2568.7
572.454,2537.3
572.588,2522.15
572.722,2511.55
572.856,2510.1
572.991,2511.45
573.125,2494.8
573.259,2517.15
573.393,2515.0
573.527,2522.2
573.661,2529.5
573.795,2530.0
573.93,2542.6
574.064,2554.4
574.198,2561.1
574.332,2558.5
574.466,2552.85
574.6,2548.6
574.734,2556.9
574.868,2569.75
575.002,2562.05
575.136,2577.3
575.271,2619.1
575.405,2649.15
575.539,2665.0
575.673,2648.5
575.807,2624.15
575.941,2602.0
576.075,2592.25
576.209,2601.8
576.343,2608.1
576.477,2629.25
576.611,2642.95
576.745,2650.5
576.879,2661.05
577.013,2649.4
577.147,2643.95
577.281,2657.2
577.415,2646.15
577.549,2624.45
577.683,2635.55
577.817,2618.75
577.951,2623.3
578.085,2629.4
578.218,2619.0
578.352,2645.2
578.486,2643.3
578.62,2643.0
578.754,2657.7
578.888,2640.9
579.022,2656.5
579.156,2638.4
579.29,2647.75
579.424,2666.85
579.557,2660.15
579.691,2657.4
579.825,2670.25
579.959,2668.8
580.093,2665.3
580.227,2680.55
580.361,2686.5
580.494,2691.1
580.628,2691.7
580.762,2699.6
580.896,2715.75
581.03,2728.15
581.164,2722.5
581.297,2731.05
581.431,2756.55
581.565,2801.6
581.699,2913.05
581.832,3132.15
581.966,3587.7
582.1,4411.8
582.234,4890.1
582.368,4153.9
582.501,3266.7
582.635,2935.35
582.769,2846.5
582.903,2801.9
583.036,2780.15
583.17,2779.3
583.304,2770.9
583.437,2774.7
583.571,2778.6
583.705,2782.9
583.838,2770.4
583.972,2785.05
584.106,2773.85
584.24,2775.2
584.373,2799.2
584.507,2795.4
584.641,2802.95
584.774,2801.55
584.908,2804.75
585.041,2829.6
585.175,2843.5
585.309,2872.9
585.442,2948.1
585.576,3107.95
585.71,3310.9
585.843,3580.5
585.977,3814.65
586.11,3878.35
586.244,3698.6
586.378,3494.9
586.511,3326.85
586.645,3152.65
586.778,3018.25
586.912,2951.95
587.045,2924.5
587.179,2892.75
587.313,2883.6
587.446,2893.05
587.58,2878.85
587.713,2868.4
587.847,2867.7
587.98,2861.9
588.114,2854.8
588.247,2862.75
588.381,2855.1
588.514,2849.9
588.648,2857.1
588.781,2849.35
588.915,2865.1
589.048,2848.45
589.182,2849.35
589.315,2847.5
589.449,2859.25
589.582,2830.5
589.715,2847.55
589.849,2852.6
589.982,2855.45
590.116,2843.9
590.249,2856.7
590.383,2859.1
590.516,2853.35
590.649,2851.0
590.783,2883.55
590.916,2874.25
591.05,2886.75
591.183,2886.6
591.316,2892.55
591.45,2888.85
591.583,2894.5
591.717,2891.6
591.85,2881.05
591.983,2887.0
592.117,2892.25
592.25,2888.0
592.383,2898.85
592.517,2889.5
592.65,2889.5
592.783,2892.6
592.917,2882.65
593.05,2884.15
593.183,2886.0
593.317,2895.45
593.45,2888.75
593.583,2883.25
593.717,2885.95
593.85,2888.45
593.983,2904.75
594.116,2910.35
594.25,2899.75
594.383,2899.45
594.516,2901.95
594.649,2921.9
594.783,2924.9
594.916,2934.05
595.049,2930.0
595.182,2945.45
595.316,2946.5
595.449,2942.85
595.582,2943.4
595.715,2955.6
595.849,2958.2
595.982,2947.75
596.115,2960.75
596.248,2953.55
596.381,2959.25
596.514,2963.2
596.648,2963.25
596.781,2955.85
596.914,2979.6
597.047,2971.65
597.18,2983.35
597.313,2972.0
597.447,2987.85
597.58,2991.4
597.713,2988.45
597.846,2997.45
597.979,3012.05
598.112,3011.7
598.245,3017.95
598.379,3022.3
598.512,3008.7
598.645,3037.75
598.778,3025.5
598.911,3039.2
599.044,3042.45
599.177,3042.9
599.31,3048.25
599.443,3049.25
599.576,3047.45
599.709,3051.15
599.842,3040.75
599.975,3040.75
600.109,3048.15
600.242,3040.85
600.375,3039.25
600.508,3043.9
600.641,3036.7
600.774,3040.5
600.907,3033.95
601.04,3046.55
601.173,3029.7
601.306,3048.75
601.439,3040.4
601.572,3047.2
601.705,3055.7
601.838,3040.95
601.971,3049.95
602.104,3059.8
602.237,3064.0
602.37,3054.9
602.503,3072.35
602.636,3073.45
602.768,3080.2
602.901,3087.7
603.034,3096.85
603.167,3098.45
603.3,3086.5
603.433,3103.65
603.566,3110.15
603.699,3116.8
603.832,3111.2
603.965,3122.55
604.098,3104.35
604.231,3118.5
604.364,3114.05
604.496,3118.1
604.629,3107.7
604.762,3101.85
604.895,3117.1
605.028,3120.75
605.161,3101.7
605.294,3087.5
605.427,3086.4
605.559,3090.25
605.692,3090.85
605.825,3089.65
605.958,3087.35
606.091,3087.75
606.224,3096.5
606.356,3100.9
606.489,3092.85
606.622,3096.4
606.755,3088.55
606.888,3099.75
607.02,3119.0
607.153,3122.2
607.286,3132.8
607.419,3155.55
607.552,3145.85
607.684,3156.65
607.817,3151.35
607.95,3161.65
608.083,3169.75
608.215,3175.3
608.348,3200.4
608.481,3199.5
608.614,3200.85
608.746,3202.75
608.879,3217.55
609.012,3218.75
609.145,3222.6
609.277,3229.95
609.41,3228.45
609.543,3228.45
609.675,3238.35
609.808,3236.2
609.941,3236.1
610.074,3245.3
610.206,3253.95
610.339,3240.25
610.472,3257.7
610.604,3252.2
610.737,3260.05
610.87,3251.7
611.002,3258.25
611.135,3267.6
611.268,3269.6
611.4,3288.4
611.533,3291.35
611.666,3293.05
611.798,3313.95
611.931,3329.6
612.063,3342.55
612.196,3356.5
612.329,3373.25
612.461,3372.3
612.594,3383.35
612.727,3393.15
612.859,3404.25
612.992,3420.55
613.124,3438.7
613.257,3442.95
613.39,3450.6
613.522,3459.1
613.655,3470.4
613.787,3485.3
613.92,3485.05
614.052,3481.85
614.185,3505.5
614.317,3508.1
614.45,3517.95
614.583,3521.55
614.715,3502.05
614.848,3526.75
614.98,3529.55
615.113,3532.95
615.245,3533.45
615.378,3542.3
615.51,3549.55
615.643,3543.0
615.775,3542.35
615.908,3553.65
616.04,3565.95
616.173,3576.25
616.305,3564.6
616.438,3589.0
616.57,3600.8
616.703,3607.75
616.835,3617.75
616.968,3622.3
617.1,3635.15
617.233,3645.25
617.365,3667.0
617.498,3649.15
617.63,3676.15
617.762,3684.4
617.895,3697.6
618.027,3707.6
618.16,3714.65
618.292,3722.25
618.425,3720.7
618.557,3741.3
618.689,3750.7
618.822,3762.65
618.954,3752.35
619.087,3743.25
619.219,3751.75
619.351,3756.95
619.484,3753.4
619.616,3768.75
619.749,3785.65
619.881,3793.1
620.013,3789.75
620.146,3783.4
620.278,3795.9
620.41,3793.95
620.543,3808.95
620.675,3812.0
620.808,3826.6
620.94,3825.4
621.072,3833.35
621.205,3838.85
621.337,3849.0
621.469,3856.05
621.602,3871.25
621.734,3875.85
621.866,3887.25
621.998,3893.4
622.131,3894.8
622.263,3913.2
622.395,3927.65
622.528,3952.35
622.66,3958.1
622.792,3962.5
622.925,3980.4
623.057,3992.35
623.189,3993.0
623.321,4017.6
623.454,4024.35
623.586,4026.6
623.718,4042.25
623.85,4046.5
623.983,4056.8
624.115,4065.0
624.247,4083.05
624.379,4067.4
624.512,4106.1
624.644,4100.6
624.776,4109.95
624.908,4117.55
625.041,4123.55
625.173,4128.45
625.305,4122.45
625.437,4145.35
625.569,4160.8
625.702,4161.75
625.834,4158.35
625.966,4182.45
626.098,4203.75
626.23,4182.4
626.363,4181.75
626.495,4193.6
626.627,4214.65
626.759,4202.05
626.891,4219.65
627.024,4210.3
627.156,4207.45
627.288,4244.0
627.42,4234.25
627.552,4241.85
627.684,4255.2
627.816,4248.7
627.949,4261.65
628.081,4277.6
628.213,4285.2
628.345,4313.0
628.477,4319.3
628.609,4323.65
628.741,4330.1
628.874,4365.15
629.006,4389.0
629.138,4390.2
629.27,4405.6
629.402,4403.6
629.534,4450.05
629.666,4426.45
629.798,4440.45
629.93,4444.1
630.062,4456.5
630.195,4444.5
630.327,4468.5
630.459,4475.6
630.591,4485.45
630.723,4490.95
630.855,4506.65
630.987,4534.25
631.119,4537.95
631.251,4581.1
631.383,4602.05
631.515,4641.55
631.647,4674.35
631.779,4685.65
631.911,4707.3
632.043,4721.75
632.175,4720.05
632.307,4675.15
632.439,4675.4
632.571,4656.7
632.703,4654.3
632.835,4656.6
632.967,4646.75
633.099,4638.45
633.231,4673.9
633.363,4680.7
633.495,4669.0
633.627,4666.65
633.759,4651.45
633.891,4649.2
634.023,4661.55
634.155,4662.05
634.287,4651.45
634.419,4663.85
634.551,4669.6
634.683,4662.6
634.815,4674.25
634.947,4674.25
635.079,4687.4
635.211,4703.1
635.343,4724.6
635.475,4738.0
635.607,4775.85
635.739,4793.5
635.871,4833.9
636.003,4865.85
636.135,4925.25
636.267,4951.3
636.398,5014.8
636.53,5071.75
636.662,5083.7
636.794,5058.1
636.926,4976.7
637.058,4928.7
637.19,4866.45
637.322,4866.45
637.454,4871.15
637.586,4879.6
637.717,4858.75
637.849,4858.25
637.981,4850.5
638.113,4869.65
638.245,4863.45
638.377,4872.25
638.509,4870.6
638.641,4871.35
638.773,4891.6
638.904,4901.3
639.036,4895.8
639.168,4905.15
639.3,4897.0
639.432,4918.75
639.564,4916.5
639.695,4911.6
639.827,4937.9
639.959,4930.45
640.091,4949.2
640.223,4952.1
640.355,4956.95
640.486,4959.25
640.618,4972.05
640.75,4979.35
640.882,4978.8
641.014,4983.95
641.146,5012.7
641.277,4989.45
641.409,5011.85
641.541,5020.6
641.673,5028.75
641.805,5024.2
641.936,5009.6
642.068,5044.75
642.2,5040.85
642.332,5054.2
642.464,5051.95
642.595,5056.1
642.727,5054.05
642.859,5046.3
642.991,5026.95
643.122,5040.75
643.254,5024.4
643.386,5030.85
643.518,5014.8
643.649,5004.95
643.781,5017.75
643.913,5022.1
644.045,5017.75
644.176,4991.3
644.308,5005.35
644.44,5010.6
644.572,5029.05
644.703,5009.9
644.835,5021.5
644.967,5021.1
645.099,5021.6
645.23,5020.4
645.362,5027.3
645.494,5030.2
645.625,5035.55
645.757,5042.45
645.889,5041.6
646.021,5036.7
646.152,5047.2
646.284,5041.75
646.416,5056.7
646.547,5063.0
646.679,5067.05
646.811,5093.35
646.942,5111.7
647.074,5098.9
647.206,5103.25
647.337,5111.9
647.469,5112.0
647.601,5132.05
647.732,5121.9
647.864,5129.2
647.996,5124.55
648.127,5126.65
648.259,5099.75
648.391,5127.9
648.522,5114.45
648.654,5116.8
648.786,5127.25
648.917,5120.5
649.049,5114.9
649.181,5098.4
649.312,5111.4
649.444,5099.55
649.576,5114.85
649.707,5119.75
649.839,5101.5
649.971,5107.3
650.102,5109.0
650.234,5107.65
650.365,5099.2
650.497,5095.4
650.629,5128.3
650.76,5088.1
650.892,5093.75
651.023,5111.25
651.155,5108.35
651.287,5118.0
651.418,5132.85
651.55,5113.55
651.682,5116.4
651.813,5134.35
651.945,5177.75
652.076,5144.9
652.208,5166.1
652.339,5155.45
652.471,5148.85
652.603,5142.45
652.734,5172.95
652.866,5172.8
652.997,5172.4
653.129,5170.5
653.261,5185.65
653.392,5181.15
653.524,5171.25
653.655,5188.8
653.787,5186.85
653.918,5199.7
654.05,5191.7
654.181,5190.1
654.313,5177.25
654.445,5174.15
654.576,5174.5
654.708,5170.2
654.839,5171.9
654.971,5190.75
655.102,5184.15
655.234,5194.4
655.365,5200.15
655.497,5185.4
655.628,5207.55
655.76,5188.3
655.892,5195.15
656.023,5185.25
656.155,5189.0
656.286,5171.15
656.418,5185.25
656.549,5203.0
656.681,5183.15
656.812,5212.75
656.944,5206.75
657.075,5225.45
657.207,5236.4
657.338,5205.5
657.47,5229.2
657.601,5219.9
657.733,5209.45
657.864,5208.15
657.996,5193.45
658.127,5231.45
658.259,5241.05
658.39,5253.3
658.522,5267.6
658.653,5233.2
658.785,5238.85
658.916,5225.0
659.048,5229.1
659.179,5241.75
659.311,5263.65
659.442,5264.5
659.574,5234.35
659.705,5226.7
659.836,5250.65
659.968,5270.95
660.099,5228.35
660.231,5240.8
660.362,5220.65
660.494,5219.1
660.625,5234.0
660.757,5222.65
660.888,5223.45
661.02,5196.05
661.151,5178.6
661.283,5215.45
661.414,5213.05
661.545,5194.15
661.677,5167.3
661.808,5195.3
661.94,5212.9
662.071,5170.45
662.203,5145.65
662.334,5162.5
662.466,5175.6
662.597,5176.3
662.728,5170.6
662.86,5159.55
662.991,5143.6
663.123,5155.55