File: spectra/VLFR_01-LDPE_bio_Raman_5457e528.csv
nm,Intensity
528.635,1834.3
528.803,1835.6
528.972,1837.2
529.14,1836.5
529.308,1836.4
529.477,1836.4
529.645,1832.6
529.814,1836.1
529.982,1834.3
530.151,1834.3
530.319,1835.9
530.487,1836.4
530.656,1836.1
530.824,1837.3
530.993,1835.6
531.161,1839.3
531.329,1840.5
531.498,1843.8
531.666,1871.2
531.835,2327.7
532.003,4786.3
532.171,4151.7
532.34,2109.3
532.508,1841.8
532.676,1837.4
532.845,1838.7
533.013,1837.3
533.181,1836.8
533.35,1841.2
533.518,1872.4
533.686,2061.8
533.854,2372.8
534.023,2564.4
534.191,2589.8
534.359,2576.8
534.528,2532.9
534.696,2520.6
534.864,2526.8
535.032,2499.5
535.201,2489.1
535.369,2427.4
535.537,2401.4
535.705,2363.9
535.874,2329.5
536.042,2316.6
536.21,2306.7
536.378,2307.9
536.546,2300.8
536.715,2309.4
536.883,2324.5
537.051,2279.4
537.219,2311.7
537.387,2319.1
537.556,2303.4
537.724,2302.7
537.892,2282.0
538.06,2284.3
538.228,2272.2
538.396,2276.6
538.565,2252.2
538.733,2270.9
538.901,2251.7
539.069,2260.7
539.237,2248.0
539.405,2250.5
539.573,2244.8
539.741,2229.3
539.909,2234.3
540.077,2221.7
540.246,2217.2
540.414,2237.0
540.582,2215.5
540.75,2222.8
540.918,2225.3
541.086,2223.4
541.254,2224.8
541.422,2228.6
541.59,2223.8
541.758,2211.4
541.926,2239.1
542.094,2218.9
542.262,2225.3
542.43,2256.8
542.598,2254.8
542.766,2237.7
542.934,2248.2
543.102,2248.5
543.27,2249.0
543.438,2236.6
543.606,2239.9
543.774,2239.4
543.942,2252.2
544.11,2235.3
544.278,2243.2
544.445,2239.4
544.613,2231.1
544.781,2265.9
544.949,2263.5
545.117,2265.8
545.285,2259.9
545.453,2248.9
545.621,2249.0
545.789,2250.6
545.957,2260.7
546.124,2249.5
546.292,2250.3
546.46,2244.9
546.628,2247.6
546.796,2249.9
546.964,2255.5
547.131,2231.1
547.299,2255.0
547.467,2247.3
547.635,2234.3
547.803,2238.4
547.97,2244.2
548.138,2244.2
548.306,2236.1
548.474,2228.6
548.642,2250.2
548.809,2256.4
548.977,2226.6
549.145,2239.9
549.313,2226.4
549.48,2240.3
549.648,2226.9
549.816,2228.4
549.983,2248.7
550.151,2244.5
550.319,2227.7
550.487,2248.3
550.654,2246.8
550.822,2244.9
550.99,2249.2
551.157,2240.5
551.325,2268.2
551.493,2260.7
551.66,2255.5
551.828,2259.6
551.996,2271.1
552.163,2267.5
552.331,2263.4
552.499,2271.7
552.666,2269.3
552.834,2274.6
553.001,2279.7
553.169,2296.0
553.337,2296.1
553.504,2313.7
553.672,2324.6
553.839,2299.7
554.007,2311.3
554.174,2313.5
554.342,2333.8
554.509,2308.4
554.677,2311.0
554.845,2329.2
555.012,2328.3
555.18,2353.5
555.347,2341.4
555.515,2334.3
555.682,2354.1
555.85,2337.9
556.017,2366.1
556.185,2348.8
556.352,2361.6
556.52,2369.2
556.687,2376.2
556.854,2381.1
557.022,2398.3
557.189,2383.7
557.357,2383.5
557.524,2411.1
557.692,2415.4
557.859,2432.2
558.026,2440.3
558.194,2438.9
558.361,2458.1
558.529,2441.2
558.696,2446.8
558.863,2429.4
559.031,2415.2
559.198,2409.3
559.365,2385.1
559.533,2382.5
559.7,2384.2
559.867,2400.9
560.035,2374.4
560.202,2382.5
560.369,2387.8
560.537,2381.2
560.704,2372.2
560.871,2390.0
561.039,2377.7
561.206,2408.1
561.373,2389.5
561.54,2398.7
561.708,2413.8
561.875,2405.3
562.042,2418.2
562.209,2445.0
562.377,2431.4
562.544,2453.7
562.711,2472.2
562.878,2473.2
563.046,2474.1
563.213,2500.5
563.38,2518.4
563.547,2572.6
563.714,2737.9
563.881,3118.0
564.049,3371.4
564.216,3055.3
564.383,2756.1
564.55,2712.8
564.717,2706.4
564.884,2643.4
565.052,2613.8
565.219,2553.4
565.386,2564.5
565.553,2602.1
565.72,2669.5
565.887,2913.4
566.054,3286.9
566.221,3277.3
566.388,2859.4
566.555,2621.5
566.722,2549.3
566.889,2522.5
567.056,2506.5
567.224,2546.7
567.391,2566.5
567.558,2540.9
567.725,2482.2
567.892,2469.9
568.059,2440.2
568.226,2443.1
568.393,2431.3
568.56,2451.5
568.727,2438.9
568.893,2454.9
569.06,2463.0
569.227,2439.9
569.394,2457.8
569.561,2458.0
569.728,2445.3
569.895,2456.3
570.062,2480.0
570.229,2516.5
570.396,2496.6
570.563,2541.2
570.73,2533.2
570.897,2601.5
571.063,2644.9
571.23,2912.8
571.397,3543.2
571.564,4030.6
571.731,3402.4
571.898,2966.2
572.064,2829.8
572.231,2731.4
572.398,2647.2
572.565,2606.0
572.732,2565.3
572.899,2541.5
573.065,2518.2
573.232,2554.0
573.399,2546.2
573.566,2538.2
573.732,2564.2
573.899,2611.9
574.066,2598.1
574.233,2555.6
574.399,2495.8
574.566,2522.5
574.733,2497.9
574.9,2519.3
575.066,2535.6
575.233,2655.2
575.4,2818.3
575.566,3055.9
575.733,3064.2
575.9,3182.6
576.066,3587.4
576.233,3987.3
576.4,3895.1
576.566,3624.6
576.733,3515.4
576.899,3529.9
577.066,3376.5
577.233,3187.0
577.399,2982.4
577.566,2809.2
577.732,2736.1
577.899,2682.6
578.066,2657.9
578.232,2652.9
578.399,2662.8
578.565,2638.9
578.732,2645.1
578.898,2658.4
579.065,2632.8
579.231,2656.6
579.398,2690.3
579.564,2656.8
579.731,2648.3
579.897,2690.2
580.064,2685.3
580.23,2694.6
580.397,2696.3
580.563,2694.7
580.73,2711.0
580.896,2751.0
581.063,2726.2
581.229,2715.8
581.396,2715.4
581.562,2769.8
581.728,2751.8
581.895,2748.3
582.061,2732.0
582.228,2758.6
582.394,2773.2
582.56,2793.7
582.727,2761.5
582.893,2795.7
583.059,2793.9
583.226,2802.3
583.392,2763.8
583.558,2821.8
583.725,2837.5
583.891,2831.2
584.057,2827.0
584.224,2836.9
584.39,2850.0
584.556,2870.3
584.722,2865.7
584.889,2850.4
585.055,2879.3
585.221,2865.3
585.387,2861.3
585.554,2888.5
585.72,2924.2
585.886,2947.3
586.052,2897.1
586.219,2888.6
586.385,2931.7
586.551,2965.7
586.717,2940.0
586.883,2952.8
587.049,2996.0
587.216,2963.8
587.382,2977.3
587.548,3031.6
587.714,3000.4
587.88,2995.0
588.046,3050.9
588.212,3021.3
588.379,3032.4
588.545,3036.7
588.711,3064.7
588.877,3024.4
589.043,3070.6
589.209,3023.7
589.375,3009.9
589.541,3057.1
589.707,3038.4
589.873,3050.1
590.039,3059.3
590.205,3030.6
590.371,3077.3
590.537,3052.5
590.703,3063.6
590.869,3074.7
591.035,3056.1
591.201,3067.0
591.367,3124.2
591.533,3059.0
591.699,3086.4
591.865,3120.1
592.031,3069.3
592.197,3102.1
592.363,3056.8
592.529,3070.7
592.695,3083.6
592.86,3079.3
593.026,3076.6
593.192,3095.1
593.358,3103.9
593.524,3057.6
593.69,3082.2
593.856,3107.5
594.022,3069.3
594.187,3076.9
594.353,3111.7
594.519,3102.5
594.685,3112.4
594.851,3102.8
595.016,3141.3
595.182,3157.6
595.348,3108.4
595.514,3128.2
595.679,3122.4
595.845,3109.0
596.011,3160.5
596.177,3134.4
596.342,3126.5
596.508,3148.3
596.674,3135.7
596.84,3140.2
597.005,3125.3
597.171,3169.6
597.337,3149.1
597.502,3124.4
597.668,3216.1
597.834,3177.6
597.999,3117.7
598.165,3173.3
598.331,3157.5
598.496,3173.0
598.662,3203.2
598.827,3203.5
598.993,3169.0
599.159,3213.3
599.324,3184.2
599.49,3208.7
599.655,3202.2
599.821,3191.4
599.987,3230.0
600.152,3204.4
600.318,3157.5
600.483,3158.5
600.649,3182.9
600.814,3168.2
600.98,3170.7
601.145,3165.1
601.311,3170.8
601.476,3196.1
601.642,3177.8
601.807,3173.7
601.973,3173.4
602.138,3175.5
602.303,3156.8
602.469,3155.8
602.634,3138.2
602.8,3115.0
602.965,3083.0
603.13,3122.3
603.296,3099.7
603.461,3083.7
603.627,3050.5
603.792,3070.8
603.957,3035.9
604.123,3014.2
604.288,3021.1
604.453,2993.3
604.619,2980.5
604.784,2958.8
604.949,2998.6
605.115,2979.5
605.28,2918.9
605.445,2931.6
605.61,2931.1
605.776,2915.7
605.941,2926.0
606.106,2893.8
606.272,2916.2
606.437,2866.8
606.602,2862.4
606.767,2865.3
606.932,2851.5
607.098,2835.1
607.263,2869.0
607.428,2835.8
607.593,2825.8
607.758,2805.9
607.923,2798.6
608.089,2788.9
608.254,2807.8
608.419,2783.8
608.584,2769.9
608.749,2735.0
608.914,2779.0
609.079,2768.5
609.244,2754.6
609.41,2724.7
609.575,2713.5
609.74,2735.1
609.905,2700.9
610.07,2715.3
610.235,2741.7
610.4,2725.7
610.565,2705.1
610.73,2728.3
610.895,2744.9
611.06,2703.8
611.225,2706.5
611.39,2680.2
611.555,2698.2
611.72,2689.7
611.885,2666.0
612.05,2647.8
612.215,2644.6
612.38,2646.2
612.545,2660.8
612.709,2619.9
612.874,2629.0
613.039,2612.3
613.204,2626.8
613.369,2630.6
613.534,2611.7
613.699,2614.0
613.864,2589.5
614.028,2596.3
614.193,2593.8
614.358,2612.3
614.523,2613.7
614.688,2604.4
614.853,2590.6
615.017,2566.7
615.182,2589.8
615.347,2605.5
615.512,2583.7
615.676,2590.8
615.841,2586.6
616.006,2596.1
616.171,2585.0
616.335,2602.5
616.5,2582.6
616.665,2605.3
616.829,2584.8
616.994,2613.9
617.159,2623.9
617.324,2617.7
617.488,2604.0
617.653,2631.1
617.818,2621.4
617.982,2630.5
618.147,2606.8
618.311,2600.3
618.476,2618.4
618.641,2609.2
618.805,2602.1
618.97,2626.4
619.134,2637.3
619.299,2631.5
619.463,2654.2
619.628,2656.1
619.793,2649.8
619.957,2644.5
620.122,2625.0
620.286,2646.9
620.451,2632.3
620.615,2655.6
620.78,2681.8
620.944,2665.8
621.109,2697.9
621.273,2736.1
621.438,2773.2
621.602,2812.6
621.766,2917.4
621.931,2955.8
622.095,3002.1
622.26,3045.1
622.424,3005.3
622.588,2901.4
622.753,2826.7
622.917,2732.6
623.082,2684.5
623.246,2649.1
623.41,2646.9
623.575,2617.9
623.739,2601.5
623.903,2593.7
624.068,2590.6
624.232,2624.3
624.396,2594.8
624.56,2630.0
624.725,2607.5
624.889,2594.0
625.053,2629.2
625.218,2622.2
625.382,2639.6
625.546,2664.2
625.71,2710.6
625.874,2745.7
626.039,2859.3
626.203,2969.4
626.367,3210.6
626.531,3711.0
626.695,4759.6
626.86,6495.9
627.024,8322.4
627.188,9281.2
627.352,9100.4
627.516,8092.6
627.68,7033.1
627.844,6705.4
628.008,6852.6
628.172,7402.3
628.337,8881.2
628.501,10299.1
628.665,9379.8
628.829,7782.9
628.993,7379.7
629.157,6890.7
629.321,6477.6
629.485,6293.7
629.649,5770.3
629.813,5455.2
629.977,5201.5
630.141,5146.6
630.305,5058.8
630.469,5054.6
630.633,4688.1
630.797,4367.8
630.961,3877.8
631.124,3412.8
631.288,3227.8
631.452,3067.3
631.616,2996.0
631.78,2943.3
631.944,2840.0
632.108,2767.1
632.272,2700.5
632.436,2702.2
632.599,2652.0
632.763,2607.1
632.927,2645.2
633.091,2593.0
633.255,2582.3
633.418,2590.3
633.582,2584.4
633.746,2541.2
633.91,2542.4
634.074,2525.9
634.237,2524.3
634.401,2502.7
634.565,2494.7
634.728,2483.0
634.892,2495.8
635.056,2515.2
635.22,2468.3
635.383,2469.9
635.547,2465.5
635.711,2447.8
635.874,2468.7
636.038,2464.7
636.202,2460.7
636.365,2462.2
636.529,2460.7
636.692,2450.9
636.856,2425.0
637.02,2414.3
637.183,2430.6
637.347,2421.3
637.51,2419.1
637.674,2393.9
637.837,2406.8
638.001,2419.3
638.164,2414.2
638.328,2409.0
638.491,2412.4
638.655,2418.4
638.818,2397.1
638.982,2384.5
639.145,2398.6
639.309,2379.7
639.472,2369.6
639.636,2390.1
639.799,2399.6
639.963,2380.4
640.126,2390.7
640.289,2374.1
640.453,2370.8
640.616,2362.0
640.78,2379.5
640.943,2384.6
641.106,2377.0
641.27,2381.1
641.433,2365.4
641.596,2373.5
641.76,2358.3
641.923,2365.2
642.086,2373.5
642.249,2356.5
642.413,2362.2
642.576,2352.4
642.739,2335.7
642.903,2389.6
643.066,2360.3
643.229,2346.6
643.392,2362.8
643.555,2345.5
643.719,2341.2
643.882,2343.5
644.045,2360.6
644.208,2382.2
644.371,2341.9
644.534,2343.7
644.698,2347.8
644.861,2354.6
645.024,2359.6
645.187,2340.6
645.35,2319.7
645.513,2345.5
645.676,2351.1
645.839,2333.0
646.002,2322.6
646.165,2324.3
646.329,2341.4
646.492,2340.0
646.655,2336.6
646.818,2306.7
646.981,2308.2
647.144,2314.8
647.307,2316.5
647.47,2328.8
647.633,2312.2
647.796,2287.4
647.958,2304.8
648.121,2306.4
648.284,2305.9
648.447,2300.2
648.61,2312.7
648.773,2299.3
648.936,2281.6
649.099,2310.3
649.262,2294.8
649.425,2286.0
649.587,2273.0
649.75,2292.8
649.913,2285.9
650.076,2277.8
650.239,2259.5
650.402,2293.6
650.564,2272.3
650.727,2275.0
650.89,2281.1
651.053,2261.1
651.215,2259.8
651.378,2262.8
651.541,2283.4
651.704,2254.1
651.866,2263.2
652.029,2249.3
652.192,2246.9
652.354,2272.0
652.517,2244.5
652.68,2246.4
652.842,2260.6
653.005,2242.0
653.168,2240.2
653.33,2246.5
653.493,2223.5
653.656,2229.8
653.818,2232.2
653.981,2220.6
654.143,2217.0
654.306,2243.3
654.468,2229.8
654.631,2233.8
654.794,2193.3
654.956,2223.8
655.119,2220.9
655.281,2204.9
655.444,2204.8
655.606,2201.9
655.769,2196.9
655.931,2197.2
656.093,2206.5
656.256,2213.5
656.418,2211.1
656.581,2192.4
656.743,2178.5
656.906,2200.0
657.068,2172.8
657.23,2166.4
657.393,2182.3
657.555,2183.7
657.718,2179.5
657.88,2150.7
658.042,2176.6
658.205,2176.0
658.367,2165.5
658.529,2159.3
658.691,2158.9
658.854,2162.2
659.016,2143.2
659.178,2142.8
659.341,2146.4
659.503,2147.1
659.665,2140.2
659.827,2137.3
659.989,2148.6
660.152,2148.6
660.314,2124.2
660.476,2128.5
660.638,2116.6
660.8,2138.3
660.963,2123.7
661.044,2118.1