File: spectra/VLFR_07-PET_bio_Raman_d102cc86.csv
nm,Intensity
528.637,2225.1
528.806,2236.8
528.974,2249.3
529.143,2238.7
529.311,2230.5
529.48,2228.5
529.648,2215.0
529.816,2218.3
529.985,2229.1
530.153,2241.0
530.322,2235.3
530.49,2223.6
530.659,2216.5
530.827,2227.7
530.995,2237.2
531.164,2242.6
531.332,2259.5
531.5,2264.0
531.669,2314.0
531.837,3075.7
532.006,4742.7
532.174,4050.0
532.342,2361.4
532.511,2278.3
532.679,2288.9
532.847,2302.9
533.016,2306.4
533.184,2339.8
533.352,2409.1
533.521,3381.8
533.689,8637.5
533.857,18005.4
534.025,24062.6
534.194,26223.3
534.362,25727.9
534.53,26448.7
534.699,27918.1
534.867,28036.4
535.035,28128.1
535.203,29209.4
535.372,29768.6
535.54,30570.6
535.708,30065.1
535.876,29977.4
536.045,29863.5
536.213,30422.1
536.381,31170.4
536.549,32281.0
536.717,32366.4
536.886,32498.5
537.054,33472.1
537.222,33951.7
537.39,33963.3
537.558,35266.4
537.726,35743.9
537.895,35362.0
538.063,36459.8
538.231,35823.2
538.399,36190.1
538.567,36321.5
538.735,37265.0
538.903,38374.8
539.072,39480.7
539.24,38819.3
539.408,40749.1
539.576,41334.3
539.744,40408.5
539.912,41614.0
540.08,42682.9
540.248,42111.3
540.416,42691.0
540.584,44432.7
540.752,43757.1
540.92,45284.9
541.088,44798.6
541.256,44716.3
541.425,46309.8
541.593,46474.9
541.761,46939.9
541.929,49009.4
542.097,48716.0
542.265,48904.3
542.433,50060.0
542.601,49953.0
542.769,50401.2
542.937,52065.5
543.104,52442.6
543.272,54157.4
543.44,52798.7
543.608,54011.7
543.776,53583.4
543.944,56549.2
544.112,55318.5
544.28,56795.0
544.448,57087.7
544.616,57800.1
544.784,57151.9
544.952,58719.1
545.12,60185.9
545.288,61217.3
545.455,61081.4
545.623,61839.7
545.791,62549.3
545.959,62633.3
546.127,64063.6
546.295,63529.7
546.463,63683.1
546.63,64270.8
546.798,65002.8
546.966,65067.9
547.134,65143.4
547.302,65169.7
547.47,65535.0
547.637,65535.0
547.805,65535.0
547.973,65535.0
548.141,65535.0
548.308,65535.0
548.476,65535.0
548.644,65535.0
548.812,65535.0
548.98,65535.0
549.147,65535.0
549.315,65535.0
549.483,65535.0
549.65,65535.0
549.818,65535.0
549.986,65535.0
550.154,65535.0
550.321,65535.0
550.489,65535.0
550.657,65535.0
550.824,65535.0
550.992,65535.0
551.16,65535.0
551.327,65535.0
551.495,65535.0
551.663,65535.0
551.83,65535.0
551.998,65535.0
552.166,65535.0
552.333,65535.0
552.501,65535.0
552.668,65535.0
552.836,65535.0
553.004,65535.0
553.171,65535.0
553.339,65535.0
553.506,65535.0
553.674,65535.0
553.842,65535.0
554.009,65535.0
554.177,65535.0
554.344,65535.0
554.512,65535.0
554.679,65535.0
554.847,65535.0
555.014,65535.0
555.182,65535.0
555.349,65535.0
555.517,65535.0
555.684,65535.0
555.852,65535.0
556.019,65535.0
556.187,65535.0
556.354,65535.0
556.522,65535.0
556.689,65535.0
556.857,65535.0
557.024,65535.0
557.192,65535.0
557.359,65535.0
557.526,65535.0
557.694,65535.0
557.861,65535.0
558.029,65535.0
558.196,65535.0
558.363,65535.0
558.531,65535.0
558.698,65535.0
558.866,65535.0
559.033,65535.0
559.2,65535.0
559.368,65535.0
559.535,65535.0
559.702,65535.0
559.87,65535.0
560.037,65535.0
560.204,65535.0
560.372,65535.0
560.539,65535.0
560.706,65535.0
560.873,65535.0
561.041,65535.0
561.208,65535.0
561.375,65535.0
561.543,65535.0
561.71,65535.0
561.877,65535.0
562.044,65535.0
562.211,65535.0
562.379,65535.0
562.546,65535.0
562.713,65535.0
562.88,65535.0
563.048,65535.0
563.215,65535.0
563.382,65535.0
563.549,65535.0
563.716,65535.0
563.883,65535.0
564.051,65535.0
564.218,65535.0
564.385,65535.0
564.552,65535.0
564.719,65535.0
564.886,65535.0
565.053,65535.0
565.221,65535.0
565.388,65535.0
565.555,65535.0
565.722,65535.0
565.889,65535.0
566.056,65535.0
566.223,65535.0
566.39,65535.0
566.557,65535.0
566.724,65535.0
566.891,65535.0
567.058,65535.0
567.225,65535.0
567.392,65535.0
567.559,65535.0
567.726,65535.0
567.893,65535.0
568.06,65535.0
568.227,65535.0
568.394,65535.0
568.561,65535.0
568.728,65535.0
568.895,65535.0
569.062,65535.0
569.229,65535.0
569.396,65535.0
569.563,65535.0
569.73,65535.0
569.897,65535.0
570.064,65535.0
570.231,65535.0
570.398,65535.0
570.564,65535.0
570.731,65535.0
570.898,65535.0
571.065,65535.0
571.232,65535.0
571.399,65535.0
571.566,65535.0
571.732,65535.0
571.899,65535.0
572.066,65535.0
572.233,65535.0
572.4,65535.0
572.566,65535.0
572.733,65535.0
572.9,65535.0
573.067,65535.0
573.234,65535.0
573.4,65535.0
573.567,65535.0
573.734,65535.0
573.901,65535.0
574.067,65535.0
574.234,65535.0
574.401,65535.0
574.568,65535.0
574.734,65535.0
574.901,65535.0
575.068,65535.0
575.234,65535.0
575.401,65535.0
575.568,65535.0
575.734,65535.0
575.901,65535.0
576.068,65535.0
576.234,65535.0
576.401,65535.0
576.568,65535.0
576.734,65535.0
576.901,65535.0
577.067,65535.0
577.234,65535.0
577.401,65535.0
577.567,65535.0
577.734,65535.0
577.9,65535.0
578.067,65535.0
578.233,65535.0
578.4,65535.0
578.567,65535.0
578.733,65535.0
578.9,65535.0
579.066,65535.0
579.233,65535.0
579.399,65535.0
579.566,65535.0
579.732,65535.0
579.899,65535.0
580.065,65535.0
580.231,65535.0
580.398,65535.0
580.564,65535.0
580.731,65535.0
580.897,65535.0
581.064,65535.0
581.23,65535.0
581.397,65535.0
581.563,65535.0
581.729,65535.0
581.896,65535.0
582.062,65535.0
582.228,65535.0
582.395,65535.0
582.561,65535.0
582.728,65535.0
582.894,65535.0
583.06,65535.0
583.227,65535.0
583.393,65535.0
583.559,65535.0
583.726,65535.0
583.892,65535.0
584.058,65535.0
584.224,65535.0
584.391,65535.0
584.557,65535.0
584.723,65535.0
584.889,65535.0
585.056,65535.0
585.222,65535.0
585.388,65535.0
585.554,65535.0
585.721,65535.0
585.887,65535.0
586.053,65535.0
586.219,65535.0
586.385,65535.0
586.552,65535.0
586.718,65535.0
586.884,65535.0
587.05,65535.0
587.216,65535.0
587.382,65535.0
587.549,65535.0
587.715,65535.0
587.881,65535.0
588.047,65535.0
588.213,65535.0
588.379,65535.0
588.545,65535.0
588.711,65535.0
588.877,65535.0
589.043,65535.0
589.209,65535.0
589.375,65535.0
589.542,65535.0
589.708,65535.0
589.874,65535.0
590.04,65535.0
590.206,65535.0
590.372,65535.0
590.538,65535.0
590.704,65535.0
590.87,65535.0
591.036,65535.0
591.201,65535.0
591.367,65535.0
591.533,65535.0
591.699,65535.0
591.865,65535.0
592.031,65535.0
592.197,65535.0
592.363,65535.0
592.529,65535.0
592.695,65535.0
592.861,65535.0
593.027,65535.0
593.192,65535.0
593.358,65535.0
593.524,65535.0
593.69,65535.0
593.856,65535.0
594.022,65535.0
594.187,65535.0
594.353,65535.0
594.519,65535.0
594.685,65535.0
594.851,65535.0
595.016,65535.0
595.182,65535.0
595.348,65535.0
595.514,65535.0
595.679,65535.0
595.845,65535.0
596.011,65535.0
596.177,65535.0
596.342,65535.0
596.508,65535.0
596.674,65535.0
596.84,65535.0
597.005,65535.0
597.171,65535.0
597.337,65535.0
597.502,65535.0
597.668,65535.0
597.833,65535.0
597.999,65535.0
598.165,65535.0
598.33,65535.0
598.496,65535.0
598.662,65535.0
598.827,65535.0
598.993,65535.0
599.158,65535.0
599.324,65535.0
599.489,65535.0
599.655,65535.0
599.821,65535.0
599.986,65535.0
600.152,65535.0
600.317,65535.0
600.483,65535.0
600.648,65535.0
600.814,65535.0
600.979,65535.0
601.145,65535.0
601.31,65535.0
601.476,65535.0
601.641,65535.0
601.807,65535.0
601.972,65535.0
602.137,65535.0
602.303,65535.0
602.468,65535.0
602.634,65535.0
602.799,65535.0
602.964,65535.0
603.13,65535.0
603.295,65535.0
603.461,65535.0
603.626,65535.0
603.791,65535.0
603.957,65535.0
604.122,65535.0
604.287,65535.0
604.453,65535.0
604.618,65535.0
604.783,65535.0
604.949,65535.0
605.114,65535.0
605.279,65535.0
605.444,65535.0
605.61,65535.0
605.775,65535.0
605.94,65535.0
606.105,65535.0
606.271,65535.0
606.436,65535.0
606.601,65535.0
606.766,65535.0
606.931,65535.0
607.097,65535.0
607.262,65535.0
607.427,65535.0
607.592,65535.0
607.757,65535.0
607.922,65535.0
608.088,65535.0
608.253,65535.0
608.418,65535.0
608.583,65535.0
608.748,65535.0
608.913,65535.0
609.078,65535.0
609.243,65535.0
609.408,65535.0
609.573,65535.0
609.738,65535.0
609.903,65535.0
610.068,65535.0
610.233,65535.0
610.399,65535.0
610.564,65535.0
610.729,65535.0
610.894,65535.0
611.058,65535.0
611.223,65535.0
611.388,65535.0
611.553,65535.0
611.718,65535.0
611.883,65535.0
612.048,65535.0
612.213,65535.0
612.378,65535.0
612.543,65535.0
612.708,65535.0
612.873,65535.0
613.038,65535.0
613.202,65535.0
613.367,65535.0
613.532,65535.0
613.697,65535.0
613.862,65535.0
614.027,65535.0
614.192,65535.0
614.356,65535.0
614.521,65535.0
614.686,65535.0
614.851,65535.0
615.016,65535.0
615.18,65535.0
615.345,65535.0
615.51,65535.0
615.675,65535.0
615.839,65535.0
616.004,65535.0
616.169,65535.0
616.333,65535.0
616.498,65535.0
616.663,65535.0
616.827,65535.0
616.992,65535.0
617.157,65535.0
617.321,65535.0
617.486,65535.0
617.651,65535.0
617.815,65535.0
617.98,65535.0
618.145,65535.0
618.309,65535.0
618.474,65535.0
618.638,65535.0
618.803,65535.0
618.968,65535.0
619.132,65535.0
619.297,65535.0
619.461,65535.0
619.626,65535.0
619.79,65535.0
619.955,65535.0
620.119,65535.0
620.284,65535.0
620.448,65535.0
620.613,65535.0
620.777,65535.0
620.942,65535.0
621.106,65535.0
621.271,65535.0
621.435,65535.0
621.599,65535.0
621.764,65535.0
621.928,65535.0
622.093,65535.0
622.257,65535.0
622.421,65535.0
622.586,65535.0
622.75,65535.0
622.915,65535.0
623.079,65535.0
623.243,65535.0
623.408,65535.0
623.572,65535.0
623.736,65535.0
623.9,65535.0
624.065,65535.0
624.229,65535.0
624.393,65535.0
624.558,65535.0
624.722,65535.0
624.886,65535.0
625.05,65535.0
625.215,65535.0
625.379,65535.0
625.543,65535.0
625.707,65535.0
625.871,65535.0
626.036,65535.0
626.2,65535.0
626.364,65535.0
626.528,65535.0
626.692,65535.0
626.856,65535.0
627.02,65535.0
627.185,65535.0
627.349,65535.0
627.513,65535.0
627.677,65535.0
627.841,65535.0
628.005,65535.0
628.169,65535.0
628.333,65535.0
628.497,65535.0
628.661,65535.0
628.825,65535.0
628.989,65535.0
629.153,65535.0
629.317,65535.0
629.481,65535.0
629.645,65535.0
629.809,65535.0
629.973,65535.0
630.137,65535.0
630.301,65535.0
630.465,65535.0
630.629,65535.0
630.793,65535.0
630.957,65535.0
631.121,65535.0
631.285,65535.0
631.449,65535.0
631.612,65535.0
631.776,65535.0
631.94,65535.0
632.104,65535.0
632.268,65535.0
632.432,65535.0
632.596,65535.0
632.759,65535.0
632.923,65535.0
633.087,65535.0
633.251,65535.0
633.414,65535.0
633.578,65535.0
633.742,65535.0
633.906,65535.0
634.069,65535.0
634.233,65535.0
634.397,65535.0
634.561,65535.0
634.724,65535.0
634.888,65535.0
635.052,65535.0
635.215,65535.0
635.379,65535.0
635.543,65535.0
635.706,65535.0
635.87,65535.0
636.034,65535.0
636.197,65535.0
636.361,65535.0
636.524,65535.0
636.688,65535.0
636.852,65535.0
637.015,65535.0
637.179,65535.0
637.342,65535.0
637.506,65535.0
637.669,65535.0
637.833,65535.0
637.996,65535.0
638.16,65535.0
638.323,65535.0
638.487,65535.0
638.65,65535.0
638.814,65535.0
638.977,65535.0
639.141,65535.0
639.304,65535.0
639.468,65535.0
639.631,65535.0
639.794,65535.0
639.958,65535.0
640.121,65535.0
640.285,65535.0
640.448,65535.0
640.611,65535.0
640.775,65535.0
640.938,65535.0
641.101,65535.0
641.265,65535.0
641.428,65535.0
641.591,65535.0
641.755,65535.0
641.918,65535.0
642.081,65535.0
642.244,65535.0
642.408,65535.0
642.571,65535.0
642.734,65535.0
642.897,65535.0
643.061,65535.0
643.224,65535.0
643.387,65535.0
643.55,65535.0
643.713,65535.0
643.876,65535.0
644.04,65535.0
644.203,65535.0
644.366,65535.0
644.529,65535.0
644.692,65535.0
644.855,65535.0
645.018,65535.0
645.181,65535.0
645.345,65535.0
645.508,65535.0
645.671,65535.0
645.834,65535.0
645.997,65535.0
646.16,65535.0
646.323,65535.0
646.486,65535.0
646.649,65535.0
646.812,65535.0
646.975,65535.0
647.138,65535.0
647.301,65535.0
647.464,65535.0
647.627,65535.0
647.79,65535.0
647.953,65535.0
648.115,65535.0
648.278,65535.0
648.441,65535.0
648.604,65535.0
648.767,65535.0
648.93,65535.0
649.093,65535.0
649.256,65535.0
649.418,65535.0
649.581,65535.0
649.744,65535.0
649.907,65535.0
650.07,65535.0
650.233,65535.0
650.395,65535.0
650.558,65535.0
650.721,65535.0
650.884,65535.0
651.046,65535.0
651.209,65535.0
651.372,65535.0
651.534,65535.0
651.697,65535.0
651.86,65535.0
652.023,65535.0
652.185,65535.0
652.348,65535.0
652.511,65535.0
652.673,65535.0
652.836,65535.0
652.998,65535.0
653.161,65535.0
653.324,65535.0
653.486,65535.0
653.649,65535.0
653.811,65535.0
653.974,65535.0
654.137,65535.0
654.299,65535.0
654.462,65535.0
654.624,65535.0
654.787,65535.0
654.949,65535.0
655.112,65535.0
655.274,65535.0
655.437,65535.0
655.599,65535.0
655.761,65535.0
655.924,65535.0
656.086,65535.0
656.249,65535.0
656.411,65535.0
656.574,65535.0
656.736,65535.0
656.898,65535.0
657.061,65535.0
657.223,65535.0
657.385,65535.0
657.548,65535.0
657.71,65535.0
657.872,65535.0
658.035,65535.0
658.197,65535.0
658.359,65535.0
658.522,65535.0
658.684,65535.0
658.846,65535.0
659.008,65535.0
659.171,65535.0
659.333,65535.0
659.495,65535.0
659.657,65535.0
659.82,65535.0
659.982,65535.0
660.144,65535.0
660.306,65535.0
660.468,65535.0
660.63,65535.0
660.793,65535.0
660.955,65535.0
661.036,65535.0