File: spectra/VLFR_08-PLA_bio_Raman_8070ea4d.csv
nm,Intensity
528.626,1860.3
528.795,1864.0
528.963,1863.1
529.132,1862.2
529.3,1861.4
529.469,1861.5
529.637,1862.9
529.806,1860.8
529.974,1862.4
530.143,1863.7
530.311,1862.9
530.48,1863.0
530.648,1863.1
530.816,1863.1
530.985,1862.3
531.153,1863.9
531.322,1864.6
531.49,1870.7
531.658,1911.9
531.827,2499.9
531.995,4910.9
532.164,4986.1
532.332,2238.1
532.5,1866.5
532.669,1865.8
532.837,1865.6
533.006,1866.2
533.174,1865.9
533.342,1867.6
533.511,1897.8
533.679,2104.2
533.847,2516.0
534.016,2724.7
534.184,2761.1
534.352,2688.3
534.521,2637.0
534.689,2624.5
534.857,2606.8
535.025,2560.8
535.194,2528.6
535.362,2501.8
535.53,2501.5
535.699,2445.6
535.867,2449.1
536.035,2405.6
536.203,2413.4
536.372,2458.3
536.54,2413.5
536.708,2439.7
536.876,2404.0
537.044,2402.0
537.213,2387.8
537.381,2415.1
537.549,2421.0
537.717,2402.6
537.885,2412.8
538.054,2375.3
538.222,2353.2
538.39,2356.0
538.558,2345.2
538.726,2360.4
538.894,2364.0
539.063,2356.8
539.231,2353.1
539.399,2368.7
539.567,2334.6
539.735,2311.9
539.903,2304.1
540.071,2327.3
540.239,2352.3
540.408,2359.0
540.576,2405.7
540.744,2395.1
540.912,2398.9
541.08,2396.6
541.248,2403.8
541.416,2395.2
541.584,2377.1
541.752,2365.3
541.92,2355.1
542.088,2378.9
542.256,2369.7
542.424,2364.9
542.592,2375.1
542.76,2379.2
542.928,2418.6
543.096,2438.1
543.264,2454.4
543.432,2506.1
543.6,2524.7
543.768,2507.2
543.936,2506.5
544.104,2496.4
544.272,2443.8
544.44,2422.5
544.608,2403.4
544.776,2368.3
544.944,2360.8
545.112,2386.7
545.28,2356.2
545.448,2354.5
545.616,2363.1
545.784,2384.0
545.951,2344.6
546.119,2358.2
546.287,2352.1
546.455,2344.9
546.623,2359.5
546.791,2367.9
546.959,2374.6
547.127,2381.8
547.294,2366.2
547.462,2384.7
547.63,2380.2
547.798,2373.3
547.966,2390.7
548.134,2380.5
548.301,2404.7
548.469,2391.6
548.637,2389.3
548.805,2391.1
548.972,2410.6
549.14,2408.9
549.308,2392.0
549.476,2391.6
549.644,2384.2
549.811,2388.7
549.979,2410.7
550.147,2394.5
550.315,2413.1
550.482,2408.1
550.65,2413.1
550.818,2432.8
550.985,2447.9
551.153,2455.4
551.321,2450.5
551.488,2446.0
551.656,2445.5
551.824,2449.5
551.991,2474.5
552.159,2464.5
552.327,2484.9
552.494,2472.6
552.662,2469.8
552.83,2477.0
552.997,2456.3
553.165,2454.4
553.333,2458.1
553.5,2448.8
553.668,2464.8
553.835,2485.1
554.003,2501.6
554.171,2501.7
554.338,2497.9
554.506,2475.1
554.673,2453.7
554.841,2473.7
555.008,2481.9
555.176,2466.6
555.343,2438.6
555.511,2434.6
555.679,2449.7
555.846,2462.2
556.014,2435.1
556.181,2419.3
556.349,2455.4
556.516,2449.0
556.684,2468.4
556.851,2455.5
557.018,2489.5
557.186,2509.0
557.353,2551.0
557.521,2626.1
557.688,2775.8
557.856,3023.4
558.023,3204.5
558.191,3118.0
558.358,2850.7
558.525,2643.3
558.693,2591.6
558.86,2580.7
559.028,2564.6
559.195,2560.3
559.362,2550.7
559.53,2539.0
559.697,2523.3
559.864,2520.1
560.032,2504.4
560.199,2497.6
560.366,2522.7
560.534,2506.9
560.701,2513.8
560.868,2503.6
561.036,2500.4
561.203,2513.5
561.37,2492.9
561.538,2495.2
561.705,2506.9
561.872,2519.0
562.039,2485.4
562.207,2529.9
562.374,2519.2
562.541,2531.0
562.708,2566.9
562.876,2575.4
563.043,2616.2
563.21,2658.7
563.377,2714.7
563.545,2740.9
563.712,2675.1
563.879,2609.3
564.046,2567.0
564.213,2568.5
564.38,2538.8
564.548,2586.1
564.715,2633.8
564.882,2670.3
565.049,2679.9
565.216,2683.9
565.383,2678.2
565.551,2668.4
565.718,2731.0
565.885,2773.6
566.052,2799.4
566.219,2816.8
566.386,2723.6
566.553,2658.9
566.72,2598.4
566.887,2546.7
567.054,2529.7
567.221,2552.2
567.388,2562.0
567.555,2556.9
567.722,2571.9
567.889,2606.8
568.057,2599.4
568.224,2587.4
568.391,2574.1
568.558,2575.0
568.725,2570.4
568.892,2592.5
569.058,2612.5
569.225,2593.2
569.392,2592.2
569.559,2583.9
569.726,2561.0
569.893,2568.2
570.06,2577.1
570.227,2575.5
570.394,2563.2
570.561,2592.7
570.728,2592.6
570.895,2582.8
571.062,2585.8
571.229,2605.4
571.395,2687.2
571.562,2690.2
571.729,2727.9
571.896,2733.2
572.063,2697.3
572.23,2675.5
572.397,2656.0
572.563,2670.3
572.73,2683.4
572.897,2663.2
573.064,2669.3
573.231,2670.1
573.397,2687.2
573.564,2691.2
573.731,2646.7
573.898,2642.0
574.064,2645.7
574.231,2637.8
574.398,2673.2
574.565,2713.9
574.731,2701.3
574.898,2627.7
575.065,2584.5
575.232,2575.1
575.398,2592.7
575.565,2613.9
575.732,2601.4
575.898,2615.4
576.065,2653.1
576.232,2690.3
576.398,2828.2
576.565,2964.8
576.732,3008.6
576.898,2991.1
577.065,2910.6
577.232,2774.2
577.398,2707.8
577.565,2628.1
577.731,2612.9
577.898,2616.4
578.065,2588.9
578.231,2593.0
578.398,2592.4
578.564,2573.0
578.731,2588.1
578.897,2580.7
579.064,2583.9
579.23,2580.9
579.397,2598.6
579.563,2591.9
579.73,2617.2
579.896,2594.4
580.063,2583.9
580.229,2613.1
580.396,2605.4
580.562,2587.9
580.729,2613.7
580.895,2595.6
581.062,2583.6
581.228,2582.0
581.395,2606.6
581.561,2626.3
581.728,2613.3
581.894,2589.0
582.06,2594.6
582.227,2602.7
582.393,2612.2
582.56,2582.7
582.726,2592.6
582.892,2592.6
583.059,2592.7
583.225,2613.1
583.391,2607.7
583.558,2615.2
583.724,2600.7
583.89,2599.5
584.057,2593.6
584.223,2599.1
584.389,2593.7
584.556,2610.3
584.722,2620.5
584.888,2600.6
585.054,2579.7
585.221,2599.8
585.387,2608.9
585.553,2594.5
585.719,2604.2
585.886,2614.9
586.052,2615.0
586.218,2632.3
586.384,2651.0
586.55,2709.0
586.717,2780.4
586.883,2810.8
587.049,2861.5
587.215,2896.5
587.381,2961.2
587.548,2923.7
587.714,2875.1
587.88,2820.9
588.046,2718.9
588.212,2656.2
588.378,2603.1
588.544,2636.7
588.71,2614.4
588.876,2586.5
589.043,2600.6
589.209,2592.4
589.375,2580.2
589.541,2590.1
589.707,2581.6
589.873,2579.4
590.039,2582.6
590.205,2584.0
590.371,2598.9
590.537,2601.7
590.703,2599.2
590.869,2586.1
591.035,2588.8
591.201,2588.9
591.367,2579.5
591.533,2585.7
591.699,2617.6
591.865,2568.4
592.031,2599.6
592.197,2603.4
592.363,2608.5
592.529,2612.1
592.694,2567.3
592.86,2573.3
593.026,2565.7
593.192,2600.5
593.358,2583.1
593.524,2587.9
593.69,2589.3
593.856,2538.9
594.021,2588.7
594.187,2594.0
594.353,2586.2
594.519,2564.4
594.685,2597.2
594.851,2582.8
595.016,2585.3
595.182,2580.1
595.348,2576.5
595.514,2567.5
595.68,2593.3
595.845,2588.5
596.011,2579.6
596.177,2600.5
596.342,2607.3
596.508,2578.7
596.674,2582.6
596.84,2594.2
597.005,2588.9
597.171,2607.9
597.337,2592.1
597.502,2558.2
597.668,2604.1
597.834,2567.8
597.999,2580.4
598.165,2586.2
598.331,2602.0
598.496,2568.4
598.662,2584.1
598.828,2572.3
598.993,2583.1
599.159,2586.0
599.324,2591.3
599.49,2583.6
599.656,2592.9
599.821,2579.4
599.987,2577.4
600.152,2590.2
600.318,2567.8
600.483,2583.0
600.649,2569.1
600.814,2582.4
600.98,2594.8
601.145,2582.7
601.311,2572.8
601.476,2572.1
601.642,2591.6
601.807,2570.1
601.973,2579.6
602.138,2583.7
602.304,2595.9
602.469,2563.7
602.635,2586.0
602.8,2578.2
602.965,2563.7
603.131,2577.4
603.296,2550.1
603.462,2569.6
603.627,2590.9
603.792,2558.7
603.958,2589.7
604.123,2566.5
604.288,2543.5
604.454,2587.2
604.619,2559.2
604.784,2583.6
604.95,2551.0
605.115,2565.4
605.28,2542.2
605.446,2558.5
605.611,2539.7
605.776,2542.8
605.941,2568.1
606.107,2570.5
606.272,2546.6
606.437,2573.2
606.602,2564.3
606.767,2547.4
606.933,2552.6
607.098,2565.8
607.263,2574.4
607.428,2555.2
607.593,2555.7
607.759,2546.3
607.924,2590.9
608.089,2524.2
608.254,2562.3
608.419,2545.8
608.584,2539.3
608.749,2540.9
608.915,2553.9
609.08,2549.3
609.245,2555.1
609.41,2552.0
609.575,2553.9
609.74,2562.8
609.905,2562.7
610.07,2530.7
610.235,2554.5
610.4,2538.6
610.565,2561.6
610.73,2578.8
610.895,2553.8
611.06,2533.7
611.225,2561.7
611.39,2552.2
611.555,2561.4
611.72,2541.3
611.885,2561.2
612.05,2532.1
612.215,2538.5
612.38,2533.4
612.545,2535.3
612.71,2551.7
612.875,2539.1
613.04,2549.3
613.204,2533.7
613.369,2522.4
613.534,2559.5
613.699,2517.4
613.864,2530.9
614.029,2521.4
614.194,2564.2
614.358,2547.3
614.523,2557.3
614.688,2533.5
614.853,2540.8
615.018,2547.7
615.182,2536.6
615.347,2529.3
615.512,2525.4
615.677,2524.5
615.841,2554.8
616.006,2525.9
616.171,2522.1
616.336,2530.0
616.5,2526.8
616.665,2530.4
616.83,2531.0
616.994,2511.4
617.159,2542.6
617.324,2516.7
617.489,2513.1
617.653,2516.2
617.818,2536.4
617.982,2517.1
618.147,2524.0
618.312,2544.8
618.476,2523.0
618.641,2512.7
618.805,2520.8
618.97,2531.1
619.135,2523.2
619.299,2511.7
619.464,2524.8
619.628,2531.8
619.793,2514.7
619.957,2503.7
620.122,2521.5
620.286,2510.7
620.451,2522.7
620.615,2524.4
620.78,2510.3
620.944,2526.7
621.109,2504.7
621.273,2500.7
621.438,2502.1
621.602,2499.1
621.767,2531.0
621.931,2508.2
622.095,2501.0
622.26,2526.5
622.424,2533.1
622.589,2555.2
622.753,2578.0
622.917,2579.4
623.082,2573.8
623.246,2551.3
623.41,2578.2
623.575,2557.7
623.739,2526.1
623.903,2551.4
624.068,2520.1
624.232,2510.6
624.396,2515.7
624.561,2510.1
624.725,2508.6
624.889,2502.3
625.053,2490.1
625.218,2484.9
625.382,2503.4
625.546,2501.9
625.71,2489.3
625.875,2472.8
626.039,2511.1
626.203,2515.9
626.367,2494.9
626.531,2512.6
626.695,2496.7
626.86,2482.5
627.024,2501.3
627.188,2492.4
627.352,2499.9
627.516,2506.9
627.68,2521.5
627.844,2534.3
628.008,2622.7
628.172,2717.0
628.337,2796.6
628.501,2841.4
628.665,2832.3
628.829,2791.3
628.993,2734.6
629.157,2734.3
629.321,2756.0
629.485,2776.8
629.649,2781.8
629.813,2766.1
629.977,2790.4
630.141,2782.8
630.305,2914.7
630.469,3072.7
630.633,3369.1
630.797,3899.4
630.96,4441.8
631.124,4492.7
631.288,4321.0
631.452,3832.0
631.616,3437.7
631.78,3186.6
631.944,3119.5
632.108,3066.9
632.272,2965.5
632.435,2961.2
632.599,3022.6
632.763,3104.4
632.927,3229.9
633.091,3367.1
633.254,3433.6
633.418,3379.0
633.582,3272.9
633.746,3191.8
633.91,3002.2
634.073,2920.4
634.237,2773.7
634.401,2663.2
634.564,2602.2
634.728,2547.9
634.892,2513.5
635.056,2508.0
635.219,2500.1
635.383,2471.5
635.547,2457.9
635.71,2466.3
635.874,2453.4
636.038,2441.0
636.201,2441.1
636.365,2424.2
636.528,2426.2
636.692,2436.4
636.856,2420.8
637.019,2428.3
637.183,2444.9
637.346,2435.9
637.51,2410.8
637.673,2407.0
637.837,2418.0
638.0,2418.4
638.164,2408.7
638.327,2414.0
638.491,2401.3
638.654,2406.2
638.818,2414.2
638.981,2419.3
639.145,2394.0
639.308,2406.3
639.472,2385.7
639.635,2394.8
639.799,2396.4
639.962,2400.2
640.125,2401.8
640.289,2388.0
640.452,2410.7
640.616,2383.4
640.779,2392.1
640.942,2378.8
641.106,2392.0
641.269,2394.4
641.432,2396.7
641.596,2397.3
641.759,2390.1
641.922,2393.2
642.085,2395.5
642.249,2396.7
642.412,2394.2
642.575,2374.1
642.738,2377.5
642.902,2369.7
643.065,2369.8
643.228,2392.8
643.391,2368.1
643.555,2377.8
643.718,2360.4
643.881,2368.9
644.044,2368.0
644.207,2366.6
644.37,2364.4
644.534,2361.0
644.697,2343.3
644.86,2351.3
645.023,2351.9
645.186,2335.2
645.349,2349.9
645.512,2351.7
645.675,2368.5
645.838,2336.2
646.001,2339.4
646.164,2342.8
646.327,2342.8
646.49,2325.1
646.653,2335.0
646.816,2336.6
646.979,2337.4
647.142,2319.2
647.305,2333.4
647.468,2313.9
647.631,2297.1
647.794,2316.1
647.957,2326.1
648.12,2287.5
648.283,2310.0
648.446,2307.8
648.609,2307.2
648.772,2299.7
648.935,2312.3
649.098,2310.3
649.26,2307.3
649.423,2300.9
649.586,2301.5
649.749,2304.2
649.912,2294.8
650.075,2297.0
650.237,2287.0
650.4,2296.6
650.563,2310.2
650.726,2289.8
650.888,2298.2
651.051,2285.5
651.214,2296.6
651.377,2304.2
651.539,2295.3
651.702,2264.6
651.865,2276.1
652.027,2270.5
652.19,2290.0
652.353,2276.4
652.515,2264.6
652.678,2272.5
652.841,2258.7
653.003,2268.1
653.166,2269.9
653.329,2247.0
653.491,2264.7
653.654,2252.2
653.816,2238.2
653.979,2252.4
654.142,2234.3
654.304,2241.7
654.467,2243.4
654.629,2249.6
654.792,2257.1
654.954,2247.5
655.117,2240.6
655.279,2245.2
655.442,2246.7
655.604,2237.9
655.767,2231.9
655.929,2226.5
656.091,2224.7
656.254,2228.1
656.416,2225.2
656.579,2219.2
656.741,2217.5
656.904,2208.1
657.066,2210.3
657.228,2220.7
657.391,2226.3
657.553,2202.4
657.715,2216.1
657.878,2216.1
658.04,2203.6
658.202,2216.4
658.365,2198.5
658.527,2200.1
658.689,2208.0
658.851,2222.2
659.014,2190.9
659.176,2180.0
659.338,2195.4
659.5,2181.4
659.663,2188.9
659.825,2175.9
659.987,2185.1
660.149,2179.0
660.311,2182.9
660.474,2180.9
660.636,2197.6
660.798,2171.9
660.96,2165.4
661.041,2169.3