File: spectra/VLFR_08-PLA_nobio_Raman_bc328dfe.csv
cm-1,Intensity
-123.878,1853.65
-117.855,1853.3
-111.836,1852.7
-105.821,1851.8
-99.8104,1852.1
-93.8036,1853.6
-87.8007,1853.25
-81.8019,1852.6
-75.807,1852.35
-69.8161,1852.95
-63.8293,1852.85
-57.8464,1853.4
-51.8675,1852.6
-45.8926,1853.85
-39.9216,1853.55
-33.9547,1853.75
-27.9917,1854.25
-22.0326,1856.75
-16.0776,1874.1
-10.1265,2149.05
-4.17932,3124.0
1.76388,2878.9
7.70313,1945.4
13.6384,1857.05
19.5698,1852.95
25.4972,1854.35
31.4207,1853.7
37.3403,1854.3
43.256,1854.4
49.1677,1866.6
55.0755,1936.5
60.9794,2072.1
66.8794,2152.2
72.7754,2162.75
78.6676,2166.3
84.5559,2151.05
90.4402,2149.0
96.3207,2159.9
102.197,2155.3
108.07,2157.0
113.939,2161.9
119.804,2166.95
125.665,2159.5
131.522,2152.35
137.375,2139.2
143.225,2138.9
149.07,2141.95
154.912,2143.3
160.75,2145.95
166.584,2143.65
172.414,2123.35
178.241,2141.0
184.063,2152.3
189.882,2155.4
195.697,2159.25
201.508,2150.35
207.315,2146.35
213.119,2140.4
218.918,2144.0
224.714,2149.1
230.506,2137.75
236.294,2145.2
242.078,2149.95
247.859,2147.5
253.636,2143.05
259.409,2140.5
265.178,2146.75
270.943,2141.3
276.705,2148.45
282.463,2154.65
288.217,2149.5
293.967,2168.95
299.713,2173.15
305.456,2167.8
311.195,2175.75
316.93,2166.85
322.662,2166.7
328.389,2172.95
334.113,2174.4
339.834,2167.9
345.55,2167.3
351.263,2172.75
356.972,2166.35
362.677,2187.1
368.379,2179.75
374.077,2179.0
379.771,2188.5
385.461,2201.15
391.148,2206.9
396.831,2220.6
402.51,2237.2
408.186,2228.2
413.858,2225.4
419.526,2206.4
425.19,2184.65
430.851,2177.85
436.508,2187.6
442.162,2197.0
447.811,2197.4
453.458,2192.9
459.1,2180.5
464.739,2181.25
470.374,2201.65
476.005,2195.8
481.633,2196.15
487.257,2193.85
492.878,2193.15
498.494,2206.1
504.107,2208.15
509.717,2200.85
515.323,2206.75
520.925,2213.55
526.524,2201.0
532.119,2211.8
537.71,2204.95
543.298,2203.8
548.882,2219.15
554.462,2219.45
560.039,2228.4
565.613,2214.2
571.182,2226.45
576.748,2235.9
582.311,2225.5
587.87,2225.45
593.425,2219.25
598.977,2218.45
604.525,2230.2
610.069,2236.3
615.61,2225.75
621.148,2215.2
626.682,2231.75
632.212,2240.75
637.739,2245.95
643.262,2237.8
648.781,2240.15
654.297,2240.7
659.81,2251.3
665.319,2246.7
670.824,2251.4
676.326,2258.8
681.824,2250.1
687.319,2249.4
692.81,2260.9
698.298,2253.1
703.782,2242.8
709.262,2264.95
714.739,2267.15
720.213,2257.45
725.683,2250.45
731.15,2277.4
736.613,2266.65
742.072,2280.65
747.528,2276.55
752.981,2269.95
758.43,2261.7
763.875,2264.5
769.317,2276.85
774.756,2270.65
780.191,2276.4
785.623,2266.45
791.051,2280.15
796.475,2271.05
801.897,2264.4
807.314,2273.65
812.729,2268.65
818.139,2261.6
823.547,2261.55
828.951,2270.65
834.351,2266.15
839.748,2274.75
845.142,2260.3
850.532,2284.4
855.918,2302.0
861.302,2344.25
866.681,2404.0
872.058,2450.0
877.431,2442.65
882.8,2367.05
888.166,2310.4
893.529,2287.1
898.888,2304.7
904.244,2292.85
909.596,2299.9
914.945,2291.75
920.291,2302.55
925.633,2303.15
930.972,2288.55
936.308,2307.4
941.64,2297.65
946.968,2293.4
952.294,2296.15
957.615,2294.55
962.934,2317.45
968.249,2316.6
973.561,2303.3
978.869,2306.65
984.174,2292.35
989.476,2306.55
994.774,2303.25
1000.07,2308.95
1005.36,2304.3
1010.65,2295.95
1015.93,2305.05
1021.22,2327.85
1026.49,2320.9
1031.77,2338.7
1037.04,2358.1
1042.31,2360.5
1047.57,2368.2
1052.83,2341.6
1058.09,2331.25
1063.35,2337.85
1068.6,2316.35
1073.85,2331.6
1079.09,2331.65
1084.33,2341.5
1089.57,2357.3
1094.81,2352.75
1100.04,2356.25
1105.27,2352.0
1110.49,2350.05
1115.71,2368.45
1120.93,2370.5
1126.15,2376.9
1131.36,2384.9
1136.57,2373.05
1141.77,2362.45
1146.98,2330.5
1152.18,2337.55
1157.37,2337.65
1162.56,2333.7
1167.75,2334.9
1172.94,2343.75
1178.12,2353.75
1183.3,2347.4
1188.48,2353.15
1193.65,2339.3
1198.82,2340.75
1203.99,2352.35
1209.15,2334.5
1214.31,2351.65
1219.46,2346.4
1224.62,2346.4
1229.77,2355.0
1234.92,2343.55
1240.06,2359.7
1245.2,2339.85
1250.34,2359.3
1255.47,2350.7
1260.6,2348.2
1265.73,2343.7
1270.85,2335.5
1275.97,2335.3
1281.09,2357.15
1286.21,2363.2
1291.32,2392.9
1296.43,2399.55
1301.53,2395.45
1306.63,2373.8
1311.73,2375.75
1316.83,2385.3
1321.92,2382.7
1327.01,2369.25
1332.1,2376.3
1337.18,2384.0
1342.26,2368.9
1347.34,2383.35
1352.41,2378.3
1357.48,2371.75
1362.55,2381.3
1367.61,2382.4
1372.67,2376.0
1377.73,2389.85
1382.78,2382.45
1387.84,2365.25
1392.88,2376.45
1397.93,2373.3
1402.97,2373.2
1408.01,2359.15
1413.05,2350.75
1418.08,2363.85
1423.11,2376.15
1428.14,2387.1
1433.16,2363.45
1438.18,2382.45
1443.2,2429.3
1448.21,2452.95
1453.22,2461.25
1458.23,2434.35
1463.23,2430.6
1468.23,2408.2
1473.23,2392.95
1478.23,2365.4
1483.22,2376.0
1488.21,2369.9
1493.2,2350.0
1498.18,2352.05
1503.16,2362.1
1508.14,2350.55
1513.11,2365.05
1518.08,2360.25
1523.05,2376.15
1528.01,2363.9
1532.97,2369.4
1537.93,2356.55
1542.89,2371.5
1547.84,2370.4
1552.79,2384.85
1557.73,2370.7
1562.68,2369.3
1567.62,2366.9
1572.56,2380.35
1577.49,2375.9
1582.42,2371.45
1587.35,2372.1
1592.27,2384.4
1597.19,2366.25
1602.11,2385.4
1607.03,2381.45
1611.94,2375.2
1616.85,2368.55
1621.76,2377.4
1626.66,2380.95
1631.56,2371.95
1636.46,2371.5
1641.36,2375.75
1646.25,2374.4
1651.14,2387.3
1656.02,2386.3
1660.9,2372.6
1665.78,2379.7
1670.66,2367.8
1675.54,2384.9
1680.41,2386.8
1685.27,2376.55
1690.14,2374.25
1695.0,2362.9
1699.86,2369.3
1704.71,2377.8
1709.57,2371.1
1714.42,2373.5
1719.26,2362.35
1724.11,2375.25
1728.95,2358.85
1733.79,2381.25
1738.62,2379.0
1743.46,2393.05
1748.28,2404.0
1753.11,2422.0
1757.93,2435.05
1762.75,2439.1
1767.57,2443.65
1772.39,2455.2
1777.2,2440.35
1782.01,2400.35
1786.81,2386.25
1791.62,2378.75
1796.41,2368.05
1801.21,2359.85
1806.01,2361.75
1810.8,2351.95
1815.59,2347.1
1820.37,2333.25
1825.15,2345.3
1829.93,2337.6
1834.71,2345.0
1839.48,2352.45
1844.25,2353.45
1849.02,2357.95
1853.79,2367.05
1858.55,2354.8
1863.31,2354.75
1868.06,2359.25
1872.82,2363.9
1877.57,2366.5
1882.31,2369.85
1887.06,2360.25
1891.8,2372.8
1896.54,2367.9
1901.28,2357.75
1906.01,2362.0
1910.74,2356.6
1915.47,2360.25
1920.19,2362.55
1924.91,2358.7
1929.63,2355.05
1934.35,2356.0
1939.06,2355.4
1943.77,2368.85
1948.48,2373.95
1953.19,2366.2
1957.89,2358.7
1962.59,2349.65
1967.28,2353.8
1971.98,2363.8
1976.67,2364.95
1981.35,2340.3
1986.04,2361.7
1990.72,2365.75
1995.4,2363.9
2000.08,2368.05
2004.75,2357.0
2009.42,2358.05
2014.09,2371.35
2018.75,2372.1
2023.42,2375.2
2028.08,2365.35
2032.73,2360.8
2037.39,2369.1
2042.04,2366.0
2046.69,2360.0
2051.33,2360.95
2055.97,2374.45
2060.61,2371.65
2065.25,2365.55
2069.88,2363.65
2074.52,2368.15
2079.15,2376.05
2083.77,2360.0
2088.39,2373.6
2093.01,2363.75
2097.63,2370.3
2102.25,2369.7
2106.86,2364.2
2111.47,2368.75
2116.08,2378.25
2120.68,2363.3
2125.28,2361.85
2129.88,2368.85
2134.47,2375.65
2139.07,2352.25
2143.66,2367.95
2148.24,2373.65
2152.83,2373.45
2157.41,2351.6
2161.99,2376.85
2166.57,2358.2
2171.14,2362.35
2175.71,2369.15
2180.28,2354.15
2184.84,2372.2
2189.41,2366.65
2193.97,2363.5
2198.52,2364.35
2203.08,2372.2
2207.63,2379.85
2212.18,2371.1
2216.73,2359.25
2221.27,2375.1
2225.81,2374.1
2230.35,2360.75
2234.89,2344.3
2239.42,2362.1
2243.95,2378.95
2248.48,2366.2
2253.0,2370.95
2257.52,2360.95
2262.04,2351.3
2266.56,2354.3
2271.07,2372.45
2275.58,2355.45
2280.09,2357.15
2284.6,2379.6
2289.1,2353.65
2293.6,2349.7
2298.1,2339.75
2302.6,2363.55
2307.09,2362.55
2311.58,2361.5
2316.07,2382.3
2320.55,2358.6
2325.03,2359.85
2329.51,2362.5
2333.99,2355.4
2338.46,2354.95
2342.93,2362.0
2347.4,2368.1
2351.87,2343.3
2356.33,2352.45
2360.79,2360.0
2365.25,2353.35
2369.71,2350.8
2374.16,2344.5
2378.61,2351.15
2383.06,2354.0
2387.5,2349.2
2391.94,2362.45
2396.38,2352.8
2400.82,2333.35
2405.26,2367.9
2409.69,2354.75
2414.12,2332.0
2418.54,2353.55
2422.97,2349.15
2427.39,2349.55
2431.81,2346.4
2436.22,2358.55
2440.64,2339.45
2445.05,2344.05
2449.46,2342.1
2453.86,2333.7
2458.27,2331.75
2462.67,2342.55
2467.06,2344.45
2471.46,2358.2
2475.85,2337.9
2480.24,2327.55
2484.63,2347.4
2489.02,2334.2
2493.4,2333.8
2497.78,2345.3
2502.16,2326.55
2506.53,2337.35
2510.9,2340.25
2515.27,2344.3
2519.64,2340.8
2524.0,2334.6
2528.37,2320.7
2532.73,2339.2
2537.08,2338.35
2541.44,2339.65
2545.79,2328.95
2550.14,2336.8
2554.48,2333.1
2558.83,2335.05
2563.17,2320.5
2567.51,2340.35
2571.85,2325.45
2576.18,2339.4
2580.51,2326.9
2584.84,2321.65
2589.17,2324.35
2593.49,2326.65
2597.81,2325.2
2602.13,2349.1
2606.45,2334.65
2610.76,2328.7
2615.07,2329.0
2619.38,2330.6
2623.69,2322.05
2627.99,2334.35
2632.29,2330.8
2636.59,2326.1
2640.89,2321.7
2645.18,2323.95
2649.47,2338.1
2653.76,2318.4
2658.05,2337.8
2662.33,2327.4
2666.61,2327.95
2670.89,2323.35
2675.17,2326.75
2679.44,2311.6
2683.71,2308.95
2687.98,2312.95
2692.25,2325.7
2696.51,2315.6
2700.77,2320.4
2705.03,2315.1
2709.29,2321.65
2713.54,2316.7
2717.79,2293.9
2722.04,2312.7
2726.29,2316.65
2730.53,2319.15
2734.77,2331.95
2739.01,2324.7
2743.25,2332.8
2747.48,2316.7
2751.71,2327.65
2755.94,2331.25
2760.17,2326.55
2764.39,2306.85
2768.61,2316.75
2772.83,2315.0
2777.05,2307.0
2781.27,2298.25
2785.48,2303.75
2789.69,2301.45
2793.89,2300.05
2798.1,2310.8
2802.3,2298.2
2806.5,2294.25
2810.7,2280.4
2814.89,2293.05
2819.09,2304.85
2823.28,2314.7
2827.46,2284.4
2831.65,2294.25
2835.83,2286.1
2840.01,2291.35
2844.19,2288.2
2848.37,2282.35
2852.54,2285.85
2856.71,2290.25
2860.88,2289.1
2865.05,2276.05
2869.21,2314.0
2873.37,2331.7
2877.53,2352.0
2881.69,2385.9
2885.84,2368.5
2889.99,2337.5
2894.14,2321.5
2898.29,2340.7
2902.43,2354.1
2906.58,2341.45
2910.72,2331.4
2914.85,2336.3
2918.99,2341.45
2923.12,2352.2
2927.25,2374.95
2931.38,2399.9
2935.5,2472.6
2939.63,2640.55
2943.75,2783.85
2947.87,2784.75
2951.98,2692.95
2956.1,2583.0
2960.21,2505.2
2964.32,2430.0
2968.42,2426.8
2972.53,2389.9
2976.63,2390.05
2980.73,2382.2
2984.83,2371.8
2988.92,2403.2
2993.01,2436.9
2997.1,2470.1
3001.19,2480.8
3005.28,2459.5
3009.36,2432.75
3013.44,2421.55
3017.52,2389.35
3021.6,2357.65
3025.67,2304.35
3029.74,2289.15
3033.81,2290.35
3037.88,2270.9
3041.94,2281.0
3046.01,2269.3
3050.07,2261.15
3054.12,2253.8
3058.18,2252.15
3062.23,2259.55
3066.28,2234.25
3070.33,2236.45
3074.38,2248.75
3078.42,2236.25
3082.46,2251.6
3086.5,2233.75
3090.54,2246.05
3094.57,2237.85
3098.6,2242.55
3102.63,2234.65
3106.66,2234.8
3110.69,2243.3
3114.71,2223.9
3118.73,2233.95
3122.75,2235.4
3126.77,2246.9
3130.78,2239.9
3134.79,2228.85
3138.8,2211.8
3142.81,2235.25
3146.81,2226.7
3150.82,2224.2
3154.82,2232.7
3158.81,2212.55
3162.81,2213.75
3166.8,2207.75
3170.79,2224.4
3174.78,2207.85
3178.77,2207.3
3182.75,2216.45
3186.74,2209.3
3190.72,2204.25
3194.69,2210.7
3198.67,2219.6
3202.64,2207.4
3206.61,2212.95
3210.58,2213.4
3214.55,2207.7
3218.51,2195.25
3222.47,2207.2
3226.43,2215.55
3230.39,2207.8
3234.35,2212.4
3238.3,2206.5
3242.25,2194.4
3246.2,2190.45
3250.15,2198.9
3254.09,2196.6
3258.03,2201.8
3261.97,2200.15
3265.91,2188.6
3269.84,2197.5
3273.78,2195.05
3277.71,2193.15
3281.64,2196.35
3285.56,2198.5
3289.49,2185.8
3293.41,2193.05
3297.33,2184.9
3301.25,2176.0
3305.16,2190.0
3309.07,2175.25
3312.99,2179.8
3316.89,2181.95
3320.8,2169.7
3324.7,2170.5
3328.61,2176.25
3332.51,2170.45
3336.4,2165.65
3340.3,2159.35
3344.19,2167.3
3348.08,2165.75
3351.97,2157.3
3355.86,2167.35
3359.74,2162.05
3363.63,2155.55
3367.51,2145.9
3371.39,2155.3
3375.26,2158.65
3379.13,2150.7
3383.01,2159.95
3386.88,2148.9
3390.74,2143.8
3394.61,2138.05
3398.47,2129.5
3402.33,2146.45
3406.19,2148.85
3410.05,2144.0
3413.9,2151.8
3417.75,2153.65
3421.6,2139.3
3425.45,2143.9
3429.3,2140.55
3433.14,2146.75
3436.98,2144.7
3440.82,2130.95
3444.66,2135.7
3448.49,2127.7
3452.32,2135.35
3456.15,2131.95
3459.98,2134.1
3463.81,2136.65
3467.63,2126.25
3471.46,2128.75
3475.28,2130.5
3479.09,2125.0
3482.91,2136.0
3486.72,2123.95
3490.53,2116.45
3494.34,2120.7
3498.15,2120.6
3501.96,2129.1
3505.76,2115.2
3509.56,2118.7
3513.36,2115.55
3517.15,2109.2
3520.95,2102.25
3524.74,2109.85
3528.53,2111.25
3532.32,2109.05
3536.11,2114.45
3539.89,2111.8
3543.67,2100.25
3547.45,2090.3
3551.23,2083.15
3555.0,2084.0
3558.78,2091.3
3562.55,2102.25
3566.32,2095.4
3570.09,2096.05
3573.85,2092.9
3577.61,2103.0
3581.37,2098.2
3585.13,2098.9
3588.89,2101.8
3592.64,2100.1
3596.4,2088.95
3600.15,2090.8
3603.9,2076.8
3607.64,2093.05
3611.39,2090.8
3615.13,2096.15
3618.87,2097.2
3622.61,2085.6
3626.34,2079.35
3630.08,2082.45
3633.81,2074.45
3637.54,2078.6
3641.27,2080.1
3644.99,2083.8
3648.72,2081.2
3652.44,2078.5
3656.16,2072.75
3659.87,2083.6
3663.59,2092.45
3665.45,2079.35