File: spectra/VLFR_06-PET_bio_Raman_6ac0cbb0.csv
nm,Intensity
528.65,1848.35
528.819,1848.7
528.987,1849.05
529.155,1849.4
529.324,1849.75
529.492,1848.65
529.66,1849.85
529.829,1849.15
529.997,1849.0
530.165,1849.35
530.334,1848.75
530.502,1849.6
530.67,1849.15
530.839,1849.75
531.007,1849.7
531.175,1849.35
531.344,1850.8
531.512,1851.25
531.68,1863.45
531.848,2031.8
532.017,2846.8
532.185,2509.25
532.353,1936.85
532.521,1851.05
532.69,1851.05
532.858,1849.8
533.026,1849.8
533.194,1851.3
533.363,1852.4
533.531,1876.4
533.699,2016.05
533.867,2261.0
534.036,2368.45
534.204,2401.75
534.372,2359.65
534.54,2348.9
534.708,2325.25
534.877,2300.5
535.045,2277.75
535.213,2263.5
535.381,2256.1
535.549,2235.15
535.717,2215.2
535.886,2208.25
536.054,2186.5
536.222,2186.3
536.39,2186.15
536.558,2183.65
536.726,2183.45
536.894,2176.75
537.062,2176.95
537.231,2193.65
537.399,2194.35
537.567,2189.3
537.735,2209.2
537.903,2213.55
538.071,2197.95
538.239,2194.2
538.407,2213.55
538.575,2207.45
538.743,2223.35
538.911,2221.65
539.079,2224.4
539.247,2225.05
539.415,2214.85
539.583,2245.65
539.751,2253.95
539.919,2251.4
540.087,2243.7
540.255,2229.7
540.423,2246.6
540.591,2248.4
540.759,2250.65
540.927,2251.65
541.095,2236.2
541.263,2235.35
541.431,2255.85
541.599,2256.3
541.767,2241.25
541.935,2261.05
542.103,2263.7
542.271,2268.2
542.439,2270.2
542.607,2280.9
542.775,2270.05
542.943,2278.8
543.111,2276.55
543.279,2293.8
543.446,2283.5
543.614,2277.5
543.782,2293.45
543.95,2285.85
544.118,2303.05
544.286,2300.0
544.454,2292.75
544.622,2301.95
544.789,2285.9
544.957,2300.15
545.125,2301.4
545.293,2299.45
545.461,2286.7
545.629,2290.8
545.796,2285.25
545.964,2315.8
546.132,2315.05
546.3,2305.4
546.468,2313.6
546.635,2319.1
546.803,2322.85
546.971,2323.4
547.139,2315.05
547.306,2312.95
547.474,2299.1
547.642,2321.2
547.81,2327.6
547.977,2323.85
548.145,2326.15
548.313,2330.0
548.481,2339.9
548.648,2331.45
548.816,2309.65
548.984,2334.75
549.151,2351.3
549.319,2333.75
549.487,2343.8
549.655,2323.65
549.822,2341.15
549.99,2348.95
550.158,2326.45
550.325,2336.8
550.493,2365.6
550.66,2405.65
550.828,2377.9
550.996,2351.95
551.163,2356.9
551.331,2348.8
551.499,2345.35
551.666,2369.45
551.834,2361.55
552.001,2370.3
552.169,2360.85
552.337,2355.75
552.504,2347.25
552.672,2379.8
552.839,2388.15
553.007,2373.8
553.174,2352.05
553.342,2382.7
553.509,2386.35
553.677,2373.2
553.844,2361.55
554.012,2368.35
554.179,2383.5
554.347,2390.2
554.514,2385.25
554.682,2393.0
554.849,2386.05
555.017,2396.2
555.184,2396.7
555.352,2386.5
555.519,2425.05
555.687,2413.75
555.854,2416.05
556.022,2432.6
556.189,2439.25
556.357,2442.3
556.524,2422.3
556.691,2421.5
556.859,2452.05
557.026,2453.5
557.194,2446.85
557.361,2494.7
557.528,2510.85
557.696,2509.45
557.863,2451.8
558.031,2446.8
558.198,2451.9
558.365,2460.2
558.533,2440.95
558.7,2460.05
558.867,2442.75
559.035,2449.75
559.202,2429.25
559.369,2457.8
559.537,2437.0
559.704,2451.9
559.871,2456.5
560.038,2441.5
560.206,2456.95
560.373,2461.0
560.54,2454.65
560.708,2445.9
560.875,2466.55
561.042,2472.65
561.209,2465.5
561.377,2475.6
561.544,2479.35
561.711,2512.45
561.878,2488.9
562.045,2471.9
562.213,2492.55
562.38,2507.25
562.547,2514.8
562.714,2496.25
562.881,2513.25
563.049,2516.5
563.216,2524.8
563.383,2493.85
563.55,2526.8
563.717,2526.0
563.884,2515.1
564.052,2510.2
564.219,2521.8
564.386,2526.65
564.553,2537.1
564.72,2552.1
564.887,2558.8
565.054,2559.6
565.221,2576.05
565.388,2595.65
565.556,2618.0
565.723,2627.85
565.89,2622.55
566.057,2596.6
566.224,2596.5
566.391,2593.1
566.558,2612.35
566.725,2565.4
566.892,2595.0
567.059,2553.85
567.226,2584.65
567.393,2619.95
567.56,2602.55
567.727,2651.45
567.894,2598.95
568.061,2595.85
568.228,2639.0
568.395,2632.25
568.562,2595.15
568.729,2620.8
568.896,2624.25
569.063,2633.1
569.23,2646.1
569.396,2646.4
569.563,2651.85
569.73,2653.4
569.897,2658.35
570.064,2629.25
570.231,2665.7
570.398,2680.95
570.565,2733.15
570.732,2762.6
570.898,2727.4
571.065,2810.95
571.232,2829.35
571.399,2831.6
571.566,2786.4
571.733,2787.55
571.9,2726.75
572.066,2753.65
572.233,2731.55
572.4,2729.55
572.567,2717.55
572.734,2760.2
572.9,2716.45
573.067,2724.75
573.234,2713.45
573.401,2750.1
573.567,2712.3
573.734,2727.5
573.901,2742.1
574.068,2752.4
574.234,2745.05
574.401,2747.7
574.568,2730.45
574.734,2755.05
574.901,2724.65
575.068,2765.35
575.235,2810.85
575.401,2793.9
575.568,2767.9
575.735,2778.95
575.901,2808.6
576.068,2767.15
576.235,2813.0
576.401,2784.45
576.568,2842.0
576.734,2817.5
576.901,2818.95
577.068,2820.2
577.234,2823.45
577.401,2804.05
577.567,2824.15
577.734,2781.75
577.901,2817.1
578.067,2824.1
578.234,2816.7
578.4,2796.95
578.567,2821.6
578.733,2813.95
578.9,2829.05
579.066,2801.85
579.233,2816.0
579.399,2872.15
579.566,2845.85
579.732,2860.95
579.899,2812.35
580.065,2838.55
580.232,2883.7
580.398,2873.1
580.565,2851.45
580.731,2883.9
580.898,2860.9
581.064,2854.8
581.231,2873.2
581.397,2872.15
581.563,2967.15
581.73,3001.55
581.896,3146.8
582.063,3358.85
582.229,3331.55
582.395,3132.5
582.562,2935.9
582.728,2914.95
582.895,2880.0
583.061,2886.55
583.227,2894.7
583.394,2878.25
583.56,2913.1
583.726,2921.75
583.893,2917.2
584.059,2931.6
584.225,2892.15
584.391,2921.35
584.558,2890.1
584.724,2924.2
584.89,2929.65
585.057,2931.35
585.223,2925.3
585.389,2986.5
585.555,3075.7
585.722,3117.6
585.888,3160.05
586.054,3181.45
586.22,3156.1
586.386,3071.3
586.553,3047.2
586.719,2972.65
586.885,2936.4
587.051,2961.05
587.217,2957.2
587.384,2905.95
587.55,2953.2
587.716,2916.9
587.882,2947.75
588.048,2921.45
588.214,2946.9
588.38,2935.65
588.546,2960.3
588.713,2948.05
588.879,2951.35
589.045,2947.55
589.211,2927.75
589.377,2906.15
589.543,2929.6
589.709,2936.35
589.875,2933.7
590.041,2939.75
590.207,2930.45
590.373,2899.45
590.539,2921.8
590.705,2932.3
590.871,2957.6
591.037,2947.15
591.203,2925.4
591.369,2945.8
591.535,2965.05
591.701,2926.25
591.867,2953.5
592.033,2982.85
592.199,2933.5
592.365,2970.4
592.531,2972.35
592.697,2968.85
592.863,2956.75
593.029,2943.5
593.195,2930.1
593.361,2970.3
593.526,2902.2
593.692,2932.6
593.858,2960.65
594.024,2957.3
594.19,2959.2
594.356,2929.4
594.522,2965.0
594.687,2936.8
594.853,2956.1
595.019,2980.1
595.185,2979.7
595.351,2922.0
595.516,2992.55
595.682,2953.7
595.848,2974.0
596.014,2941.65
596.18,3004.35
596.345,2958.3
596.511,2953.4
596.677,2983.8
596.843,2948.6
597.008,2958.75
597.174,2952.3
597.34,3004.75
597.505,2959.0
597.671,2969.25
597.837,2990.9
598.002,2966.0
598.168,2971.45
598.334,2967.65
598.499,2948.8
598.665,2977.8
598.831,2944.8
598.996,2941.95
599.162,2979.15
599.328,3000.3
599.493,2989.5
599.659,2928.7
599.824,2996.95
599.99,2982.7
600.156,2990.8
600.321,2994.75
600.487,2990.15
600.652,2930.5
600.818,2996.25
600.983,3007.2
601.149,2949.75
601.314,2994.95
601.48,2967.5
601.645,2975.3
601.811,3040.65
601.976,2978.05
602.142,2974.1
602.307,2992.65
602.473,3016.65
602.638,2964.75
602.804,2977.95
602.969,3019.8
603.135,2995.4
603.3,3004.45
603.466,2989.8
603.631,2994.95
603.796,2983.05
603.962,2983.3
604.127,2979.35
604.293,3026.1
604.458,2970.3
604.623,2977.05
604.789,2997.5
604.954,2980.55
605.119,2993.2
605.285,2947.5
605.45,2986.05
605.615,2990.85
605.781,2993.25
605.946,3000.35
606.111,2966.65
606.277,2977.15
606.442,2997.0
606.607,3012.05
606.772,2985.9
606.938,3007.4
607.103,3001.65
607.268,2984.1
607.433,3012.2
607.599,3024.7
607.764,2993.2
607.929,2962.9
608.094,3028.2
608.259,2985.9
608.425,2993.6
608.59,2969.6
608.755,2999.25
608.92,2998.85
609.085,3001.5
609.25,2997.25
609.415,2973.6
609.581,3006.4
609.746,2996.55
609.911,3005.1
610.076,3002.6
610.241,2982.6
610.406,2979.85
610.571,2994.4
610.736,2996.3
610.901,3008.6
611.066,2999.65
611.231,3030.4
611.396,2983.8
611.561,2965.3
611.727,3031.55
611.892,3002.95
612.057,2978.3
612.222,2978.4
612.386,2990.0
612.551,3016.05
612.716,3019.25
612.881,2983.35
613.046,2987.4
613.211,3043.8
613.376,2993.6
613.541,2985.15
613.706,2975.25
613.871,2977.35
614.036,3050.65
614.201,2992.15
614.366,3016.25
614.531,3002.45
614.695,3017.45
614.86,2998.4
615.025,3009.4
615.19,3005.9
615.355,3018.35
615.52,3013.65
615.684,2984.05
615.849,2992.4
616.014,3016.2
616.179,3044.65
616.344,2995.6
616.508,2989.4
616.673,2995.7
616.838,3029.9
617.003,3019.65
617.168,3003.95
617.332,3034.75
617.497,3029.15
617.662,2996.25
617.826,3007.85
617.991,3031.8
618.156,3055.1
618.32,3038.7
618.485,3024.6
618.65,3087.85
618.814,2990.95
618.979,2991.7
619.144,3072.95
619.308,3030.95
619.473,3002.5
619.638,2988.35
619.802,3037.05
619.967,3052.45
620.131,3034.35
620.296,3037.8
620.461,3067.0
620.625,3012.15
620.79,3041.5
620.954,3035.05
621.119,3001.5
621.283,3017.55
621.448,3024.85
621.612,3038.35
621.777,3034.05
621.941,3006.8
622.106,3032.1
622.27,3058.9
622.435,3036.4
622.599,3035.85
622.764,3045.0
622.928,3040.05
623.093,3018.05
623.257,3062.15
623.422,3057.15
623.586,3043.6
623.75,3034.75
623.915,3040.75
624.079,3020.6
624.244,3080.85
624.408,3076.85
624.572,3032.75
624.737,3051.95
624.901,3065.6
625.065,3039.05
625.23,3066.8
625.394,3046.7
625.558,3046.75
625.723,3037.85
625.887,3039.2
626.051,3044.75
626.215,3079.95
626.38,3027.75
626.544,3090.2
626.708,3009.2
626.872,3078.0
627.037,3081.05
627.201,3063.9
627.365,3059.55
627.529,3047.1
627.693,3053.8
627.858,3096.6
628.022,3069.65
628.186,3062.7
628.35,3141.6
628.514,3141.75
628.678,3078.25
628.843,3118.55
629.007,3119.55
629.171,3106.65
629.335,3095.05
629.499,3104.6
629.663,3115.15
629.827,3103.5
629.991,3092.9
630.155,3085.85
630.319,3118.35
630.483,3117.35
630.647,3106.75
630.812,3188.1
630.976,3174.0
631.14,3085.1
631.304,3173.1
631.468,3180.25
631.632,3277.8
631.796,3175.8
631.959,3174.9
632.123,3225.1
632.287,3160.05
632.451,3198.05
632.615,3151.2
632.779,3196.15
632.943,3155.3
633.107,3203.2
633.271,3174.35
633.435,3182.85
633.599,3229.35
633.763,3163.9
633.926,3163.65
634.09,3125.8
634.254,3154.3
634.418,3169.7
634.582,3155.65
634.746,3139.4
634.909,3116.65
635.073,3154.8
635.237,3168.9
635.401,3183.15
635.564,3127.4
635.728,3241.15
635.892,3132.25
636.056,3187.9
636.219,3181.25
636.383,3308.05
636.547,3259.25
636.711,3210.5
636.874,3218.4
637.038,3217.15
637.202,3161.4
637.365,3175.65
637.529,3152.5
637.693,3178.35
637.856,3181.95
638.02,3149.45
638.184,3182.1
638.347,3178.9
638.511,3099.5
638.674,3189.45
638.838,3151.2
639.002,3131.85
639.165,3180.2
639.329,3133.85
639.492,3203.05
639.656,3137.75
639.819,3138.25
639.983,3138.1
640.146,3165.65
640.31,3162.8
640.473,3161.1
640.637,3127.5
640.8,3160.7
640.964,3154.7
641.127,3145.7
641.291,3071.35
641.454,3182.65
641.618,3124.25
641.781,3138.85
641.944,3117.4
642.108,3176.05
642.271,3179.05
642.435,3175.9
642.598,3116.1
642.761,3162.6
642.925,3133.3
643.088,3155.1
643.251,3131.2
643.415,3141.95
643.578,3105.1
643.741,3126.2
643.905,3108.25
644.068,3179.0
644.231,3162.8
644.394,3140.3
644.558,3142.0
644.721,3153.9
644.884,3110.7
645.047,3120.35
645.211,3186.2
645.374,3106.15
645.537,3133.9
645.7,3103.05
645.863,3208.4
646.027,3114.15
646.19,3143.85
646.353,3122.9
646.516,3065.25
646.679,3100.25
646.842,3101.0
647.005,3069.3
647.169,3124.8
647.332,3142.4
647.495,3117.5
647.658,3068.95
647.821,3166.2
647.984,3078.95
648.147,3154.8
648.31,3042.3
648.473,3085.3
648.636,3089.4
648.799,3063.0
648.962,3100.9
649.125,3107.6
649.288,3058.05
649.451,3041.65
649.614,3115.95
649.777,3045.7
649.94,3058.55
650.103,3090.05
650.266,3037.2
650.429,3074.6
650.592,3065.75
650.755,3042.6
650.918,3002.75
651.08,3066.55
651.243,3104.25
651.406,3072.8
651.569,2987.6
651.732,3031.95
651.895,3088.15
652.058,3044.6
652.22,3041.2
652.383,3034.1
652.546,3056.85
652.709,3066.3
652.872,2960.4
653.034,2979.2
653.197,3027.2
653.36,3064.8
653.523,3022.45
653.685,2977.35
653.848,2980.1
654.011,3048.6
654.173,2992.9
654.336,2950.45
654.499,2986.95
654.662,2948.1
654.824,2978.7
654.987,3010.3
655.149,2956.1
655.312,2971.5
655.475,2971.4
655.637,2952.45
655.8,2988.95
655.963,2975.05
656.125,2969.2
656.288,2952.3
656.45,2973.1
656.613,2912.8
656.775,2921.55
656.938,2936.05
657.1,2880.1
657.263,2971.7
657.425,2916.6
657.588,2949.6
657.75,2909.75
657.913,2950.0
658.075,2925.55
658.238,2885.15
658.4,2833.35
658.563,2938.0
658.725,2864.45
658.888,2834.95
659.05,2858.15
659.212,2890.05
659.375,2842.95
659.537,2854.35
659.7,2879.35
659.862,2851.4
660.024,2876.2
660.187,2873.95
660.349,2827.45
660.511,2857.3
660.674,2816.0
660.836,2799.4
660.998,2803.75
661.079,2799.6