File: spectra/VLFR_07-PET_nobio_Raman_755c3207.csv
nm,Intensity
791.377,11011.0
791.652,10696.5
791.927,10472.6
792.202,10241.1
792.477,10023.4
792.752,9802.92
793.027,9592.98
793.301,9495.22
793.576,9444.58
793.851,9405.84
794.126,9289.48
794.401,9233.56
794.676,9048.58
794.951,8959.82
795.225,9102.3
795.5,9063.72
795.775,8991.16
796.05,9077.76
796.325,8941.94
796.599,8809.94
796.874,8869.0
797.149,8987.32
797.424,8892.94
797.698,8871.72
797.973,8881.76
798.248,8852.92
798.523,8911.22
798.797,8949.1
799.072,8799.28
799.347,8734.32
799.622,8833.34
799.896,8843.76
800.171,8737.56
800.446,8711.98
800.72,8792.68
800.995,8745.48
801.27,8766.7
801.544,8756.76
801.819,8732.78
802.094,8799.46
802.368,8829.36
802.643,8651.72
802.918,8526.66
803.192,8525.68
803.467,8544.8
803.742,8529.46
804.016,8422.74
804.291,8514.2
804.565,8472.16
804.84,8378.66
805.114,8380.94
805.389,8365.3
805.664,8341.94
805.938,8313.86
806.213,8342.6
806.487,8306.08
806.762,8245.98
807.036,8325.2
807.311,8235.66
807.585,8208.16
807.86,8191.0
808.134,8210.08
808.409,8180.26
808.683,8152.16
808.958,8173.64
809.232,8124.74
809.507,8122.66
809.781,8150.16
810.056,8058.56
810.33,8077.92
810.605,8008.14
810.879,7993.04
811.153,8039.86
811.428,8060.9
811.702,8028.24
811.977,7952.18
812.251,7970.92
812.525,7935.16
812.8,7932.2
813.074,7866.76
813.349,7903.22
813.623,7914.14
813.897,7902.52
814.172,7871.7
814.446,7844.96
814.72,7751.0
814.995,7813.78
815.269,7798.12
815.543,7734.44
815.818,7734.9
816.092,7685.96
816.366,7756.46
816.64,7635.48
816.915,7663.58
817.189,7688.96
817.463,7653.7
817.737,7554.92
818.012,7518.54
818.286,7659.04
818.56,7668.28
818.834,7583.68
819.109,7507.56
819.383,7542.94
819.657,7512.22
819.931,7525.36
820.205,7479.6
820.48,7568.3
820.754,7569.9
821.028,7505.52
821.302,7380.8
821.576,7419.76
821.85,7358.76
822.125,7414.76
822.399,7381.18
822.673,7333.7
822.947,7270.64
823.221,7263.08
823.495,7311.8
823.769,7346.28
824.043,7258.64
824.317,7212.26
824.591,7248.06
824.865,7197.28
825.14,7205.94
825.414,7330.94
825.688,7454.5
825.962,7529.04
826.236,7466.62
826.51,7288.04
826.784,7138.48
827.058,7141.94
827.332,7088.68
827.606,7066.82
827.88,7082.84
828.154,7055.92
828.428,6972.48
828.702,6968.84
828.976,7043.86
829.249,7083.74
829.523,7017.22
829.797,6952.08
830.071,6910.8
830.345,6931.78
830.619,7056.84
830.893,7134.42
831.167,7059.28
831.441,6968.72
831.715,6909.3
831.988,6849.8
832.262,6864.96
832.536,6868.74
832.81,6924.72
833.084,6840.7
833.358,6759.06
833.632,6754.26
833.905,6782.06
834.179,6773.16
834.453,6716.72
834.727,6735.2
835.001,6708.1
835.274,6700.44
835.548,6719.84
835.822,6682.98
836.096,6677.14
836.369,6727.4
836.643,6737.16
836.917,6771.44
837.191,6777.2
837.464,6783.78
837.738,6797.82
838.012,6756.52
838.285,6727.94
838.559,6742.4
838.833,6729.62
839.106,6711.3
839.38,6747.2
839.654,6709.22
839.927,6710.56
840.201,6697.54
840.475,6747.76
840.748,6857.28
841.022,6952.52
841.295,6936.88
841.569,6927.62
841.843,6896.1
842.116,6787.22
842.39,6685.56
842.663,6642.24
842.937,6643.38
843.211,6633.9
843.484,6606.76
843.758,6594.8
844.031,6531.52
844.305,6512.74
844.578,6492.4
844.852,6457.2
845.125,6424.24
845.399,6431.78
845.672,6412.64
845.946,6328.0
846.219,6306.58
846.493,6326.98
846.766,6334.5
847.039,6264.5
847.313,6247.74
847.586,6281.66
847.86,6326.82
848.133,6310.28
848.407,6232.58
848.68,6223.88
848.953,6209.22
849.227,6219.72
849.5,6242.22
849.773,6230.36
850.047,6191.08
850.32,6214.8
850.593,6191.28
850.867,6194.56
851.14,6186.76
851.413,6150.7
851.687,6172.8
851.96,6191.12
852.233,6197.82
852.507,6188.38
852.78,6186.72
853.053,6202.46
853.326,6175.96
853.6,6074.98
853.873,6156.12
854.146,6146.78
854.419,6114.58
854.693,6136.42
854.966,6164.72
855.239,6116.04
855.512,6063.24
855.785,6036.72
856.059,6064.74
856.332,6056.66
856.605,6037.64
856.878,5995.16
857.151,5969.9
857.424,6011.76
857.698,6038.82
857.971,6064.62
858.244,6127.38
858.517,6149.52
858.79,6183.94
859.063,6132.9
859.336,6138.7
859.609,6134.08
859.882,6154.7
860.155,6184.18
860.428,6194.78
860.701,6165.46
860.974,6162.96
861.247,6088.4
861.52,6064.76
861.793,5989.2
862.066,5917.78
862.339,5919.22
862.612,5941.06
862.885,5898.3
863.158,5864.66
863.431,5905.48
863.704,5932.04
863.977,5925.46
864.25,5933.06
864.523,5969.92
864.796,5948.36
865.069,5859.16
865.342,5849.46
865.615,5874.44
865.888,5850.08
866.16,5786.26
866.433,5768.88
866.706,5758.08
866.979,5807.74
867.252,5776.74
867.525,5737.1
867.798,5733.96
868.07,5717.36
868.343,5754.52
868.616,5800.64
868.889,5775.66
869.162,5740.96
869.434,5754.24
869.707,5744.22
869.98,5779.08
870.253,5808.88
870.525,5810.34
870.798,5829.42
871.071,5868.5
871.344,5899.74
871.616,5912.08
871.889,5944.66
872.162,5965.02
872.434,6020.48
872.707,6114.72
872.98,6097.64
873.252,6032.26
873.525,6028.8
873.798,6024.16
874.07,5991.14
874.343,5952.64
874.615,5882.58
874.888,5807.62
875.161,5779.48
875.433,5718.76
875.706,5693.4
875.978,5688.94
876.251,5654.46
876.524,5651.38
876.796,5609.06
877.069,5605.66
877.341,5606.52
877.614,5590.2
877.886,5563.46
878.159,5505.96
878.431,5521.68
878.704,5557.38
878.976,5548.94
879.249,5526.72
879.521,5523.76
879.794,5493.1
880.066,5496.22
880.338,5515.98
880.611,5523.84
880.883,5526.2
881.156,5496.82
881.428,5501.46
881.7,5485.36
881.973,5463.24
882.245,5509.16
882.518,5487.48
882.79,5508.4
883.062,5508.14
883.335,5475.5
883.607,5418.86
883.879,5415.52
884.152,5423.96
884.424,5431.0
884.696,5428.96
884.968,5397.08
885.241,5392.48
885.513,5429.16
885.785,5461.76
886.058,5424.34
886.33,5387.1
886.602,5362.98
886.874,5334.58
887.146,5312.38
887.419,5350.44
887.691,5345.72
887.963,5311.28
888.235,5307.56
888.507,5324.12
888.78,5324.78
889.052,5302.38
889.324,5272.82
889.596,5240.68
889.868,5246.98
890.14,5233.88
890.412,5211.4
890.684,5236.66
890.957,5251.28
891.229,5209.76
891.501,5208.28
891.773,5226.8
892.045,5250.76
892.317,5278.46
892.589,5229.34
892.861,5202.58
893.133,5186.36
893.405,5141.88
893.677,5124.84
893.949,5130.14
894.221,5143.58
894.493,5121.94
894.765,5128.54
895.037,5128.4
895.309,5116.92
895.581,5125.48
895.853,5120.88
896.125,5100.48
896.397,5099.56
896.668,5115.06
896.94,5130.42
897.212,5184.0
897.484,5270.82
897.756,5401.48
898.028,5582.24
898.3,5709.04
898.571,5726.54
898.843,5689.92
899.115,5587.0
899.387,5494.82
899.659,5415.4
899.931,5309.14
900.202,5194.02
900.474,5073.06
900.746,4997.3
901.018,4965.3
901.289,4968.26
901.561,4956.56
901.833,4957.64
902.105,4971.82
902.376,4947.86
902.648,4903.62
902.92,4875.16
903.191,4889.94
903.463,4909.22
903.735,4925.74
904.006,4932.16
904.278,4916.78
904.55,4920.44
904.821,4899.7
905.093,4876.24
905.365,4891.34
905.636,4903.8
905.908,4922.36
906.179,4952.5
906.451,4999.82
906.722,5118.64
906.994,5193.36
907.266,5256.84
907.537,5348.1
907.809,5336.12
908.08,5336.54
908.352,5305.16
908.623,5270.48
908.895,5187.86
909.166,5088.88
909.438,5022.1
909.709,4987.9
909.981,4926.8
910.252,4877.78
910.523,4840.38
910.795,4788.2
911.066,4742.82
911.338,4740.08
911.609,4735.22
911.881,4717.28
912.152,4703.74
912.423,4689.78
912.695,4696.34
912.966,4692.42
913.237,4717.22
913.509,4697.58
913.78,4679.86
914.051,4677.7
914.323,4658.52
914.594,4658.46
914.865,4629.76
915.136,4632.2
915.408,4634.64
915.679,4628.94
915.95,4612.76
916.221,4612.46
916.493,4608.4
916.764,4610.82
917.035,4610.94
917.306,4596.88
917.578,4587.28
917.849,4591.38
918.12,4608.12
918.391,4581.04
918.662,4568.3
918.933,4570.86
919.204,4565.16
919.476,4553.7
919.747,4546.32
920.018,4539.66
920.289,4539.7
920.56,4541.22
920.831,4535.06
921.102,4535.88
921.373,4526.5
921.644,4521.1
921.915,4527.38
922.186,4509.24
922.457,4484.46
922.728,4477.32
922.999,4460.48
923.27,4468.42
923.541,4481.76
923.812,4477.4
924.083,4466.72
924.354,4463.8
924.625,4452.46
924.896,4459.38
925.167,4461.06
925.438,4440.94
925.709,4435.26
925.98,4423.86
926.251,4419.58
926.522,4414.1
926.792,4412.5
927.063,4417.8
927.334,4409.44
927.605,4391.96
927.876,4408.52
928.147,4408.22
928.417,4384.78
928.688,4367.18
928.959,4364.24
929.23,4364.66
929.501,4355.48
929.771,4337.68
930.042,4317.24
930.313,4332.32
930.584,4343.94
930.854,4349.7
931.125,4334.52
931.396,4323.98
931.666,4316.26
931.937,4312.64
932.208,4302.34
932.478,4284.36
932.749,4280.88
933.02,4280.14
933.29,4280.14
933.561,4274.3
933.832,4262.58
934.102,4256.92
934.373,4268.24
934.643,4274.08
934.914,4274.48
935.184,4262.22
935.455,4269.82
935.726,4267.02
935.996,4249.44
936.267,4240.42
936.537,4230.7
936.808,4207.82
937.078,4206.24
937.349,4209.74
937.619,4203.9
937.89,4218.32
938.16,4225.7
938.43,4215.24
938.701,4207.26
938.971,4213.76
939.242,4211.34
939.512,4193.42
939.782,4183.18
940.053,4191.6
940.323,4184.68
940.594,4179.74
940.864,4179.52
941.134,4176.68
941.405,4169.64
941.675,4172.3
941.945,4163.12
942.216,4154.96
942.486,4157.4
942.756,4160.2
943.026,4160.12
943.297,4148.02
943.567,4136.4
943.837,4135.46
944.107,4136.4
944.378,4139.0
944.648,4133.82
944.918,4122.76
945.188,4121.72
945.458,4109.44
945.729,4109.88
945.999,4107.56
946.269,4113.8
946.539,4114.5
946.809,4121.32
947.079,4110.76
947.349,4089.74
947.62,4091.96
947.89,4100.8
948.16,4093.0
948.43,4083.62
948.7,4089.82
948.97,4086.22
949.24,4081.48
949.51,4073.86
949.78,4067.82
950.05,4068.64
950.32,4064.68
950.59,4063.88
950.86,4065.06
951.13,4066.42
951.4,4062.3
951.67,4061.86
951.94,4057.2
952.21,4051.52
952.48,4046.02
952.75,4045.16
953.02,4042.78
953.289,4036.4
953.559,4035.78
953.829,4033.68
954.099,4024.88
954.369,4020.82
954.639,4024.6
954.909,4022.86
955.178,4022.28
955.448,4016.22
955.718,4015.24
955.988,4018.96
956.257,4016.28
956.527,4014.86
956.797,4008.18
957.067,4002.72
957.336,4005.18
957.606,4008.6
957.876,4005.94
958.146,3997.6
958.415,3994.8
958.685,3993.54
958.955,3996.22
959.224,3994.16
959.494,3986.12
959.764,3982.42
960.033,3978.96
960.303,3979.9
960.572,3977.56
960.842,3980.3
961.112,3978.32
961.381,3967.0
961.651,3973.06
961.92,3974.66
962.19,3969.64
962.459,3969.34
962.729,3966.9
962.998,3961.64
963.268,3961.3
963.537,3956.54
963.807,3955.64
964.076,3951.3
964.346,3948.46
964.615,3943.66
964.885,3944.54
965.154,3944.98
965.424,3948.36
965.693,3944.24
965.962,3937.3
966.232,3940.42
966.501,3940.14
966.771,3942.66
967.04,3941.84
967.309,3936.3
967.579,3932.22
967.848,3933.28
968.117,3931.6
968.387,3928.08
968.656,3930.22
968.925,3924.88
969.194,3921.3
969.464,3922.46
969.733,3920.58
970.002,3914.8
970.271,3916.5
970.541,3921.92
970.81,3917.78
971.079,3913.28
971.348,3906.34
971.617,3907.34
971.887,3909.18
972.156,3902.38
972.425,3901.52
972.694,3903.58
972.963,3904.54
973.232,3906.14
973.501,3901.06
973.77,3896.06
974.04,3893.7
974.309,3897.7
974.578,3895.4
974.847,3888.72
975.116,3886.78
975.385,3883.74
975.654,3886.78
975.923,3887.72
976.192,3884.86
976.461,3882.72
976.73,3881.68
976.999,3881.36
977.268,3879.48
977.537,3878.74
977.806,3876.58
978.074,3872.74
978.343,3871.72
978.612,3873.28
978.881,3872.2
979.15,3870.42
979.419,3868.88
979.688,3865.86
979.957,3865.02
980.225,3865.46
980.494,3866.54
980.763,3865.66
981.032,3867.64
981.301,3865.96
981.569,3862.68
981.838,3859.84
982.107,3857.62
982.376,3854.32
982.644,3852.82
982.913,3852.28
983.182,3849.72
983.451,3850.74
983.719,3851.18
983.988,3852.38
984.257,3850.0
984.525,3848.14
984.794,3847.82
985.063,3844.6
985.331,3846.24
985.6,3847.12
985.868,3845.36
986.137,3844.0
986.406,3838.98
986.674,3838.92
986.943,3838.22
987.211,3838.68
987.48,3837.52
987.748,3837.98
988.017,3838.6
988.285,3835.88
988.554,3835.88
988.822,3834.58
989.091,3836.54
989.359,3834.36
989.628,3830.32
989.896,3829.58
990.164,3826.56
990.433,3824.56
990.701,3823.42
990.97,3824.6
991.238,3821.72
991.506,3821.8
991.775,3820.46
992.043,3822.46
992.311,3821.2
992.58,3819.88
992.848,3819.1
993.116,3819.08
993.385,3818.0
993.653,3815.24
993.921,3814.94
994.19,3813.08
994.458,3810.56
994.726,3809.12
994.994,3809.42
995.262,3811.42
995.531,3810.92
995.799,3810.28
996.067,3808.48
996.335,3806.28
996.603,3805.7
996.872,3803.14
997.14,3806.24
997.408,3806.14
997.676,3802.4
997.944,3800.54
998.212,3800.86
998.48,3799.12
998.748,3799.5
999.016,3800.74
999.284,3800.6
999.552,3798.74
999.82,3798.14
1000.09,3798.28
1000.36,3795.64
1000.62,3794.4
1000.89,3794.64
1001.16,3791.34
1001.43,3792.2
1001.7,3791.94
1001.96,3792.9
1002.23,3787.68
1002.5,3788.6
1002.77,3789.66
1003.04,3788.66
1003.3,3788.56
1003.57,3787.38
1003.84,3787.52
1004.11,3782.26
1004.38,3784.44
1004.64,3784.98
1004.91,3785.78
1005.18,3785.1
1005.45,3782.86
1005.71,3782.4
1005.98,3781.8
1006.25,3779.82
1006.52,3780.44
1006.79,3778.36
1007.05,3777.84
1007.32,3776.22
1007.59,3778.24
1007.86,3777.34
1008.12,3777.68
1008.39,3779.2
1008.66,3774.12
1008.93,3773.5
1009.19,3773.3
1009.46,3771.8
1009.73,3771.44
1010.0,3773.24
1010.26,3771.2
1010.53,3770.2
1010.8,3770.64
1011.07,3771.4
1011.33,3770.16
1011.6,3769.46
1011.87,3770.84
1012.14,3767.22
1012.4,3766.24
1012.67,3767.86
1012.94,3768.0
1013.21,3767.02
1013.47,3765.02
1013.74,3765.58
1014.01,3765.42
1014.28,3765.46
1014.54,3766.52
1014.81,3766.26
1015.08,3766.48
1015.35,3766.0
1015.61,3766.12
1015.88,3766.68
1016.15,3764.2
1016.42,3763.98
1016.68,3762.38
1016.95,3760.84
1017.22,3762.48
1017.48,3761.86
1017.75,3761.56
1018.02,3760.34
1018.29,3761.0
1018.55,3759.54
1018.82,3758.7
1019.09,3757.94
1019.36,3758.64
1019.62,3758.52
1019.89,3758.1
1020.16,3759.04
1020.42,3757.94
1020.69,3759.02
1020.96,3762.02
1021.23,3762.04
1021.49,3762.98
1021.76,3762.64
1022.03,3764.96
1022.29,3765.4
1022.56,3766.16
1022.83,3766.08
1023.09,3764.66
1023.36,3765.24
1023.63,3763.2
1023.9,3762.28
1024.16,3759.7
1024.43,3761.2
1024.7,3759.04
1024.96,3760.44
1025.23,3759.36
1025.5,3757.44
1025.76,3755.84
1026.03,3754.42
1026.3,3753.02
1026.56,3752.52
1026.83,3752.14
1027.1,3751.08
1027.37,3750.12
1027.63,3748.62
1027.9,3749.82
1028.17,3748.64
1028.43,3746.34
1028.7,3746.36
1028.97,3744.86
1029.23,3744.72
1029.5,3745.96
1029.77,3745.2
1030.03,3744.52
1030.3,3743.1
1030.57,3742.76
1030.83,3742.02
1031.1,3742.18
1031.37,3741.5
1031.63,3742.38
1031.9,3741.38
1032.17,3741.7
1032.43,3742.0
1032.7,3742.52
1032.97,3741.76
1033.23,3742.56
1033.5,3744.38
1033.77,3743.58
1034.03,3744.12
1034.3,3745.32
1034.57,3746.78
1034.83,3748.86
1035.1,3746.18
1035.36,3746.64
1035.63,3747.64
1035.9,3746.3
1036.16,3745.28
1036.43,3745.54
1036.7,3744.08
1036.96,3743.32
1037.23,3741.32
1037.5,3741.58
1037.76,3738.52
1038.03,3739.36
1038.3,3737.32
1038.56,3736.84
1038.83,3736.82
1039.09,3736.54
1039.36,3736.5
1039.63,3735.74
1039.89,3733.88
1040.16,3733.84
1040.43,3733.16
1040.69,3733.22
1040.96,3732.88
1041.22,3733.18
1041.49,3732.6
1041.76,3733.8
1042.02,3731.66
1042.29,3731.68
1042.55,3731.02
1042.82,3732.6
1043.09,3731.66
1043.35,3732.64
1043.62,3731.62
1043.89,3731.68
1044.15,3731.94
1044.42,3731.78
1044.68,3729.8
1044.95,3731.28
1045.22,3731.02
1045.48,3729.5
1045.75,3730.42
1046.01,3729.78
1046.28,3730.84
1046.55,3730.16
1046.81,3730.48
1047.08,3730.1
1047.34,3729.44
1047.61,3729.12
1047.88,3728.96
1048.14,3729.0
1048.41,3729.0
1048.67,3729.18
1048.94,3728.84
1049.2,3727.88
1049.47,3728.22
1049.74,3729.74
1050.0,3727.94
1050.27,3728.2
1050.53,3728.76
1050.8,3728.62
1051.06,3728.78
1051.33,3728.92
1051.6,3729.14
1051.86,3728.48
1052.13,3728.88
1052.39,3729.32
1052.66,3729.72
1052.92,3727.96
1053.19,3727.26
1053.46,3727.18
1053.72,3727.1
1053.99,3726.86
1054.25,3727.56
1054.52,3727.58
1054.78,3728.46
1055.05,3728.3
1055.32,3727.32
1055.58,3728.14
1055.85,3727.68
1056.11,3726.92
1056.38,3727.72
1056.64,3727.06
1056.91,3726.54
1057.17,3727.46
1057.44,3727.26
1057.7,3726.22
1057.97,3726.52
1058.24,3726.18
1058.5,3727.74
1058.77,3725.92
1059.03,3725.5
1059.3,3727.28
1059.56,3726.72
1059.83,3726.54
1060.09,3726.1
1060.36,3726.48
1060.62,3726.92
1060.89,3726.56
1061.15,3725.74
1061.42,3725.3
1061.68,3725.68
1061.95,3724.74
1062.22,3725.74
1062.48,3725.66
1062.75,3725.9
1063.01,3724.8
1063.28,3725.52
1063.54,3726.06
1063.81,3726.06
1064.07,3726.08
1064.34,3726.28
1064.6,3726.22
1064.87,3725.48
1065.13,3725.52
1065.4,3725.72
1065.66,3725.02
1065.93,3725.08
1066.19,3724.64
1066.46,3725.98
1066.72,3724.9
1066.99,3725.4
1067.25,3724.56
1067.52,3724.68
1067.78,3725.26
1068.05,3724.0