File: spectra/VLFR_02-HDPE_nobio_Raman_0d52ff72.csv
nm,Intensity
526.532,833.45
526.669,833.6
526.805,833.0
526.942,832.7
527.079,833.7
527.216,833.8
527.352,833.35
527.489,833.15
527.625,834.1
527.762,833.8
527.899,833.35
528.035,833.2
528.172,834.55
528.309,832.55
528.445,832.9
528.582,832.65
528.718,833.2
528.855,833.45
528.992,833.0
529.128,833.35
529.265,832.55
529.401,834.5
529.538,832.9
529.674,832.25
529.811,833.8
529.947,832.6
530.084,833.6
530.22,833.6
530.357,832.95
530.493,832.8
530.63,833.45
530.766,833.25
530.903,833.35
531.039,833.2
531.176,832.65
531.312,833.1
531.449,832.8
531.585,832.7
531.721,833.8
531.858,833.35
531.994,837.65
532.131,850.35
532.267,845.6
532.403,834.7
532.54,833.9
532.676,832.35
532.812,833.15
532.949,834.25
533.085,832.85
533.221,832.3
533.358,833.35
533.494,833.25
533.63,834.15
533.767,841.85
533.903,868.5
534.039,898.5
534.176,906.45
534.312,904.2
534.448,902.25
534.584,902.4
534.721,901.85
534.857,901.95
534.993,899.6
535.129,898.85
535.266,897.45
535.402,889.3
535.538,885.6
535.674,883.55
535.81,877.6
535.947,876.3
536.083,874.5
536.219,873.05
536.355,873.2
536.491,872.6
536.627,872.3
536.764,869.7
536.9,869.35
537.036,870.8
537.172,869.8
537.308,870.4
537.444,871.75
537.58,869.15
537.716,869.2
537.852,870.95
537.988,871.65
538.125,870.55
538.261,871.45
538.397,868.45
538.533,867.55
538.669,868.2
538.805,868.65
538.941,867.15
539.077,866.8
539.213,865.75
539.349,865.9
539.485,865.7
539.621,865.9
539.757,865.15
539.893,866.1
540.029,865.2
540.165,865.65
540.301,866.85
540.437,864.3
540.572,864.55
540.708,863.55
540.844,865.1
540.98,865.25
541.116,864.45
541.252,863.95
541.388,864.3
541.524,865.05
541.66,866.5
541.795,865.45
541.931,863.8
542.067,864.85
542.203,865.7
542.339,865.2
542.475,865.0
542.611,866.0
542.746,865.6
542.882,866.15
543.018,865.0
543.154,867.6
543.289,864.35
543.425,866.8
543.561,866.35
543.697,865.9
543.833,866.45
543.968,865.85
544.104,865.85
544.24,863.75
544.375,866.2
544.511,867.0
544.647,866.35
544.783,869.3
544.918,867.2
545.054,866.35
545.19,867.75
545.325,866.55
545.461,867.3
545.597,866.4
545.732,866.9
545.868,866.1
546.004,868.5
546.139,868.65
546.275,867.3
546.41,867.05
546.546,867.35
546.682,867.3
546.817,868.05
546.953,867.55
547.088,869.0
547.224,868.25
547.36,869.8
547.495,865.7
547.631,868.5
547.766,868.1
547.902,867.15
548.037,868.1
548.173,868.3
548.308,869.85
548.444,868.9
548.579,868.0
548.715,868.75
548.85,869.4
548.986,867.9
549.121,869.9
549.257,868.65
549.392,869.85
549.528,867.75
549.663,869.85
549.798,868.95
549.934,868.25
550.069,868.25
550.205,869.0
550.34,867.55
550.475,868.6
550.611,869.25
550.746,871.35
550.882,868.65
551.017,868.0
551.152,869.5
551.288,868.2
551.423,869.6
551.558,869.45
551.694,869.55
551.829,870.15
551.964,868.1
552.1,869.15
552.235,868.2
552.37,867.75
552.505,870.55
552.641,869.0
552.776,868.1
552.911,870.85
553.047,868.05
553.182,871.35
553.317,871.1
553.452,870.5
553.588,873.35
553.723,870.75
553.858,870.45
553.993,871.15
554.128,872.85
554.264,871.55
554.399,871.2
554.534,872.4
554.669,872.55
554.804,871.9
554.939,870.8
555.075,872.8
555.21,870.55
555.345,869.25
555.48,871.95
555.615,871.6
555.75,872.2
555.885,874.15
556.02,874.3
556.155,872.95
556.291,873.35
556.426,872.15
556.561,873.65
556.696,872.55
556.831,873.15
556.966,875.6
557.101,876.1
557.236,876.35
557.371,876.7
557.506,874.9
557.641,876.1
557.776,876.6
557.911,878.1
558.046,878.0
558.181,876.8
558.316,876.05
558.451,876.3
558.586,877.3
558.721,875.9
558.856,877.35
558.991,875.8
559.126,876.7
559.261,876.9
559.396,876.05
559.531,878.05
559.665,877.35
559.8,877.5
559.935,876.75
560.07,876.9
560.205,877.45
560.34,877.15
560.475,875.5
560.61,876.2
560.745,877.85
560.879,875.65
561.014,879.05
561.149,876.8
561.284,876.85
561.419,878.0
561.553,879.8
561.688,878.15
561.823,879.8
561.958,879.15
562.093,879.4
562.227,880.3
562.362,878.0
562.497,880.85
562.632,881.05
562.767,883.5
562.901,882.5
563.036,884.05
563.171,887.25
563.305,882.8
563.44,885.8
563.575,887.85
563.71,894.7
563.844,917.75
563.979,971.65
564.114,1001.05
564.248,944.4
564.383,903.85
564.518,899.85
564.652,899.65
564.787,898.85
564.922,898.15
565.056,893.95
565.191,893.85
565.325,888.45
565.46,891.0
565.595,891.45
565.729,894.3
565.864,901.5
565.999,923.15
566.133,978.6
566.268,994.55
566.402,935.3
566.537,900.25
566.671,891.7
566.806,887.75
566.94,886.3
567.075,885.85
567.21,888.55
567.344,892.45
567.479,907.45
567.613,903.3
567.748,890.25
567.882,887.65
568.017,886.2
568.151,886.2
568.285,884.05
568.42,887.15
568.554,884.7
568.689,884.45
568.823,884.4
568.958,886.75
569.092,886.85
569.227,886.2
569.361,886.95
569.495,887.05
569.63,888.8
569.764,889.2
569.899,890.7
570.033,891.2
570.167,889.85
570.302,888.25
570.436,891.0
570.571,892.05
570.705,896.65
570.839,897.75
570.974,894.65
571.108,898.35
571.242,906.0
571.377,934.45
571.511,1056.3
571.645,1074.3
571.78,959.2
571.914,919.8
572.048,910.25
572.182,905.6
572.317,901.2
572.451,900.4
572.585,894.45
572.719,895.7
572.854,891.75
572.988,893.85
573.122,893.9
573.256,892.05
573.391,892.3
573.525,893.55
573.659,892.95
573.793,897.3
573.927,900.55
574.062,902.95
574.196,899.55
574.33,895.9
574.464,894.35
574.598,892.4
574.733,894.9
574.867,895.1
575.001,894.85
575.135,897.1
575.269,900.1
575.403,919.4
575.537,961.45
575.671,955.15
575.806,934.05
575.94,933.7
576.074,960.4
576.208,1005.85
576.342,1052.0
576.476,1027.8
576.61,982.2
576.744,975.85
576.878,978.95
577.012,986.2
577.146,982.7
577.28,972.15
577.414,951.7
577.548,932.8
577.682,924.15
577.817,918.8
577.951,917.95
578.085,915.75
578.219,917.0
578.353,916.35
578.486,915.6
578.62,914.25
578.754,915.7
578.888,918.85
579.022,917.6
579.156,919.0
579.29,920.35
579.424,923.2
579.558,922.8
579.692,924.85
579.826,924.0
579.96,929.0
580.094,927.85
580.228,928.1
580.362,932.8
580.496,931.8
580.629,930.7
580.763,935.45
580.897,938.75
581.031,934.95
581.165,937.4
581.299,936.0
581.433,942.05
581.566,944.1
581.7,944.3
581.834,946.3
581.968,945.45
582.102,947.1
582.236,950.4
582.369,952.35
582.503,954.55
582.637,957.4
582.771,959.2
582.905,960.7
583.038,959.05
583.172,964.0
583.306,961.7
583.44,964.8
583.573,965.25
583.707,971.05
583.841,971.15
583.975,972.35
584.108,977.65
584.242,976.1
584.376,975.65
584.509,980.05
584.643,981.7
584.777,984.3
584.911,984.4
585.044,987.9
585.178,989.25
585.312,988.65
585.445,994.85
585.579,996.1
585.713,997.15
585.846,1000.95
585.98,1002.1
586.113,1000.1
586.247,1004.45
586.381,1007.6
586.514,1008.5
586.648,1008.4
586.782,1013.05
586.915,1014.9
587.049,1017.35
587.182,1020.25
587.316,1020.5
587.45,1018.65
587.583,1024.75
587.717,1023.6
587.85,1025.8
587.984,1022.5
588.117,1030.95
588.251,1026.05
588.384,1030.65
588.518,1032.65
588.651,1039.15
588.785,1037.4
588.919,1037.3
589.052,1038.7
589.186,1042.7
589.319,1039.15
589.453,1041.15
589.586,1041.35
589.72,1048.5
589.853,1048.85
589.986,1048.8
590.12,1054.5
590.253,1053.55
590.387,1055.75
590.52,1059.95
590.654,1054.8
590.787,1059.3
590.921,1060.75
591.054,1067.5
591.187,1062.2
591.321,1063.15
591.454,1066.65
591.588,1064.7
591.721,1069.4
591.854,1070.85
591.988,1075.3
592.121,1072.45
592.255,1071.75
592.388,1075.75
592.521,1076.55
592.655,1082.4
592.788,1075.75
592.921,1079.6
593.055,1080.15
593.188,1078.85
593.321,1081.75
593.455,1082.75
593.588,1090.25
593.721,1084.55
593.855,1089.65
593.988,1086.4
594.121,1090.9
594.255,1095.75
594.388,1097.3
594.521,1093.3
594.654,1099.9
594.788,1098.35
594.921,1099.0
595.054,1097.3
595.187,1101.5
595.321,1108.35
595.454,1105.95
595.587,1111.5
595.72,1112.7
595.854,1111.5
595.987,1115.6
596.12,1119.65
596.253,1122.05
596.387,1117.4
596.52,1123.0
596.653,1124.7
596.786,1131.75
596.919,1131.1
597.052,1135.9
597.186,1138.2
597.319,1133.15
597.452,1145.2
597.585,1141.65
597.718,1144.2
597.851,1144.55
597.985,1152.35
598.118,1156.25
598.251,1152.65
598.384,1158.35
598.517,1161.2
598.65,1163.45
598.783,1169.25
598.916,1175.35
599.049,1172.6
599.183,1176.3
599.316,1176.45
599.449,1175.6
599.582,1179.7
599.715,1179.75
599.848,1181.05
599.981,1181.75
600.114,1182.5
600.247,1179.55
600.38,1186.15
600.513,1184.25
600.646,1184.15
600.779,1186.55
600.912,1186.45
601.045,1185.05
601.178,1184.25
601.311,1184.3
601.444,1187.35
601.577,1186.05
601.71,1184.9
601.843,1184.0
601.976,1184.4
602.109,1186.3
602.242,1186.0
602.375,1181.5
602.508,1179.15
602.641,1177.25
602.774,1178.95
602.907,1180.35
603.04,1173.0
603.173,1175.15
603.306,1175.05
603.439,1172.6
603.572,1166.95
603.705,1167.5
603.838,1162.5
603.971,1163.6
604.103,1156.65
604.236,1159.3
604.369,1152.8
604.502,1144.95
604.635,1145.55
604.768,1143.05
604.901,1135.6
605.034,1134.8
605.167,1133.55
605.299,1128.9
605.432,1121.55
605.565,1117.2
605.698,1114.35
605.831,1112.35
605.964,1112.35
606.096,1107.6
606.229,1103.3
606.362,1103.2
606.495,1100.85
606.628,1097.25
606.761,1091.65
606.893,1083.75
607.026,1092.9
607.159,1085.5
607.292,1083.0
607.425,1082.45
607.557,1082.05
607.69,1083.6
607.823,1075.85
607.956,1073.45
608.088,1074.6
608.221,1070.4
608.354,1070.55
608.487,1068.4
608.619,1068.1
608.752,1064.75
608.885,1060.05
609.018,1065.25
609.15,1063.05
609.283,1059.0
609.416,1054.5
609.548,1052.85
609.681,1054.95
609.814,1050.05
609.947,1046.6
610.079,1047.65
610.212,1045.3
610.345,1040.8
610.477,1040.55
610.61,1037.85
610.743,1036.05
610.875,1038.1
611.008,1039.35
611.141,1036.35
611.273,1031.45
611.406,1034.4
611.539,1034.05
611.671,1030.45
611.804,1028.55
611.936,1025.2
612.069,1026.35
612.202,1028.8
612.334,1029.85
612.467,1025.65
612.6,1023.85
612.732,1022.8
612.865,1023.0
612.997,1025.85
613.13,1020.25
613.263,1021.05
613.395,1016.6
613.528,1021.35
613.66,1017.8
613.793,1021.6
613.925,1020.4
614.058,1017.2
614.19,1018.0
614.323,1013.35
614.456,1014.3
614.588,1015.1
614.721,1008.65
614.853,1011.7
614.986,1009.4
615.118,1011.55
615.251,1009.55
615.383,1004.95
615.516,1004.05
615.648,1002.25
615.781,1005.25
615.913,1000.65
616.046,1002.85
616.178,1002.75
616.311,999.45
616.443,1000.35
616.576,1005.05
616.708,1000.1
616.841,1004.95
616.973,1003.55
617.106,1001.8
617.238,1003.05
617.37,1000.7
617.503,1001.15
617.635,1002.7
617.768,1003.6
617.9,1003.35
618.033,1001.4
618.165,1001.65
618.297,1000.6
618.43,1001.7
618.562,996.9
618.695,996.5
618.827,994.1
618.96,994.5
619.092,996.8
619.224,995.4
619.357,997.25
619.489,998.3
619.621,995.75
619.754,1000.85
619.886,1000.65
620.019,997.25
620.151,993.8
620.283,993.9
620.416,992.15
620.548,994.9
620.68,993.2
620.813,992.05
620.945,994.3
621.077,995.45
621.21,998.95
621.342,1004.15
621.474,1007.05
621.607,1012.7
621.739,1022.95
621.871,1029.1
622.004,1036.55
622.136,1048.8
622.268,1052.2
622.401,1051.25
622.533,1045.45
622.665,1035.25
622.797,1022.35
622.93,1012.25
623.062,1004.1
623.194,996.6
623.326,993.65
623.459,992.7
623.591,988.65
623.723,987.55
623.856,986.9
623.988,987.15
624.12,986.8
624.252,987.55
624.384,984.2
624.517,983.35
624.649,986.05
624.781,984.8
624.913,989.4
625.046,987.5
625.178,985.0
625.31,986.05
625.442,990.15
625.574,990.5
625.707,990.95
625.839,997.9
625.971,1003.45
626.103,1008.65
626.235,1016.15
626.368,1037.95
626.5,1068.25
626.632,1130.15
626.764,1249.95
626.896,1418.1
627.028,1661.9
627.161,1885.55
627.293,1951.7
627.425,1859.25
627.557,1711.0
627.689,1598.75
627.821,1526.7
627.953,1470.6
628.086,1470.75
628.218,1490.9
628.35,1616.75
628.482,1906.3
628.614,2138.05
628.746,1866.15
628.878,1582.6
629.01,1495.45
629.143,1462.55
629.275,1436.6
629.407,1405.3
629.539,1367.4
629.671,1323.0
629.803,1290.5
629.935,1249.9
630.067,1242.0
630.199,1236.1
630.331,1229.25
630.463,1225.0
630.596,1212.3
630.728,1174.6
630.86,1140.9
630.992,1107.75
631.124,1069.55
631.256,1036.55
631.388,1016.3
631.52,1009.25
631.652,1001.0
631.784,996.5
631.916,993.1
632.048,989.55
632.18,984.8
632.312,984.2
632.444,982.95
632.576,985.8
632.708,986.05
632.84,983.8
632.972,981.95
633.104,980.3
633.236,981.2
633.368,975.7
633.5,981.3
633.632,978.15
633.764,978.0
633.896,977.7
634.028,975.75
634.16,974.45
634.292,975.05
634.424,977.4
634.556,975.2
634.688,974.85
634.82,977.05
634.952,975.4
635.084,974.75
635.216,975.25
635.348,975.6
635.48,972.2
635.612,976.55
635.744,976.6
635.876,975.85
636.007,973.7
636.139,974.35
636.271,977.9
636.403,977.65
636.535,975.6
636.667,978.25
636.799,976.85
636.931,977.55
637.063,976.45
637.195,976.35
637.327,973.2
637.459,974.65
637.59,977.75
637.722,971.75
637.854,973.1
637.986,973.65
638.118,976.4
638.25,977.65
638.382,974.55
638.514,976.05
638.645,977.35
638.777,978.45
638.909,978.55
639.041,974.85
639.173,976.3
639.305,978.8
639.437,978.25
639.568,977.2
639.7,979.85
639.832,976.6
639.964,978.2
640.096,980.0
640.228,977.85
640.36,978.6
640.491,981.05
640.623,978.5
640.755,983.35
640.887,982.8
641.019,985.0
641.15,982.3
641.282,984.7
641.414,983.55
641.546,987.4
641.678,983.3
641.81,987.1
641.941,984.0
642.073,984.4
642.205,986.35
642.337,985.55
642.468,986.9
642.6,984.55
642.732,984.5
642.864,986.35
642.996,984.7
643.127,983.65
643.259,985.3
643.391,985.7
643.523,987.5
643.654,986.2
643.786,987.1
643.918,984.9
644.05,983.3
644.181,990.4
644.313,984.15
644.445,984.95
644.577,989.45
644.708,990.4
644.84,988.45
644.972,986.2
645.104,987.95
645.235,988.65
645.367,990.25
645.499,987.75
645.631,989.0
645.762,988.15
645.894,991.75
646.026,989.1
646.157,989.4
646.289,990.45
646.421,990.3
646.553,990.85
646.684,989.6
646.816,994.5
646.948,989.95
647.079,995.8
647.211,991.35
647.343,990.35
647.474,989.6
647.606,992.8
647.738,996.55
647.869,995.25
648.001,993.95
648.133,990.6
648.265,990.3
648.396,994.8
648.528,994.9
648.66,989.7
648.791,996.1
648.923,990.35
649.054,993.25
649.186,997.65
649.318,996.5
649.449,994.8
649.581,994.8
649.713,997.4
649.844,995.5
649.976,996.65
650.108,998.25
650.239,996.5
650.371,998.15
650.503,994.7
650.634,996.1
650.766,996.65
650.897,997.55
651.029,993.4
651.161,997.85
651.292,995.05
651.424,997.5
651.556,999.5
651.687,997.95
651.819,995.45
651.95,997.4
652.082,998.05
652.214,1000.05
652.345,1000.65
652.477,997.0
652.608,998.4
652.74,1002.15
652.872,1000.0
653.003,1003.75
653.135,1001.95
653.266,1000.25
653.398,1001.2
653.529,998.2
653.661,1002.25
653.793,1000.3
653.924,1001.9
654.056,1001.05
654.187,1007.25
654.319,999.45
654.45,996.0
654.582,1003.9
654.714,1003.1
654.845,998.1
654.977,998.8
655.108,1002.15
655.24,999.15
655.371,1000.7
655.503,999.4
655.634,1000.3
655.766,996.9
655.897,998.75
656.029,997.6
656.161,1002.8
656.292,996.75
656.424,995.35
656.555,996.4
656.687,992.9
656.818,997.7
656.95,994.4
657.081,997.05
657.213,993.75
657.344,996.55
657.476,992.8
657.607,992.1
657.739,992.3
657.87,989.15
658.002,990.5
658.133,991.75
658.265,990.2
658.396,987.3
658.528,987.4
658.659,986.4
658.791,986.45
658.922,982.4
659.054,985.8
659.185,984.95
659.317,982.0
659.448,979.75
659.58,981.45
659.711,981.6
659.843,980.1
659.974,980.2
660.106,976.75
660.237,978.15
660.368,975.9
660.5,973.95
660.631,974.45
660.763,974.5
660.894,970.55
661.026,968.7
661.157,967.8
661.289,967.8
661.42,964.35
661.552,963.9
661.683,961.75
661.815,958.65
661.946,960.0
662.077,959.7
662.209,959.1
662.34,955.5
662.472,955.45
662.603,956.15
662.735,953.5
662.866,952.8
662.997,950.5
663.129,950.65