File: spectra/VLFR_02-HDPE_bio_Raman_e0a1680f.csv
nm,Intensity
528.65,1856.05
528.819,1855.05
528.987,1857.1
529.155,1856.8
529.324,1856.4
529.492,1856.2
529.66,1854.75
529.829,1855.2
529.997,1857.55
530.165,1856.75
530.334,1857.35
530.502,1856.1
530.67,1856.55
530.839,1856.7
531.007,1857.85
531.175,1857.9
531.344,1858.15
531.512,1860.7
531.68,1879.05
531.848,2125.7
532.017,3075.95
532.185,2611.55
532.353,1930.15
532.521,1858.3
532.69,1857.25
532.858,1856.25
533.026,1857.25
533.194,1857.05
533.363,1858.25
533.531,1866.2
533.699,1914.3
533.867,2001.75
534.036,2057.7
534.204,2073.4
534.372,2078.0
534.54,2078.7
534.708,2083.55
534.877,2087.3
535.045,2087.55
535.213,2089.7
535.381,2085.2
535.549,2085.3
535.717,2075.95
535.886,2075.65
536.054,2082.4
536.222,2077.3
536.39,2071.15
536.558,2086.85
536.726,2088.05
536.894,2084.6
537.062,2085.35
537.231,2083.15
537.399,2087.85
537.567,2098.45
537.735,2106.0
537.903,2096.7
538.071,2097.9
538.239,2100.05
538.407,2093.95
538.575,2104.4
538.743,2108.6
538.911,2103.85
539.079,2111.3
539.247,2118.0
539.415,2121.1
539.583,2117.55
539.751,2109.35
539.919,2114.2
540.087,2115.55
540.255,2095.3
540.423,2112.0
540.591,2114.45
540.759,2115.4
540.927,2122.45
541.095,2117.0
541.263,2119.25
541.431,2120.65
541.599,2125.25
541.767,2127.0
541.935,2121.8
542.103,2122.6
542.271,2126.05
542.439,2135.8
542.607,2134.55
542.775,2133.0
542.943,2148.3
543.111,2140.15
543.279,2138.05
543.446,2135.8
543.614,2143.55
543.782,2133.15
543.95,2140.45
544.118,2142.85
544.286,2141.1
544.454,2135.6
544.622,2135.8
544.789,2143.65
544.957,2139.8
545.125,2140.45
545.293,2142.5
545.461,2138.35
545.629,2142.9
545.796,2153.4
545.964,2150.6
546.132,2147.45
546.3,2145.7
546.468,2150.05
546.635,2156.85
546.803,2154.85
546.971,2160.1
547.139,2161.25
547.306,2156.7
547.474,2157.0
547.642,2159.2
547.81,2169.95
547.977,2160.35
548.145,2164.8
548.313,2168.0
548.481,2178.5
548.648,2179.15
548.816,2182.1
548.984,2183.8
549.151,2180.3
549.319,2185.7
549.487,2184.85
549.655,2186.2
549.822,2185.05
549.99,2184.9
550.158,2183.95
550.325,2198.6
550.493,2202.25
550.66,2190.1
550.828,2202.4
550.996,2197.55
551.163,2212.25
551.331,2208.0
551.499,2209.75
551.666,2210.75
551.834,2209.0
552.001,2221.65
552.169,2208.9
552.337,2216.2
552.504,2213.45
552.672,2219.1
552.839,2216.4
553.007,2221.9
553.174,2223.45
553.342,2231.65
553.509,2221.5
553.677,2230.5
553.844,2224.05
554.012,2233.0
554.179,2239.05
554.347,2226.3
554.514,2234.25
554.682,2246.05
554.849,2243.8
555.017,2244.95
555.184,2259.25
555.352,2246.75
555.519,2251.7
555.687,2246.95
555.854,2256.35
556.022,2258.9
556.189,2269.05
556.357,2258.4
556.524,2268.65
556.691,2261.4
556.859,2269.55
557.026,2279.55
557.194,2267.35
557.361,2257.4
557.528,2279.8
557.696,2269.15
557.863,2274.25
558.031,2282.9
558.198,2292.25
558.365,2282.4
558.533,2291.8
558.7,2286.6
558.867,2306.85
559.035,2292.6
559.202,2288.85
559.369,2298.8
559.537,2305.25
559.704,2304.0
559.871,2300.85
560.038,2308.3
560.206,2303.1
560.373,2321.85
560.54,2324.6
560.708,2325.35
560.875,2324.55
561.042,2333.1
561.209,2324.85
561.377,2341.8
561.544,2333.85
561.711,2352.05
561.878,2336.45
562.045,2345.85
562.213,2342.05
562.38,2353.15
562.547,2355.4
562.714,2359.15
562.881,2363.5
563.049,2355.5
563.216,2354.5
563.383,2376.8
563.55,2379.8
563.717,2413.9
563.884,2481.35
564.052,2546.1
564.219,2489.6
564.386,2438.8
564.553,2410.25
564.72,2413.05
564.887,2414.6
565.054,2437.1
565.221,2408.1
565.388,2420.15
565.556,2438.1
565.723,2449.4
565.89,2505.3
566.057,2620.85
566.224,2664.15
566.391,2526.55
566.558,2449.05
566.725,2445.65
566.892,2432.2
567.059,2444.1
567.226,2440.05
567.393,2438.0
567.56,2442.35
567.727,2446.15
567.894,2444.25
568.061,2455.05
568.228,2457.75
568.395,2450.65
568.562,2458.4
568.729,2455.95
568.896,2476.85
569.063,2473.45
569.23,2468.15
569.396,2472.35
569.563,2481.55
569.73,2504.55
569.897,2493.85
570.064,2505.45
570.231,2504.9
570.398,2505.5
570.565,2516.25
570.732,2534.15
570.898,2524.65
571.065,2549.05
571.232,2604.75
571.399,2770.95
571.566,2867.25
571.733,2709.95
571.9,2612.1
572.066,2586.5
572.233,2579.8
572.4,2578.6
572.567,2578.1
572.734,2605.0
572.9,2563.1
573.067,2585.55
573.234,2595.95
573.401,2595.75
573.567,2612.85
573.734,2589.1
573.901,2633.05
574.068,2643.9
574.234,2617.95
574.401,2623.35
574.568,2621.0
574.734,2645.85
574.901,2639.3
575.068,2659.05
575.235,2695.55
575.401,2765.9
575.568,2831.4
575.735,2822.45
575.901,2820.35
576.068,2862.7
576.235,2940.6
576.401,2955.3
576.568,2908.1
576.734,2902.6
576.901,2918.45
577.068,2940.9
577.234,2898.35
577.401,2877.95
577.567,2861.6
577.734,2846.75
577.901,2839.15
578.067,2864.75
578.234,2874.75
578.4,2848.0
578.567,2888.85
578.733,2901.65
578.9,2934.45
579.066,2931.45
579.233,2944.3
579.399,2959.8
579.566,3007.9
579.732,2978.15
579.899,3024.3
580.065,3041.5
580.232,3059.45
580.398,3077.7
580.565,3099.6
580.731,3120.25
580.898,3156.05
581.064,3152.85
581.231,3189.75
581.397,3183.65
581.563,3206.85
581.73,3195.1
581.896,3241.65
582.063,3279.55
582.229,3284.65
582.395,3307.65
582.562,3325.05
582.728,3309.4
582.895,3337.0
583.061,3395.0
583.227,3390.45
583.394,3453.7
583.56,3412.45
583.726,3423.5
583.893,3495.45
584.059,3512.6
584.225,3512.5
584.391,3546.0
584.558,3575.6
584.724,3583.7
584.89,3580.95
585.057,3611.3
585.223,3628.15
585.389,3647.0
585.555,3643.4
585.722,3641.05
585.888,3725.3
586.054,3732.8
586.22,3729.8
586.386,3775.2
586.553,3801.45
586.719,3795.45
586.885,3811.65
587.051,3843.65
587.217,3927.95
587.384,3884.5
587.55,3964.95
587.716,3975.25
587.882,4007.1
588.048,4011.45
588.214,4078.95
588.38,4059.95
588.546,4086.25
588.713,4121.85
588.879,4105.9
589.045,4157.55
589.211,4145.75
589.377,4146.3
589.543,4190.45
589.709,4244.6
589.875,4244.15
590.041,4279.0
590.207,4333.75
590.373,4359.15
590.539,4386.2
590.705,4337.25
590.871,4416.5
591.037,4423.3
591.203,4436.85
591.369,4541.05
591.535,4524.5
591.701,4526.85
591.867,4577.1
592.033,4628.75
592.199,4576.25
592.365,4662.6
592.531,4686.45
592.697,4685.8
592.863,4689.7
593.029,4696.3
593.195,4704.45
593.361,4790.75
593.526,4821.9
593.692,4797.55
593.858,4775.85
594.024,4840.35
594.19,4834.25
594.356,4812.55
594.522,4913.45
594.687,5034.35
594.853,4941.2
595.019,5023.75
595.185,5003.35
595.351,5036.15
595.516,5023.5
595.682,5077.25
595.848,5131.15
596.014,5220.95
596.18,5157.2
596.345,5195.5
596.511,5168.3
596.677,5300.95
596.843,5276.3
597.008,5210.85
597.174,5248.1
597.34,5390.5
597.505,5473.05
597.671,5370.0
597.837,5353.6
598.002,5463.9
598.168,5382.65
598.334,5399.45
598.499,5511.15
598.665,5479.6
598.831,5539.9
598.996,5518.05
599.162,5592.15
599.328,5575.7
599.493,5629.65
599.659,5636.05
599.824,5610.7
599.99,5616.8
600.156,5741.3
600.321,5652.05
600.487,5637.5
600.652,5720.45
600.818,5730.15
600.983,5647.7
601.149,5689.6
601.314,5638.1
601.48,5716.95
601.645,5773.4
601.811,5750.7
601.976,5670.45
602.142,5670.6
602.307,5724.7
602.473,5754.6
602.638,5691.0
602.804,5601.0
602.969,5740.75
603.135,5722.15
603.3,5640.25
603.466,5651.05
603.631,5669.5
603.796,5561.35
603.962,5600.7
604.127,5517.95
604.293,5536.5
604.458,5506.1
604.623,5554.75
604.789,5495.4
604.954,5451.1
605.119,5433.9
605.285,5416.9
605.45,5372.7
605.615,5369.95
605.781,5362.3
605.946,5317.8
606.111,5260.0
606.277,5356.65
606.442,5269.55
606.607,5263.6
606.772,5181.45
606.938,5125.2
607.103,5268.0
607.268,5162.15
607.433,5160.7
607.599,5149.05
607.764,5065.95
607.929,5055.5
608.094,5102.8
608.259,5095.5
608.425,4971.35
608.59,4940.85
608.755,5041.25
608.92,4938.3
609.085,4927.85
609.25,4958.25
609.415,4847.05
609.581,4837.45
609.746,4873.05
609.911,4830.45
610.076,4749.45
610.241,4823.4
610.406,4820.0
610.571,4684.4
610.736,4727.5
610.901,4782.7
611.066,4710.0
611.231,4720.65
611.396,4708.1
611.561,4662.75
611.727,4656.45
611.892,4589.85
612.057,4669.45
612.222,4614.4
612.386,4588.3
612.551,4580.3
612.716,4546.9
612.881,4598.9
613.046,4470.05
613.211,4494.45
613.376,4511.0
613.541,4446.2
613.706,4465.7
613.871,4436.4
614.036,4437.8
614.201,4456.0
614.366,4436.0
614.531,4395.0
614.695,4359.3
614.86,4376.05
615.025,4346.85
615.19,4383.45
615.355,4329.55
615.52,4288.15
615.684,4343.8
615.849,4339.25
616.014,4308.4
616.179,4282.15
616.344,4289.25
616.508,4211.5
616.673,4281.9
616.838,4283.9
617.003,4241.25
617.168,4238.15
617.332,4220.35
617.497,4167.3
617.662,4177.7
617.826,4231.85
617.991,4156.0
618.156,4159.2
618.32,4175.6
618.485,4209.05
618.65,4122.15
618.814,4078.75
618.979,4108.15
619.144,4178.8
619.308,4100.95
619.473,4101.8
619.638,4131.0
619.802,4080.75
619.967,4075.85
620.131,4080.0
620.296,4055.6
620.461,4075.15
620.625,4097.0
620.79,4096.9
620.954,4048.0
621.119,4060.05
621.283,4084.85
621.448,4049.55
621.612,4030.05
621.777,4043.8
621.941,4020.55
622.106,4079.8
622.27,4076.4
622.435,4134.05
622.599,4078.25
622.764,3991.35
622.928,4007.65
623.093,3987.65
623.257,3995.7
623.422,3958.5
623.586,3922.4
623.75,3928.1
623.915,3988.35
624.079,3985.7
624.244,3923.85
624.408,3920.8
624.572,3947.95
624.737,3920.05
624.901,3879.85
625.065,3932.7
625.23,3937.8
625.394,3927.0
625.558,3899.9
625.723,3922.55
625.887,3899.85
626.051,3937.4
626.215,3983.45
626.38,3988.45
626.544,4075.15
626.708,4396.35
626.872,4716.1
627.037,5116.45
627.201,5278.4
627.365,5165.4
627.529,4970.9
627.693,4893.55
627.858,4701.75
628.022,4581.8
628.186,4842.85
628.35,4951.05
628.514,5220.95
628.678,5095.25
628.843,4856.5
629.007,4775.45
629.171,4700.8
629.335,4666.45
629.499,4526.45
629.663,4469.15
629.827,4395.95
629.991,4312.25
630.155,4379.0
630.319,4374.9
630.483,4264.85
630.647,4216.4
630.812,4145.65
630.976,4102.2
631.14,4044.6
631.304,3936.15
631.468,3959.4
631.632,3938.8
631.796,3912.75
631.959,3952.5
632.123,3939.2
632.287,3915.35
632.451,3931.3
632.615,3897.8
632.779,3867.25
632.943,3983.35
633.107,3887.3
633.271,3915.4
633.435,3950.4
633.599,3937.85
633.763,3913.6
633.926,3934.8
634.09,3952.8
634.254,3964.3
634.418,3932.8
634.582,3963.4
634.746,3945.5
634.909,3972.7
635.073,3868.95
635.237,3975.7
635.401,3926.6
635.564,3911.15
635.728,3933.2
635.892,3909.5
636.056,3915.1
636.219,3993.45
636.383,3955.9
636.547,3973.95
636.711,3953.8
636.874,3949.9
637.038,3927.6
637.202,4005.7
637.365,3981.5
637.529,3937.95
637.693,4001.3
637.856,4005.95
638.02,3942.4
638.184,3930.05
638.347,4039.4
638.511,4037.2
638.674,4051.55
638.838,4004.7
639.002,4020.45
639.165,3955.65
639.329,4057.2
639.492,3980.9
639.656,4040.0
639.819,4003.3
639.983,3969.55
640.146,4049.65
640.31,4045.0
640.473,4014.15
640.637,3991.0
640.8,3991.3
640.964,3988.05
641.127,4042.55
641.291,4125.05
641.454,4046.35
641.618,4017.95
641.781,4061.6
641.944,3993.85
642.108,4018.6
642.271,4092.35
642.435,4082.4
642.598,4100.7
642.761,4041.3
642.925,4120.85
643.088,4095.7
643.251,4050.05
643.415,4046.75
643.578,4047.95
643.741,4129.5
643.905,4133.45
644.068,4080.35
644.231,4072.25
644.394,4059.7
644.558,4093.45
644.721,4100.25
644.884,4093.15
645.047,4191.7
645.211,4097.65
645.374,4149.7
645.537,4131.7
645.7,4061.5
645.863,4191.45
646.027,4073.25
646.19,4097.05
646.353,4061.4
646.516,4063.15
646.679,4149.75
646.842,4080.45
647.005,4078.9
647.169,4160.7
647.332,4085.65
647.495,4173.4
647.658,4099.0
647.821,4055.5
647.984,4102.4
648.147,4085.35
648.31,4088.3
648.473,4084.85
648.636,4092.85
648.799,4092.25
648.962,4111.05
649.125,4054.95
649.288,4094.45
649.451,4089.35
649.614,4075.55
649.777,4118.35
649.94,4114.15
650.103,4041.05
650.266,4078.3
650.429,4100.85
650.592,4077.5
650.755,4016.9
650.918,4096.6
651.08,4123.05
651.243,4135.95
651.406,4031.9
651.569,4033.1
651.732,4088.5
651.895,4025.35
652.058,4074.15
652.22,4043.35
652.383,4053.3
652.546,4082.0
652.709,4039.85
652.872,3933.75
653.034,4047.85
653.197,4040.8
653.36,4025.5
653.523,3916.95
653.685,3978.35
653.848,4024.5
654.011,3976.85
654.173,3945.7
654.336,3922.95
654.499,3978.45
654.662,3918.8
654.824,3876.7
654.987,3874.35
655.149,3850.3
655.312,3915.5
655.475,3964.55
655.637,3926.8
655.8,3911.75
655.963,3911.2
656.125,3844.7
656.288,3844.1
656.45,3872.55
656.613,3862.2
656.775,3839.8
656.938,3777.75
657.1,3848.35
657.263,3814.6
657.425,3816.25
657.588,3782.4
657.75,3753.85
657.913,3752.3
658.075,3771.1
658.238,3748.0
658.4,3703.7
658.563,3700.55
658.725,3717.35
658.888,3746.4
659.05,3605.8
659.212,3640.7
659.375,3640.15
659.537,3678.4
659.7,3611.75
659.862,3577.25
660.024,3539.3
660.187,3572.5
660.349,3575.0
660.511,3537.55
660.674,3563.3
660.836,3518.85
660.998,3438.8
661.079,3445.1