File: spectra/VLFR_01-LDPE_bio_Raman_9df02b44.csv
nm,Intensity
528.65,1849.65
528.819,1850.05
528.987,1850.6
529.155,1851.1
529.324,1850.1
529.492,1850.95
529.66,1850.85
529.829,1850.6
529.997,1851.05
530.165,1850.8
530.334,1852.1
530.502,1850.95
530.67,1851.55
530.839,1850.0
531.007,1851.95
531.175,1853.4
531.344,1854.35
531.512,1858.2
531.68,1886.0
531.848,2226.85
532.017,4199.85
532.185,4169.1
532.353,2259.2
532.521,1857.9
532.69,1853.1
532.858,1853.1
533.026,1851.55
533.194,1851.95
533.363,1852.65
533.531,1863.65
533.699,1929.55
533.867,2075.1
534.036,2175.3
534.204,2200.25
534.372,2195.45
534.54,2206.6
534.708,2202.0
534.877,2187.9
535.045,2197.95
535.213,2185.8
535.381,2192.35
535.549,2178.65
535.717,2171.95
535.886,2159.85
536.054,2165.3
536.222,2156.85
536.39,2148.9
536.558,2158.9
536.726,2171.0
536.894,2168.3
537.062,2164.1
537.231,2172.0
537.399,2174.65
537.567,2175.5
537.735,2168.7
537.903,2177.75
538.071,2171.65
538.239,2171.2
538.407,2160.9
538.575,2179.35
538.743,2178.65
538.911,2191.65
539.079,2198.3
539.247,2198.7
539.415,2191.85
539.583,2178.7
539.751,2178.3
539.919,2171.8
540.087,2173.65
540.255,2181.75
540.423,2178.35
540.591,2169.5
540.759,2175.2
540.927,2164.35
541.095,2165.3
541.263,2176.65
541.431,2165.9
541.599,2162.45
541.767,2173.65
541.935,2182.05
542.103,2175.55
542.271,2190.6
542.439,2170.8
542.607,2172.65
542.775,2174.4
542.943,2170.2
543.111,2164.35
543.279,2162.85
543.446,2155.25
543.614,2160.6
543.782,2146.8
543.95,2138.6
544.118,2147.45
544.286,2148.05
544.454,2147.8
544.622,2142.15
544.789,2147.85
544.957,2154.8
545.125,2134.35
545.293,2140.4
545.461,2148.3
545.629,2144.2
545.796,2145.8
545.964,2139.1
546.132,2142.4
546.3,2146.9
546.468,2142.2
546.635,2141.05
546.803,2148.85
546.971,2141.85
547.139,2151.55
547.306,2156.75
547.474,2146.95
547.642,2143.2
547.81,2152.05
547.977,2141.9
548.145,2143.65
548.313,2153.6
548.481,2149.05
548.648,2147.25
548.816,2151.5
548.984,2153.4
549.151,2147.4
549.319,2150.3
549.487,2145.8
549.655,2154.6
549.822,2156.7
549.99,2145.85
550.158,2143.85
550.325,2142.1
550.493,2154.5
550.66,2154.3
550.828,2162.55
550.996,2159.85
551.163,2171.6
551.331,2167.35
551.499,2164.1
551.666,2169.5
551.834,2164.5
552.001,2161.4
552.169,2168.1
552.337,2166.35
552.504,2158.5
552.672,2169.5
552.839,2156.65
553.007,2165.95
553.174,2166.95
553.342,2161.35
553.509,2171.7
553.677,2169.85
553.844,2170.1
554.012,2167.75
554.179,2168.5
554.347,2164.9
554.514,2173.75
554.682,2174.5
554.849,2171.55
555.017,2175.45
555.184,2187.75
555.352,2180.9
555.519,2183.75
555.687,2184.65
555.854,2191.65
556.022,2194.75
556.189,2181.05
556.357,2193.7
556.524,2203.3
556.691,2192.45
556.859,2199.1
557.026,2199.8
557.194,2210.15
557.361,2205.4
557.528,2207.15
557.696,2207.55
557.863,2215.7
558.031,2209.75
558.198,2228.0
558.365,2214.7
558.533,2236.95
558.7,2234.25
558.867,2219.45
559.035,2220.0
559.202,2221.95
559.369,2222.6
559.537,2219.15
559.704,2222.0
559.871,2231.65
560.038,2223.55
560.206,2220.85
560.373,2235.8
560.54,2233.75
560.708,2221.25
560.875,2231.4
561.042,2239.9
561.209,2232.9
561.377,2245.0
561.544,2238.8
561.711,2259.4
561.878,2248.3
562.045,2254.75
562.213,2263.7
562.38,2269.75
562.547,2282.65
562.714,2272.7
562.881,2271.4
563.049,2285.75
563.216,2292.35
563.383,2295.7
563.55,2298.5
563.717,2340.05
563.884,2425.55
564.052,2499.25
564.219,2446.5
564.386,2359.85
564.553,2358.3
564.72,2353.5
564.887,2357.1
565.054,2347.05
565.221,2336.95
565.388,2336.15
565.556,2341.4
565.723,2367.0
565.89,2420.85
566.057,2501.5
566.224,2516.6
566.391,2418.45
566.558,2366.85
566.725,2357.85
566.892,2341.9
567.059,2338.15
567.226,2349.2
567.393,2355.85
567.56,2359.3
567.727,2353.7
567.894,2346.5
568.061,2340.1
568.228,2347.15
568.395,2353.2
568.562,2376.25
568.729,2369.95
568.896,2363.65
569.063,2379.8
569.23,2378.45
569.396,2371.9
569.563,2385.8
569.73,2390.55
569.897,2375.6
570.064,2397.2
570.231,2401.05
570.398,2422.35
570.565,2429.65
570.732,2424.7
570.898,2426.05
571.065,2458.4
571.232,2520.7
571.399,2671.3
571.566,2788.55
571.733,2702.3
571.9,2554.9
572.066,2513.05
572.233,2507.6
572.4,2496.2
572.567,2484.6
572.734,2480.0
572.9,2461.8
573.067,2452.0
573.234,2473.2
573.401,2467.55
573.567,2458.15
573.734,2475.35
573.901,2471.95
574.068,2472.4
574.234,2470.75
574.401,2471.8
574.568,2487.3
574.734,2460.55
574.901,2471.55
575.068,2479.55
575.235,2493.25
575.401,2552.15
575.568,2595.55
575.735,2619.9
575.901,2636.35
576.068,2710.75
576.235,2795.4
576.401,2815.35
576.568,2756.1
576.734,2732.05
576.901,2717.0
577.068,2705.9
577.234,2654.1
577.401,2596.75
577.567,2571.9
577.734,2548.1
577.901,2522.1
578.067,2538.1
578.234,2535.45
578.4,2513.3
578.567,2511.3
578.733,2537.6
578.9,2530.9
579.066,2531.3
579.233,2550.0
579.399,2539.65
579.566,2530.8
579.732,2566.8
579.899,2544.75
580.065,2554.7
580.232,2563.3
580.398,2559.95
580.565,2562.7
580.731,2552.4
580.898,2557.35
581.064,2570.95
581.231,2571.7
581.397,2575.4
581.563,2559.1
581.73,2575.1
581.896,2560.5
582.063,2576.4
582.229,2546.65
582.395,2553.65
582.562,2592.9
582.728,2584.6
582.895,2548.35
583.061,2567.85
583.227,2570.9
583.394,2591.3
583.56,2568.25
583.726,2572.05
583.893,2567.85
584.059,2606.6
584.225,2589.65
584.391,2572.4
584.558,2572.25
584.724,2577.65
584.89,2581.8
585.057,2579.4
585.223,2591.45
585.389,2564.7
585.555,2561.6
585.722,2588.4
585.888,2576.05
586.054,2561.1
586.22,2578.65
586.386,2598.6
586.553,2573.8
586.719,2558.75
586.885,2567.7
587.051,2585.5
587.217,2601.3
587.384,2591.95
587.55,2589.5
587.716,2596.9
587.882,2573.45
588.048,2587.75
588.214,2587.0
588.38,2590.5
588.546,2592.9
588.713,2582.9
588.879,2571.05
589.045,2583.05
589.211,2595.3
589.377,2585.6
589.543,2575.45
589.709,2568.75
589.875,2584.25
590.041,2579.3
590.207,2579.4
590.373,2584.45
590.539,2583.8
590.705,2581.2
590.871,2578.4
591.037,2579.45
591.203,2611.7
591.369,2594.0
591.535,2595.45
591.701,2605.55
591.867,2593.9
592.033,2591.5
592.199,2605.45
592.365,2594.65
592.531,2599.65
592.697,2591.9
592.863,2589.95
593.029,2590.4
593.195,2591.9
593.361,2612.7
593.526,2600.3
593.692,2578.8
593.858,2605.35
594.024,2583.5
594.19,2602.2
594.356,2599.2
594.522,2604.8
594.687,2599.4
594.853,2600.95
595.019,2633.25
595.185,2608.8
595.351,2602.4
595.516,2633.25
595.682,2623.25
595.848,2630.95
596.014,2637.65
596.18,2639.7
596.345,2641.95
596.511,2625.6
596.677,2657.85
596.843,2665.8
597.008,2660.7
597.174,2667.65
597.34,2671.5
597.505,2671.8
597.671,2678.45
597.837,2677.0
598.002,2688.7
598.168,2680.6
598.334,2693.7
598.499,2685.9
598.665,2704.2
598.831,2679.2
598.996,2687.1
599.162,2705.35
599.328,2737.2
599.493,2724.65
599.659,2707.3
599.824,2709.45
599.99,2711.55
600.156,2731.2
600.321,2739.6
600.487,2720.25
600.652,2708.95
600.818,2728.15
600.983,2713.95
601.149,2727.45
601.314,2711.7
601.48,2722.6
601.645,2729.7
601.811,2719.5
601.976,2717.0
602.142,2702.15
602.307,2724.75
602.473,2738.7
602.638,2718.35
602.804,2701.15
602.969,2700.95
603.135,2693.75
603.3,2716.05
603.466,2679.75
603.631,2663.45
603.796,2702.05
603.962,2665.5
604.127,2693.9
604.293,2670.85
604.458,2680.75
604.623,2640.55
604.789,2650.8
604.954,2663.35
605.119,2629.95
605.285,2645.2
605.45,2647.45
605.615,2625.45
605.781,2635.0
605.946,2615.0
606.111,2634.95
606.277,2641.9
606.442,2607.45
606.607,2592.15
606.772,2593.25
606.938,2604.25
607.103,2593.25
607.268,2599.15
607.433,2578.55
607.599,2572.6
607.764,2575.25
607.929,2587.95
608.094,2561.05
608.259,2558.8
608.425,2574.05
608.59,2563.05
608.755,2563.8
608.92,2543.65
609.085,2567.2
609.25,2555.25
609.415,2533.25
609.581,2562.15
609.746,2552.55
609.911,2574.7
610.076,2547.55
610.241,2535.9
610.406,2535.95
610.571,2545.85
610.736,2552.45
610.901,2529.8
611.066,2563.05
611.231,2543.2
611.396,2541.35
611.561,2499.1
611.727,2543.2
611.892,2515.0
612.057,2504.45
612.222,2521.35
612.386,2536.45
612.551,2516.0
612.716,2509.7
612.881,2493.85
613.046,2514.55
613.211,2506.15
613.376,2483.1
613.541,2500.45
613.706,2503.1
613.871,2499.6
614.036,2509.15
614.201,2487.65
614.366,2487.15
614.531,2498.6
614.695,2491.85
614.86,2500.7
615.025,2495.35
615.19,2479.1
615.355,2476.65
615.52,2501.6
615.684,2492.1
615.849,2496.35
616.014,2484.15
616.179,2487.05
616.344,2482.2
616.508,2492.4
616.673,2483.9
616.838,2504.9
617.003,2496.8
617.168,2485.45
617.332,2497.95
617.497,2491.65
617.662,2484.15
617.826,2505.55
617.991,2515.8
618.156,2480.9
618.32,2494.5
618.485,2484.65
618.65,2499.2
618.814,2493.8
618.979,2499.7
619.144,2504.0
619.308,2470.75
619.473,2504.85
619.638,2504.35
619.802,2502.4
619.967,2505.15
620.131,2493.15
620.296,2498.1
620.461,2493.4
620.625,2503.65
620.79,2488.6
620.954,2531.25
621.119,2527.2
621.283,2528.25
621.448,2536.05
621.612,2565.3
621.777,2581.5
621.941,2593.3
622.106,2622.95
622.27,2615.55
622.435,2618.75
622.599,2603.35
622.764,2561.25
622.928,2533.35
623.093,2527.65
623.257,2517.3
623.422,2511.35
623.586,2485.3
623.75,2493.9
623.915,2494.6
624.079,2493.05
624.244,2487.8
624.408,2499.6
624.572,2482.0
624.737,2464.85
624.901,2515.25
625.065,2488.8
625.23,2486.05
625.394,2484.95
625.558,2525.4
625.723,2508.6
625.887,2530.4
626.051,2550.8
626.215,2588.0
626.38,2655.75
626.544,2768.95
626.708,3083.55
626.872,3575.9
627.037,4275.2
627.201,4676.35
627.365,4524.25
627.529,4188.65
627.693,4046.4
627.858,3810.35
628.022,3835.4
628.186,3952.05
628.35,4256.3
628.514,4700.85
628.678,4619.65
628.843,4131.9
629.007,3968.75
629.171,3837.55
629.335,3787.95
629.499,3674.9
629.663,3561.5
629.827,3465.15
629.991,3362.4
630.155,3376.45
630.319,3353.0
630.483,3290.55
630.647,3183.0
630.812,3086.1
630.976,2934.6
631.14,2769.25
631.304,2662.65
631.468,2630.65
631.632,2596.65
631.796,2585.85
631.959,2554.25
632.123,2528.4
632.287,2504.7
632.451,2481.7
632.615,2482.55
632.779,2459.05
632.943,2480.5
633.107,2445.85
633.271,2476.45
633.435,2438.95
633.599,2455.8
633.763,2453.0
633.926,2428.45
634.09,2431.75
634.254,2430.3
634.418,2405.0
634.582,2394.35
634.746,2436.05
634.909,2434.9
635.073,2406.9
635.237,2420.65
635.401,2404.65
635.564,2399.6
635.728,2389.4
635.892,2397.5
636.056,2400.1
636.219,2394.95
636.383,2401.7
636.547,2398.65
636.711,2387.4
636.874,2369.7
637.038,2406.4
637.202,2391.3
637.365,2382.05
637.529,2373.35
637.693,2372.15
637.856,2382.9
638.02,2361.9
638.184,2369.7
638.347,2380.85
638.511,2350.9
638.674,2362.9
638.838,2361.75
639.002,2364.45
639.165,2363.4
639.329,2357.25
639.492,2354.15
639.656,2358.3
639.819,2343.4
639.983,2345.1
640.146,2360.85
640.31,2364.55
640.473,2342.3
640.637,2349.8
640.8,2346.35
640.964,2348.35
641.127,2336.75
641.291,2347.9
641.454,2339.25
641.618,2345.8
641.781,2358.15
641.944,2340.3
642.108,2327.2
642.271,2337.1
642.435,2359.85
642.598,2348.3
642.761,2338.7
642.925,2350.7
643.088,2336.1
643.251,2350.0
643.415,2331.65
643.578,2341.75
643.741,2328.15
643.905,2347.3
644.068,2344.25
644.231,2330.5
644.394,2328.0
644.558,2322.3
644.721,2321.15
644.884,2336.4
645.047,2319.4
645.211,2319.1
645.374,2342.2
645.537,2346.35
645.7,2312.2
645.863,2319.45
646.027,2322.15
646.19,2329.85
646.353,2314.55
646.516,2326.65
646.679,2318.25
646.842,2316.75
647.005,2333.5
647.169,2322.25
647.332,2327.15
647.495,2319.0
647.658,2303.05
647.821,2306.95
647.984,2315.2
648.147,2317.15
648.31,2332.8
648.473,2299.55
648.636,2292.6
648.799,2319.15
648.962,2305.75
649.125,2315.65
649.288,2303.95
649.451,2301.85
649.614,2295.8
649.777,2302.2
649.94,2313.65
650.103,2299.05
650.266,2292.7
650.429,2305.75
650.592,2304.75
650.755,2307.1
650.918,2291.3
651.08,2298.0
651.243,2289.25
651.406,2321.4
651.569,2289.15
651.732,2281.8
651.895,2282.85
652.058,2283.75
652.22,2286.8
652.383,2291.3
652.546,2272.9
652.709,2283.85
652.872,2265.9
653.034,2272.4
653.197,2286.4
653.36,2270.55
653.523,2266.7
653.685,2284.85
653.848,2270.55
654.011,2267.6
654.173,2279.05
654.336,2273.7
654.499,2271.15
654.662,2258.1
654.824,2255.3
654.987,2253.9
655.149,2270.35
655.312,2253.3
655.475,2253.9
655.637,2243.3
655.8,2243.55
655.963,2254.2
656.125,2247.75
656.288,2240.7
656.45,2248.45
656.613,2250.8
656.775,2247.9
656.938,2232.1
657.1,2228.25
657.263,2234.3
657.425,2234.3
657.588,2229.15
657.75,2218.3
657.913,2216.55
658.075,2205.95
658.238,2212.0
658.4,2217.15
658.563,2209.65
658.725,2209.0
658.888,2200.7
659.05,2212.1
659.212,2191.95
659.375,2190.4
659.537,2185.2
659.7,2194.2
659.862,2199.95
660.024,2197.2
660.187,2186.55
660.349,2190.55
660.511,2171.1
660.674,2169.75
660.836,2175.5
660.998,2182.25
661.079,2172.65