File: spectra/VLFR_01-LDPE_nobio_Raman_a6df8a4f.csv
nm,Intensity
528.65,1836.65
528.819,1835.05
528.987,1834.85
529.155,1836.85
529.324,1834.9
529.492,1836.3
529.66,1836.9
529.829,1834.8
529.997,1835.7
530.165,1835.45
530.334,1835.2
530.502,1837.5
530.67,1836.6
530.839,1835.7
531.007,1835.95
531.175,1837.35
531.344,1837.95
531.512,1838.25
531.68,1843.3
531.848,1969.8
532.017,2359.8
532.185,2271.95
532.353,1866.25
532.521,1837.6
532.69,1838.6
532.858,1838.45
533.026,1838.6
533.194,1839.45
533.363,1845.05
533.531,1904.0
533.699,2235.4
533.867,2881.45
534.036,3242.25
534.204,3422.3
534.372,3376.65
534.54,3456.9
534.708,3561.45
534.877,3562.1
535.045,3542.25
535.213,3637.4
535.381,3641.45
535.549,3673.85
535.717,3712.75
535.886,3678.05
536.054,3695.0
536.222,3691.65
536.39,3651.7
536.558,3688.1
536.726,3779.85
536.894,3723.65
537.062,3737.6
537.231,3788.3
537.399,3815.6
537.567,3875.5
537.735,3828.9
537.903,3855.45
538.071,3873.75
538.239,3830.3
538.407,3884.75
538.575,3848.3
538.743,3850.85
538.911,3917.0
539.079,3919.65
539.247,3969.6
539.415,4046.9
539.583,3969.6
539.751,3979.35
539.919,3931.25
540.087,3982.85
540.255,3984.95
540.423,4017.35
540.591,4039.0
540.759,4062.6
540.927,4051.15
541.095,4085.7
541.263,4050.3
541.431,4095.05
541.599,4096.85
541.767,4142.5
541.935,4095.85
542.103,4123.9
542.271,4094.2
542.439,4151.95
542.607,4201.75
542.775,4114.4
542.943,4220.75
543.111,4243.05
543.279,4197.0
543.446,4168.2
543.614,4143.85
543.782,4239.7
543.95,4164.0
544.118,4195.0
544.286,4296.8
544.454,4175.9
544.622,4213.95
544.789,4295.5
544.957,4295.3
545.125,4324.3
545.293,4249.45
545.461,4246.05
545.629,4287.9
545.796,4309.55
545.964,4324.75
546.132,4370.95
546.3,4323.2
546.468,4306.3
546.635,4504.0
546.803,4372.9
546.971,4349.15
547.139,4332.4
547.306,4417.8
547.474,4372.6
547.642,4387.0
547.81,4423.25
547.977,4446.2
548.145,4489.25
548.313,4496.7
548.481,4437.7
548.648,4484.7
548.816,4494.85
548.984,4556.55
549.151,4520.1
549.319,4438.25
549.487,4549.5
549.655,4487.2
549.822,4458.65
549.99,4466.3
550.158,4485.7
550.325,4587.95
550.493,4546.45
550.66,4544.7
550.828,4619.9
550.996,4609.85
551.163,4561.35
551.331,4693.9
551.499,4686.5
551.666,4740.75
551.834,4681.15
552.001,4634.35
552.169,4664.1
552.337,4663.0
552.504,4637.05
552.672,4673.8
552.839,4703.8
553.007,4680.95
553.174,4692.9
553.342,4651.25
553.509,4741.35
553.677,4742.65
553.844,4739.4
554.012,4832.45
554.179,4783.05
554.347,4808.25
554.514,4813.55
554.682,4730.55
554.849,4859.3
555.017,4784.4
555.184,4863.1
555.352,4811.7
555.519,4783.6
555.687,4815.75
555.854,4805.8
556.022,4911.2
556.189,4890.15
556.357,4913.4
556.524,4914.0
556.691,4827.5
556.859,4884.8
557.026,4894.95
557.194,4935.0
557.361,4880.05
557.528,4913.8
557.696,4866.35
557.863,4903.8
558.031,4989.6
558.198,5014.9
558.365,4974.75
558.533,4964.9
558.7,5028.45
558.867,5033.35
559.035,5021.35
559.202,5009.5
559.369,5006.1
559.537,5051.85
559.704,4930.55
559.871,4969.65
560.038,5089.3
560.206,5006.2
560.373,5051.7
560.54,5124.75
560.708,5011.5
560.875,5168.75
561.042,5051.5
561.209,5124.9
561.377,5219.25
561.544,5053.85
561.711,5159.25
561.878,5107.1
562.045,5197.2
562.213,5136.35
562.38,5136.5
562.547,5229.0
562.714,5134.0
562.881,5133.2
563.049,5244.4
563.216,5253.4
563.383,5172.25
563.55,5118.15
563.717,5305.5
563.884,5178.35
564.052,5205.6
564.219,5177.45
564.386,5335.4
564.553,5332.75
564.72,5320.05
564.887,5269.2
565.054,5380.05
565.221,5280.2
565.388,5277.5
565.556,5356.05
565.723,5420.25
565.89,5281.0
566.057,5342.65
566.224,5379.25
566.391,5337.25
566.558,5431.5
566.725,5242.95
566.892,5342.8
567.059,5453.3
567.226,5427.15
567.393,5425.4
567.56,5419.05
567.727,5411.6
567.894,5385.85
568.061,5461.85
568.228,5440.75
568.395,5535.75
568.562,5508.0
568.729,5506.15
568.896,5551.5
569.063,5616.95
569.23,5508.75
569.396,5592.4
569.563,5602.1
569.73,5572.55
569.897,5574.1
570.064,5687.7
570.231,5666.45
570.398,5563.05
570.565,5676.55
570.732,5692.65
570.898,5736.65
571.065,5708.35
571.232,5658.0
571.399,5738.8
571.566,5795.0
571.733,5827.1
571.9,5754.05
572.066,5756.3
572.233,5859.65
572.4,5923.3
572.567,5856.75
572.734,5856.15
572.9,5900.5
573.067,5897.95
573.234,5873.6
573.401,5982.3
573.567,5891.55
573.734,5779.75
573.901,5806.3
574.068,5821.3
574.234,5954.7
574.401,5830.5
574.568,5731.7
574.734,5910.95
574.901,5874.75
575.068,5711.05
575.235,5758.95
575.401,5847.4
575.568,5902.95
575.735,5759.4
575.901,5847.1
576.068,5833.95
576.235,5887.55
576.401,5789.2
576.568,5847.0
576.734,5788.75
576.901,5773.4
577.068,5789.05
577.234,5721.95
577.401,5759.0
577.567,5760.25
577.734,5734.75
577.901,5854.1
578.067,5746.85
578.234,5716.65
578.4,5702.55
578.567,5835.75
578.733,5796.6
578.9,5708.0
579.066,5809.25
579.233,5944.35
579.399,5858.1
579.566,6035.35
579.732,5880.85
579.899,5971.15
580.065,6005.05
580.232,6011.2
580.398,6052.85
580.565,6155.4
580.731,6042.0
580.898,6111.1
581.064,6062.0
581.231,6135.9
581.397,6222.2
581.563,6207.7
581.73,6014.1
581.896,6053.15
582.063,5935.35
582.229,5962.7
582.395,5705.9
582.562,5751.05
582.728,5865.9
582.895,5694.05
583.061,5729.0
583.227,5680.6
583.394,5672.5
583.56,5571.75
583.726,5530.65
583.893,5644.05
584.059,5500.7
584.225,5500.85
584.391,5622.45
584.558,5591.6
584.724,5609.35
584.89,5464.8
585.057,5461.8
585.223,5517.2
585.389,5475.1
585.555,5525.05
585.722,5391.8
585.888,5436.65
586.054,5493.0
586.22,5457.65
586.386,5425.8
586.553,5442.4
586.719,5595.75
586.885,5382.8
587.051,5443.45
587.217,5390.5
587.384,5481.6
587.55,5442.55
587.716,5479.6
587.882,5495.15
588.048,5488.55
588.214,5510.55
588.38,5493.35
588.546,5405.3
588.713,5490.55
588.879,5398.65
589.045,5401.15
589.211,5444.0
589.377,5399.35
589.543,5360.2
589.709,5394.35
589.875,5401.8
590.041,5352.2
590.207,5343.1
590.373,5399.3
590.539,5325.7
590.705,5278.75
590.871,5544.75
591.037,5426.2
591.203,5390.7
591.369,5465.65
591.535,5371.15
591.701,5351.25
591.867,5482.35
592.033,5355.05
592.199,5330.0
592.365,5430.55
592.531,5376.45
592.697,5395.7
592.863,5358.2
593.029,5397.35
593.195,5432.65
593.361,5271.9
593.526,5357.9
593.692,5355.7
593.858,5296.25
594.024,5340.3
594.19,5319.05
594.356,5368.4
594.522,5407.45
594.687,5259.95
594.853,5410.9
595.019,5357.2
595.185,5346.15
595.351,5248.8
595.516,5379.95
595.682,5326.65
595.848,5390.25
596.014,5398.0
596.18,5377.05
596.345,5416.5
596.511,5250.8
596.677,5381.0
596.843,5344.1
597.008,5333.25
597.174,5411.75
597.34,5331.7
597.505,5352.3
597.671,5312.75
597.837,5312.7
598.002,5318.75
598.168,5337.1
598.334,5304.25
598.499,5238.5
598.665,5315.5
598.831,5314.5
598.996,5333.85
599.162,5346.05
599.328,5389.7
599.493,5290.5
599.659,5306.15
599.824,5284.6
599.99,5317.7
600.156,5290.55
600.321,5295.5
600.487,5355.05
600.652,5241.15
600.818,5327.95
600.983,5312.95
601.149,5315.65
601.314,5277.1
601.48,5302.15
601.645,5278.65
601.811,5272.1
601.976,5293.8
602.142,5277.55
602.307,5266.05
602.473,5302.15
602.638,5262.8
602.804,5304.25
602.969,5255.35
603.135,5222.75
603.3,5280.6
603.466,5310.5
603.631,5280.7
603.796,5189.7
603.962,5241.8
604.127,5263.7
604.293,5185.45
604.458,5308.0
604.623,5136.2
604.789,5245.75
604.954,5218.5
605.119,5177.6
605.285,5122.15
605.45,5215.0
605.615,5141.55
605.781,5127.75
605.946,5126.95
606.111,5178.8
606.277,5240.5
606.442,5183.25
606.607,5152.9
606.772,5249.0
606.938,5152.4
607.103,5168.0
607.268,5112.05
607.433,5238.2
607.599,5148.55
607.764,5161.3
607.929,5151.45
608.094,5116.25
608.259,5189.3
608.425,5153.3
608.59,5117.0
608.755,5119.0
608.92,5098.15
609.085,5123.3
609.25,5072.7
609.415,5044.2
609.581,5064.85
609.746,5179.1
609.911,5100.0
610.076,5005.4
610.241,5077.5
610.406,5214.85
610.571,5136.7
610.736,5090.9
610.901,5004.55
611.066,5040.35
611.231,5060.95
611.396,5141.25
611.561,5076.65
611.727,5044.75
611.892,5014.9
612.057,5055.7
612.222,5044.2
612.386,5022.55
612.551,5006.85
612.716,5012.95
612.881,4997.45
613.046,5065.6
613.211,5011.95
613.376,5025.95
613.541,5020.0
613.706,4967.45
613.871,5005.0
614.036,5024.9
614.201,4974.2
614.366,4981.65
614.531,5020.25
614.695,4930.35
614.86,4995.75
615.025,5045.3
615.19,4945.35
615.355,4885.4
615.52,4969.25
615.684,4982.5
615.849,4949.6
616.014,4884.1
616.179,4986.0
616.344,4946.4
616.508,4958.7
616.673,4927.35
616.838,4877.5
617.003,4957.6
617.168,4889.7
617.332,4898.1
617.497,4960.2
617.662,4936.65
617.826,4860.8
617.991,4906.9
618.156,4889.0
618.32,4897.3
618.485,4813.6
618.65,4856.35
618.814,4841.95
618.979,4958.75
619.144,4870.35
619.308,4853.5
619.473,4885.55
619.638,4864.8
619.802,4888.95
619.967,4851.85
620.131,4926.65
620.296,4927.35
620.461,4835.4
620.625,4772.35
620.79,4839.65
620.954,4787.25
621.119,4833.9
621.283,4848.2
621.448,4791.2
621.612,4742.8
621.777,4765.8
621.941,4796.25
622.106,4791.45
622.27,4802.2
622.435,4830.0
622.599,4813.15
622.764,4759.35
622.928,4762.65
623.093,4742.6
623.257,4662.35
623.422,4818.8
623.586,4804.15
623.75,4745.55
623.915,4707.25
624.079,4718.55
624.244,4782.15
624.408,4709.15
624.572,4767.15
624.737,4695.15
624.901,4756.45
625.065,4672.25
625.23,4726.65
625.394,4674.1
625.558,4678.75
625.723,4644.85
625.887,4692.25
626.051,4690.0
626.215,4609.3
626.38,4661.3
626.544,4656.8
626.708,4715.3
626.872,4664.2
627.037,4577.45
627.201,4593.15
627.365,4576.1
627.529,4681.7
627.693,4630.3
627.858,4609.0
628.022,4610.75
628.186,4604.6
628.35,4638.1
628.514,4699.4
628.678,4615.4
628.843,4594.45
629.007,4615.2
629.171,4559.35
629.335,4702.45
629.499,4533.85
629.663,4519.45
629.827,4599.0
629.991,4533.4
630.155,4510.1
630.319,4509.95
630.483,4497.15
630.647,4598.4
630.812,4520.45
630.976,4534.45
631.14,4531.2
631.304,4513.75
631.468,4589.1
631.632,4398.75
631.796,4487.3
631.959,4455.2
632.123,4510.5
632.287,4459.0
632.451,4502.55
632.615,4493.6
632.779,4504.1
632.943,4456.6
633.107,4457.3
633.271,4477.1
633.435,4362.6
633.599,4448.15
633.763,4519.75
633.926,4396.5
634.09,4403.7
634.254,4390.0
634.418,4355.4
634.582,4340.8
634.746,4438.55
634.909,4356.15
635.073,4345.2
635.237,4350.9
635.401,4388.8
635.564,4345.1
635.728,4276.05
635.892,4247.2
636.056,4350.0
636.219,4323.85
636.383,4320.95
636.547,4305.35
636.711,4266.35
636.874,4305.0
637.038,4208.75
637.202,4286.1
637.365,4328.45
637.529,4228.45
637.693,4248.7
637.856,4253.95
638.02,4180.5
638.184,4224.45
638.347,4267.55
638.511,4156.75
638.674,4174.4
638.838,4273.0
639.002,4127.45
639.165,4188.3
639.329,4180.1
639.492,4169.9
639.656,4213.3
639.819,4101.15
639.983,4143.3
640.146,4186.05
640.31,4068.3
640.473,4097.35
640.637,4085.1
640.8,4080.8
640.964,4030.1
641.127,4126.45
641.291,4062.85
641.454,4069.3
641.618,4064.85
641.781,4080.05
641.944,4059.85
642.108,4019.85
642.271,4023.65
642.435,4000.75
642.598,4156.35
642.761,3916.45
642.925,3962.6
643.088,3993.55
643.251,3966.45
643.415,4001.85
643.578,3951.75
643.741,3993.65
643.905,3992.9
644.068,3972.7
644.231,3962.45
644.394,3912.1
644.558,3948.15
644.721,3936.65
644.884,3907.15
645.047,3924.55
645.211,3999.9
645.374,3875.55
645.537,3953.95
645.7,3844.6
645.863,3843.6
646.027,3884.3
646.19,3862.85
646.353,3832.4
646.516,3863.5
646.679,3815.65
646.842,3720.45
647.005,3772.1
647.169,3845.2
647.332,3840.6
647.495,3847.35
647.658,3825.25
647.821,3775.9
647.984,3707.05
648.147,3831.55
648.31,3737.8
648.473,3670.2
648.636,3703.95
648.799,3742.25
648.962,3641.55
649.125,3708.15
649.288,3673.25
649.451,3735.25
649.614,3667.9
649.777,3612.7
649.94,3716.2
650.103,3656.2
650.266,3660.0
650.429,3715.55
650.592,3665.3
650.755,3684.6
650.918,3609.45
651.08,3612.55
651.243,3683.3
651.406,3592.4
651.569,3606.7
651.732,3572.75
651.895,3632.5
652.058,3641.55
652.22,3565.25
652.383,3533.35
652.546,3595.55
652.709,3622.4
652.872,3528.45
653.034,3470.3
653.197,3520.45
653.36,3526.4
653.523,3557.9
653.685,3488.6
653.848,3437.15
654.011,3547.15
654.173,3505.1
654.336,3443.05
654.499,3451.3
654.662,3424.65
654.824,3428.0
654.987,3411.75
655.149,3456.25
655.312,3436.6
655.475,3415.6
655.637,3470.5
655.8,3468.6
655.963,3439.35
656.125,3356.6
656.288,3299.95
656.45,3399.5
656.613,3461.85
656.775,3359.4
656.938,3363.3
657.1,3462.85
657.263,3330.7
657.425,3354.5
657.588,3287.9
657.75,3317.35
657.913,3355.65
658.075,3282.9
658.238,3290.0
658.4,3327.25
658.563,3261.4
658.725,3268.45
658.888,3260.95
659.05,3252.95
659.212,3287.15
659.375,3177.8
659.537,3258.95
659.7,3249.15
659.862,3204.45
660.024,3194.95
660.187,3196.15
660.349,3205.1
660.511,3224.2
660.674,3204.6
660.836,3182.65
660.998,3194.45
661.079,3189.45