File: spectra/VLFR_01-LDPE_bio_Raman_771e705e.csv
nm,Intensity
528.637,1834.2
528.806,1833.3
528.974,1833.1
529.143,1833.9
529.311,1833.7
529.48,1833.9
529.648,1834.5
529.816,1833.6
529.985,1832.4
530.153,1833.2
530.322,1834.5
530.49,1834.3
530.659,1834.7
530.827,1835.3
530.995,1834.8
531.164,1841.1
531.332,1843.0
531.5,1850.1
531.669,1921.7
531.837,3554.2
532.006,6859.1
532.174,5748.4
532.342,2183.1
532.511,1841.4
532.679,1836.6
532.847,1838.4
533.016,1837.4
533.184,1836.3
533.352,1843.5
533.521,1895.8
533.689,2222.6
533.857,2770.8
534.025,2955.4
534.194,2989.2
534.362,2901.8
534.53,2852.4
534.699,2834.4
534.867,2819.4
535.035,2715.1
535.203,2643.9
535.372,2569.4
535.54,2487.2
535.708,2432.8
535.876,2379.7
536.045,2343.4
536.213,2301.5
536.381,2294.2
536.549,2280.0
536.717,2270.2
536.886,2250.2
537.054,2240.3
537.222,2266.8
537.39,2257.7
537.558,2254.1
537.726,2252.6
537.895,2245.6
538.063,2241.1
538.231,2213.5
538.399,2196.9
538.567,2176.6
538.735,2147.0
538.903,2140.1
539.072,2118.1
539.24,2111.6
539.408,2100.1
539.576,2099.0
539.744,2080.4
539.912,2085.2
540.08,2074.2
540.248,2069.5
540.416,2064.3
540.584,2068.3
540.752,2054.0
540.92,2052.7
541.088,2032.3
541.256,2040.0
541.425,2041.6
541.593,2037.7
541.761,2041.3
541.929,2034.1
542.097,2036.0
542.265,2047.9
542.433,2042.5
542.601,2028.7
542.769,2028.7
542.937,2025.4
543.104,2019.7
543.272,2018.2
543.44,2021.6
543.608,2031.5
543.776,2029.3
543.944,2019.6
544.112,2019.8
544.28,2017.1
544.448,2007.7
544.616,2010.2
544.784,2001.7
544.952,1994.6
545.12,1996.1
545.288,2000.0
545.455,1995.0
545.623,1995.1
545.791,1996.7
545.959,1994.5
546.127,1994.9
546.295,1983.2
546.463,1990.8
546.63,1995.7
546.798,1989.1
546.966,1987.5
547.134,1988.9
547.302,1990.1
547.47,1983.0
547.637,1981.4
547.805,1985.1
547.973,1990.2
548.141,1975.6
548.308,1974.3
548.476,1978.6
548.644,1970.5
548.812,1959.2
548.98,1962.8
549.147,1966.1
549.315,1962.5
549.483,1967.0
549.65,1964.1
549.818,1961.3
549.986,1964.1
550.154,1952.0
550.321,1959.4
550.489,1964.8
550.657,1955.4
550.824,1959.6
550.992,1950.1
551.16,1958.7
551.327,1956.6
551.495,1957.3
551.663,1967.9
551.83,1967.5
551.998,1966.7
552.166,1962.6
552.333,1964.9
552.501,1973.5
552.668,1980.6
552.836,1980.3
553.004,1997.7
553.171,2022.8
553.339,2054.3
553.506,2056.8
553.674,2061.2
553.842,2048.7
554.009,2048.1
554.177,2051.8
554.344,2063.6
554.512,2067.6
554.679,2063.9
554.847,2084.1
555.014,2087.0
555.182,2086.8
555.349,2090.6
555.517,2092.9
555.684,2111.3
555.852,2125.0
556.019,2133.3
556.187,2155.1
556.354,2155.6
556.522,2180.9
556.689,2183.3
556.857,2203.4
557.024,2214.9
557.192,2221.5
557.359,2259.1
557.526,2262.8
557.694,2285.7
557.861,2316.4
558.029,2320.8
558.196,2329.5
558.363,2342.5
558.531,2366.5
558.698,2334.8
558.866,2309.4
559.033,2245.7
559.2,2246.8
559.368,2224.3
559.535,2226.5
559.702,2201.0
559.87,2194.4
560.037,2194.4
560.204,2179.7
560.372,2177.1
560.539,2165.9
560.706,2170.6
560.873,2173.7
561.041,2185.4
561.208,2165.3
561.375,2177.8
561.543,2192.7
561.71,2197.3
561.877,2202.9
562.044,2231.0
562.211,2252.4
562.379,2259.4
562.546,2284.3
562.713,2319.8
562.88,2332.7
563.048,2343.5
563.215,2381.7
563.382,2465.1
563.549,2570.8
563.716,3010.9
563.883,3886.7
564.051,4335.5
564.218,3548.1
564.385,2958.2
564.552,2890.1
564.719,2828.5
564.886,2770.3
565.053,2639.1
565.221,2575.1
565.388,2552.1
565.555,2614.4
565.722,2817.1
565.889,3389.6
566.056,4305.5
566.223,4254.1
566.39,3187.2
566.557,2689.3
566.724,2543.0
566.891,2438.4
567.058,2445.8
567.225,2459.5
567.392,2565.3
567.559,2544.6
567.726,2371.8
567.893,2318.3
568.06,2318.4
568.227,2302.4
568.394,2317.5
568.561,2287.5
568.728,2319.3
568.895,2309.4
569.062,2313.8
569.229,2325.4
569.396,2331.2
569.563,2336.6
569.73,2326.4
569.897,2367.2
570.064,2378.2
570.231,2431.4
570.398,2450.1
570.564,2537.9
570.731,2586.6
570.898,2659.4
571.065,2826.5
571.232,3458.9
571.399,4970.6
571.566,5937.0
571.732,4453.2
571.899,3454.6
572.066,3147.5
572.233,2967.8
572.4,2783.9
572.566,2677.2
572.733,2613.1
572.9,2526.1
573.067,2526.1
573.234,2521.0
573.4,2540.5
573.567,2556.8
573.734,2624.6
573.901,2754.0
574.067,2691.0
574.234,2559.6
574.401,2488.0
574.568,2494.4
574.734,2501.3
574.901,2497.5
575.068,2573.3
575.234,2834.0
575.401,3409.6
575.568,3897.6
575.734,3825.3
575.901,4022.7
576.068,5062.0
576.234,5817.4
576.401,5403.5
576.568,4930.7
576.734,4684.9
576.901,4685.0
577.067,4483.5
577.234,4094.8
577.401,3575.6
577.567,3190.0
577.734,3009.9
577.9,2948.1
578.067,2925.7
578.233,2888.8
578.4,2871.8
578.567,2874.2
578.733,2894.4
578.9,2925.9
579.066,2891.8
579.233,2933.9
579.399,2912.0
579.566,2950.3
579.732,2982.0
579.899,3041.3
580.065,3016.5
580.231,3016.7
580.398,3078.5
580.564,3042.7
580.731,3083.0
580.897,3151.3
581.064,3124.7
581.23,3113.9
581.397,3152.6
581.563,3227.9
581.729,3236.1
581.896,3205.0
582.062,3249.1
582.228,3187.6
582.395,3226.9
582.561,3247.9
582.728,3287.7
582.894,3293.0
583.06,3299.6
583.227,3335.2
583.393,3326.1
583.559,3372.2
583.726,3397.4
583.892,3332.7
584.058,3329.2
584.224,3395.1
584.391,3410.3
584.557,3364.9
584.723,3339.3
584.889,3475.0
585.056,3439.0
585.222,3449.7
585.388,3402.7
585.554,3411.5
585.721,3449.4
585.887,3478.8
586.053,3429.8
586.219,3478.6
586.385,3516.5
586.552,3494.5
586.718,3542.2
586.884,3532.6
587.05,3548.0
587.216,3561.3
587.382,3538.8
587.549,3579.8
587.715,3625.3
587.881,3671.3
588.047,3652.9
588.213,3637.9
588.379,3688.9
588.545,3658.9
588.711,3667.6
588.877,3719.0
589.043,3732.0
589.209,3740.0
589.375,3752.7
589.542,3685.1
589.708,3665.8
589.874,3757.1
590.04,3761.4
590.206,3789.1
590.372,3828.1
590.538,3813.1
590.704,3799.3
590.87,3873.1
591.036,3829.8
591.201,3865.0
591.367,3936.0
591.533,3842.8
591.699,3912.2
591.865,3882.0
592.031,3871.9
592.197,3889.4
592.363,3900.6
592.529,3899.4
592.695,3881.5
592.861,3921.0
593.027,3879.1
593.192,3981.8
593.358,3922.2
593.524,3845.0
593.69,3870.5
593.856,3925.8
594.022,3932.2
594.187,3921.4
594.353,3885.9
594.519,3959.3
594.685,3923.4
594.851,3933.9
595.016,3971.0
595.182,3975.2
595.348,3931.4
595.514,3987.2
595.679,3981.4
595.845,3968.2
596.011,3999.0
596.177,4009.5
596.342,3932.9
596.508,4046.5
596.674,4057.4
596.84,4027.2
597.005,4015.2
597.171,4069.2
597.337,4077.8
597.502,4048.4
597.668,4121.8
597.833,4078.7
597.999,4071.4
598.165,4113.3
598.33,4122.7
598.496,4113.5
598.662,4181.4
598.827,4182.0
598.993,4212.2
599.158,4188.6
599.324,4189.9
599.489,4257.0
599.655,4233.3
599.821,4243.6
599.986,4236.5
600.152,4275.4
600.317,4187.4
600.483,4189.2
600.648,4242.3
600.814,4284.4
600.979,4245.7
601.145,4216.8
601.31,4265.6
601.476,4196.9
601.641,4261.0
601.807,4224.2
601.972,4216.5
602.137,4284.0
602.303,4274.1
602.468,4202.3
602.634,4175.0
602.799,4113.4
602.964,4240.0
603.13,4143.9
603.295,4060.4
603.461,4055.0
603.626,4004.3
603.791,4073.0
603.957,4042.8
604.122,3999.5
604.287,3956.1
604.453,3953.3
604.618,3897.6
604.783,3863.4
604.949,3893.1
605.114,3851.5
605.279,3744.9
605.444,3814.1
605.61,3801.0
605.775,3793.7
605.94,3750.9
606.105,3704.7
606.271,3682.6
606.436,3685.0
606.601,3620.4
606.766,3681.4
606.931,3632.2
607.097,3599.9
607.262,3576.8
607.427,3564.1
607.592,3506.1
607.757,3505.8
607.922,3486.2
608.088,3431.5
608.253,3533.6
608.418,3475.1
608.583,3440.7
608.748,3408.4
608.913,3436.8
609.078,3402.5
609.243,3369.6
609.408,3360.1
609.573,3375.5
609.738,3330.9
609.903,3345.1
610.068,3335.7
610.233,3367.0
610.399,3352.4
610.564,3328.7
610.729,3328.9
610.894,3308.3
611.058,3339.5
611.223,3360.1
611.388,3296.5
611.553,3319.9
611.718,3287.6
611.883,3274.1
612.048,3261.7
612.213,3208.4
612.378,3172.2
612.543,3220.8
612.708,3185.3
612.873,3175.3
613.038,3157.8
613.202,3134.7
613.367,3165.7
613.532,3158.1
613.697,3163.4
613.862,3150.3
614.027,3129.3
614.192,3153.5
614.356,3089.3
614.521,3138.9
614.686,3132.2
614.851,3102.4
615.016,3079.6
615.18,3094.6
615.345,3109.4
615.51,3096.7
615.675,3099.9
615.839,3108.6
616.004,3088.6
616.169,3101.2
616.333,3111.7
616.498,3095.8
616.663,3119.8
616.827,3158.5
616.992,3152.0
617.157,3196.0
617.321,3173.9
617.486,3221.9
617.651,3200.0
617.815,3185.2
617.98,3186.1
618.145,3158.9
618.309,3182.0
618.474,3167.1
618.638,3153.6
618.803,3144.4
618.968,3192.1
619.132,3192.6
619.297,3232.6
619.461,3250.8
619.626,3286.4
619.79,3232.1
619.955,3241.0
620.119,3238.5
620.284,3236.1
620.448,3231.3
620.613,3289.4
620.777,3343.1
620.942,3398.2
621.106,3369.4
621.271,3462.0
621.435,3536.1
621.599,3698.8
621.764,3927.2
621.928,3984.4
622.093,4184.0
622.257,4139.4
622.421,4114.1
622.586,3925.4
622.75,3708.9
622.915,3511.0
623.079,3394.5
623.243,3346.2
623.408,3293.6
623.572,3226.9
623.736,3171.3
623.9,3183.8
624.065,3186.8
624.229,3199.0
624.393,3195.1
624.558,3209.9
624.722,3234.3
624.886,3240.1
625.05,3252.9
625.215,3266.6
625.379,3326.9
625.543,3411.2
625.707,3461.9
625.871,3573.8
626.036,3769.5
626.2,4135.0
626.364,4604.6
626.528,5894.0
626.692,8569.2
626.856,12846.9
627.02,17374.6
627.185,19415.6
627.349,18746.7
627.513,16280.8
627.677,14167.4
627.841,13028.5
628.005,13460.8
628.169,14590.4
628.333,17803.1
628.497,20971.8
628.661,18921.8
628.825,15289.3
628.989,14338.6
629.153,13720.8
629.317,13078.6
629.481,11507.6
629.645,10933.7
629.809,10142.5
629.973,9958.0
630.137,9676.8
630.301,9364.2
630.465,8947.5
630.629,8293.5
630.793,7544.3
630.957,6269.9
631.121,5306.5
631.285,4689.8
631.449,4383.2
631.612,4268.8
631.776,4020.5
631.94,3850.6
632.104,3737.1
632.268,3551.1
632.432,3430.8
632.596,3410.9
632.759,3311.7
632.923,3292.7
633.087,3281.6
633.251,3250.0
633.414,3211.5
633.578,3162.0
633.742,3176.5
633.906,3150.8
634.069,3139.8
634.233,3080.4
634.397,3122.8
634.561,3086.7
634.724,3046.4
634.888,3029.9
635.052,3097.9
635.215,2989.8
635.379,2996.6
635.543,3037.2
635.706,2993.8
635.87,3026.4
636.034,2969.7
636.197,2969.0
636.361,3004.2
636.524,2952.6
636.688,2944.8
636.852,2925.9
637.015,2941.5
637.179,2916.4
637.342,2915.9
637.506,2913.2
637.669,2899.5
637.833,2918.0
637.996,2868.0
638.16,2867.9
638.323,2874.9
638.487,2866.0
638.65,2868.6
638.814,2897.0
638.977,2904.6
639.141,2892.2
639.304,2895.7
639.468,2902.0
639.631,2843.5
639.794,2849.2
639.958,2904.1
640.121,2868.5
640.285,2853.8
640.448,2828.9
640.611,2848.9
640.775,2834.5
640.938,2879.5
641.101,2842.0
641.265,2861.9
641.428,2865.4
641.591,2860.3
641.755,2839.8
641.918,2815.6
642.081,2901.0
642.244,2861.6
642.408,2913.4
642.571,2879.8
642.734,2832.4
642.897,2848.6
643.061,2895.5
643.224,2799.1
643.387,2829.4
643.55,2836.6
643.713,2885.2
643.876,2866.1
644.04,2862.2
644.203,2833.5
644.366,2848.5
644.529,2826.5
644.692,2855.5
644.855,2832.4
645.018,2871.2
645.181,2850.3
645.345,2874.6
645.508,2810.4
645.671,2828.3
645.834,2865.0
645.997,2845.8
646.16,2826.8
646.323,2823.3
646.486,2824.1
646.649,2826.5
646.812,2831.3
646.975,2771.9
647.138,2801.6
647.301,2835.3
647.464,2821.2
647.627,2836.0
647.79,2803.7
647.953,2804.0
648.115,2773.5
648.278,2764.9
648.441,2826.9
648.604,2800.6
648.767,2794.0
648.93,2752.4
649.093,2754.2
649.256,2738.9
649.418,2803.2
649.581,2793.3
649.744,2735.7
649.907,2729.8
650.07,2739.7
650.233,2723.7
650.395,2760.2
650.558,2771.9
650.721,2734.2
650.884,2744.9
651.046,2722.0
651.209,2725.6
651.372,2759.1
651.534,2740.2
651.697,2709.5
651.86,2705.3
652.023,2725.8
652.185,2723.4
652.348,2706.2
652.511,2691.0
652.673,2708.5
652.836,2697.7
652.998,2691.1
653.161,2707.0
653.324,2668.9
653.486,2631.4
653.649,2699.4
653.811,2663.8
653.974,2696.6
654.137,2686.7
654.299,2655.7
654.462,2621.8
654.624,2665.6
654.787,2661.5
654.949,2661.6
655.112,2615.8
655.274,2630.0
655.437,2662.6
655.599,2624.3
655.761,2597.3
655.924,2614.2
656.086,2587.6
656.249,2577.9
656.411,2603.2
656.574,2601.6
656.736,2615.3
656.898,2578.5
657.061,2559.6
657.223,2541.8
657.385,2579.4
657.548,2538.7
657.71,2551.5
657.872,2533.8
658.035,2553.9
658.197,2508.8
658.359,2539.1
658.522,2507.2
658.684,2499.1
658.846,2511.6
659.008,2496.7
659.171,2495.3
659.333,2490.1
659.495,2478.9
659.657,2466.7
659.82,2469.7
659.982,2477.5
660.144,2461.6
660.306,2494.5
660.468,2456.6
660.63,2452.4
660.793,2409.3
660.955,2424.1
661.036,2424.5