File: spectra/VLFR_06-PET_bio_Raman_579f4fae.csv
nm,Intensity
528.626,1864.5
528.795,1865.0
528.963,1865.1
529.132,1865.2
529.3,1864.2
529.469,1864.8
529.637,1866.1
529.806,1864.7
529.974,1865.2
530.143,1864.6
530.311,1865.3
530.48,1864.3
530.648,1865.4
530.816,1864.9
530.985,1868.2
531.153,1867.9
531.322,1872.5
531.49,1878.1
531.658,1930.3
531.827,2930.3
531.995,5722.8
532.164,5216.1
532.332,2504.2
532.5,1878.6
532.669,1869.5
532.837,1871.0
533.006,1876.5
533.174,1882.5
533.342,1912.1
533.511,2164.7
533.679,3853.5
533.847,6938.1
534.016,8838.3
534.184,8906.4
534.352,8210.0
534.521,7415.9
534.689,6841.3
534.857,6372.7
535.025,5890.9
535.194,5343.0
535.362,4912.1
535.53,4410.5
535.699,4092.4
535.867,3757.1
536.035,3473.0
536.203,3260.8
536.372,3165.7
536.54,3082.3
536.708,3026.4
536.876,2952.6
537.044,2936.5
537.213,2922.0
537.381,2887.9
537.549,2811.5
537.717,2838.6
537.885,2846.5
538.054,2845.2
538.222,2831.2
538.39,2869.6
538.558,2854.0
538.726,2869.3
538.894,2867.5
539.063,2872.6
539.231,2855.4
539.399,2951.1
539.567,3008.1
539.735,3043.8
539.903,3070.6
540.071,2980.6
540.239,2904.5
540.408,2791.1
540.576,2748.1
540.744,2707.1
540.912,2663.8
541.08,2658.6
541.248,2652.9
541.416,2619.5
541.584,2633.9
541.752,2647.1
541.92,2617.2
542.088,2633.0
542.256,2622.7
542.424,2637.5
542.592,2642.4
542.76,2619.5
542.928,2638.0
543.096,2630.8
543.264,2620.2
543.432,2594.1
543.6,2675.7
543.768,2674.3
543.936,2694.1
544.104,2688.6
544.272,2640.4
544.44,2635.2
544.608,2661.0
544.776,2662.4
544.944,2684.5
545.112,2663.5
545.28,2692.7
545.448,2690.2
545.616,2646.5
545.784,2690.1
545.951,2686.9
546.119,2675.9
546.287,2689.1
546.455,2711.0
546.623,2688.6
546.791,2680.3
546.959,2708.3
547.127,2720.4
547.294,2733.0
547.462,2716.0
547.63,2725.7
547.798,2733.8
547.966,2745.2
548.134,2747.1
548.301,2738.3
548.469,2745.1
548.637,2748.7
548.805,2765.2
548.972,2750.3
549.14,2756.4
549.308,2771.6
549.476,2742.2
549.644,2763.0
549.811,2727.8
549.979,2785.7
550.147,2796.7
550.315,2889.9
550.482,3437.6
550.65,3857.9
550.818,3401.7
550.985,2925.9
551.153,2810.4
551.321,2789.5
551.488,2832.4
551.656,2848.3
551.824,2846.7
551.991,2855.8
552.159,2871.1
552.327,2878.7
552.494,2936.1
552.662,3137.2
552.83,3314.8
552.997,3131.9
553.165,2994.3
553.333,2886.1
553.5,2928.3
553.668,2900.6
553.835,2889.7
554.003,2868.7
554.171,2901.2
554.338,2911.4
554.506,2925.8
554.673,2916.4
554.841,2952.8
555.008,3002.6
555.176,3056.0
555.343,3136.7
555.511,3388.6
555.679,3493.9
555.846,3469.6
556.014,3448.6
556.181,3468.2
556.349,3500.6
556.516,3559.5
556.684,3544.6
556.851,3632.9
557.018,3699.1
557.186,3966.1
557.353,4491.3
557.521,4815.1
557.688,4585.4
557.856,4048.4
558.023,3779.2
558.191,3722.5
558.358,3728.7
558.525,3743.5
558.693,3608.1
558.86,3516.6
559.028,3375.6
559.195,3249.4
559.362,3202.0
559.53,3131.6
559.697,3132.9
559.864,3129.8
560.032,3145.9
560.199,3160.4
560.366,3134.6
560.534,3149.2
560.701,3198.3
560.868,3189.8
561.036,3227.3
561.203,3248.1
561.37,3258.4
561.538,3287.7
561.705,3263.6
561.872,3270.6
562.039,3373.4
562.207,3406.8
562.374,3444.3
562.541,3423.6
562.708,3468.7
562.876,3524.8
563.043,3530.3
563.21,3503.3
563.377,3456.6
563.545,3453.1
563.712,3361.9
563.879,3326.6
564.046,3385.9
564.213,3380.2
564.38,3403.1
564.548,3547.5
564.715,3614.8
564.882,3794.7
565.049,3959.2
565.216,4172.6
565.383,4239.4
565.551,4468.0
565.718,4561.8
565.885,4648.6
566.052,4345.5
566.219,4068.2
566.386,3813.9
566.553,3665.5
566.72,3527.5
566.887,3540.0
567.054,3543.0
567.221,3559.1
567.388,3748.9
567.555,4072.4
567.722,4154.6
567.889,3941.2
568.057,3713.9
568.224,3611.4
568.391,3565.9
568.558,3560.6
568.725,3551.5
568.892,3528.9
569.058,3554.8
569.225,3605.6
569.392,3666.4
569.559,3722.6
569.726,3798.4
569.893,3891.5
570.06,3951.8
570.227,4079.0
570.394,4306.1
570.561,4660.1
570.728,5085.8
570.895,5344.8
571.062,5999.3
571.229,6378.8
571.395,6286.8
571.562,5748.3
571.729,5356.6
571.896,5027.9
572.063,4777.7
572.23,4421.4
572.397,4179.0
572.563,4036.6
572.73,3897.1
572.897,3850.2
573.064,3822.3
573.231,3749.4
573.397,3831.6
573.564,3819.5
573.731,3886.5
573.898,3994.7
574.064,4034.9
574.231,3966.6
574.398,3877.1
574.565,3932.4
574.731,3912.6
574.898,3974.0
575.065,4083.9
575.232,4252.1
575.398,4290.2
575.565,4061.5
575.732,3981.4
575.898,3969.7
576.065,4050.7
576.232,4174.2
576.398,4298.4
576.565,4340.4
576.732,4360.6
576.898,4259.8
577.065,4144.6
577.232,4067.8
577.398,4015.5
577.565,3964.8
577.731,3899.9
577.898,3948.8
578.065,3956.2
578.231,3911.6
578.398,3967.0
578.564,3924.4
578.731,3932.3
578.897,3992.0
579.064,3973.4
579.23,3968.1
579.397,3977.9
579.563,4015.2
579.73,3976.3
579.896,3981.7
580.063,4043.1
580.229,4064.6
580.396,4078.0
580.562,4151.1
580.729,4218.8
580.895,4243.0
581.062,4287.2
581.228,4397.8
581.395,4554.0
581.561,5102.4
581.728,6264.8
581.894,8758.6
582.06,12336.4
582.227,12622.1
582.393,8456.4
582.56,5326.4
582.726,4562.4
582.892,4336.6
583.059,4327.1
583.225,4281.1
583.391,4190.3
583.558,4168.2
583.724,4188.6
583.89,4250.7
584.057,4283.1
584.223,4266.0
584.389,4332.0
584.556,4402.9
584.722,4360.8
584.888,4446.8
585.054,4552.8
585.221,4920.5
585.387,5629.5
585.553,6971.2
585.719,8336.7
585.886,9222.7
586.052,9294.2
586.218,8500.3
586.384,7486.4
586.55,6236.0
586.717,5287.8
586.883,4782.6
587.049,4657.8
587.215,4531.9
587.381,4414.7
587.548,4365.5
587.714,4368.7
587.88,4337.1
588.046,4361.7
588.212,4323.8
588.378,4361.8
588.544,4337.5
588.71,4376.3
588.876,4319.6
589.043,4352.3
589.209,4329.1
589.375,4339.8
589.541,4337.7
589.707,4314.3
589.873,4289.3
590.039,4350.8
590.205,4314.8
590.371,4290.1
590.537,4316.9
590.703,4369.8
590.869,4392.3
591.035,4393.1
591.201,4371.1
591.367,4311.4
591.533,4313.2
591.699,4305.9
591.865,4378.3
592.031,4423.8
592.197,4410.1
592.363,4404.6
592.529,4336.7
592.694,4429.3
592.86,4477.6
593.026,4447.8
593.192,4413.7
593.358,4341.7
593.524,4457.9
593.69,4436.2
593.856,4413.4
594.021,4400.6
594.187,4405.4
594.353,4418.8
594.519,4487.5
594.685,4423.2
594.851,4412.6
595.016,4548.3
595.182,4455.5
595.348,4480.8
595.514,4473.8
595.68,4538.8
595.845,4505.9
596.011,4494.0
596.177,4555.7
596.342,4509.1
596.508,4493.7
596.674,4620.7
596.84,4603.2
597.005,4536.3
597.171,4583.0
597.337,4560.7
597.502,4556.2
597.668,4572.9
597.834,4626.2
597.999,4586.9
598.165,4569.5
598.331,4602.3
598.496,4578.0
598.662,4606.3
598.828,4601.8
598.993,4571.7
599.159,4591.5
599.324,4697.0
599.49,4687.5
599.656,4664.2
599.821,4661.8
599.987,4732.4
600.152,4682.4
600.318,4711.6
600.483,4673.8
600.649,4710.1
600.814,4723.3
600.98,4734.6
601.145,4709.7
601.311,4739.4
601.476,4819.6
601.642,4754.6
601.807,4776.8
601.973,4649.6
602.138,4773.0
602.304,4800.2
602.469,4775.1
602.635,4818.3
602.8,4811.4
602.965,4863.4
603.131,4821.4
603.296,4768.0
603.462,4810.8
603.627,4852.8
603.792,4835.0
603.958,4894.5
604.123,4877.3
604.288,4982.7
604.454,4807.8
604.619,4853.3
604.784,4934.7
604.95,4954.3
605.115,4966.7
605.28,4845.2
605.446,4900.8
605.611,4932.1
605.776,4969.6
605.941,4907.9
606.107,4912.0
606.272,4972.7
606.437,4976.2
606.602,4957.6
606.767,4924.2
606.933,4980.4
607.098,5017.3
607.263,5031.9
607.428,4922.7
607.593,5018.6
607.759,4979.5
607.924,5062.4
608.089,5120.4
608.254,4982.9
608.419,5064.7
608.584,5133.2
608.749,5104.0
608.915,5061.7
609.08,5031.1
609.245,5039.5
609.41,5065.8
609.575,5104.5
609.74,5104.9
609.905,5116.1
610.07,5064.3
610.235,5180.8
610.4,5162.4
610.565,5063.4
610.73,5134.5
610.895,5199.2
611.06,5185.4
611.225,5203.3
611.39,5153.7
611.555,5133.5
611.72,5260.0
611.885,5178.8
612.05,5183.9
612.215,5124.7
612.38,5166.2
612.545,5141.8
612.71,5153.4
612.875,5239.8
613.04,5232.3
613.204,5227.1
613.369,5136.4
613.534,5214.4
613.699,5163.4
613.864,5279.3
614.029,5268.8
614.194,5252.0
614.358,5286.2
614.523,5186.6
614.688,5236.8
614.853,5264.8
615.018,5227.1
615.182,5272.2
615.347,5243.3
615.512,5263.0
615.677,5229.4
615.841,5254.4
616.006,5251.2
616.171,5356.1
616.336,5229.6
616.5,5334.0
616.665,5368.0
616.83,5333.0
616.994,5298.3
617.159,5301.6
617.324,5372.6
617.489,5396.5
617.653,5327.1
617.818,5386.4
617.982,5451.7
618.147,5463.1
618.312,5387.5
618.476,5339.1
618.641,5337.9
618.805,5435.5
618.97,5323.4
619.135,5392.6
619.299,5476.4
619.464,5335.8
619.628,5338.8
619.793,5395.9
619.957,5306.5
620.122,5348.2
620.286,5399.4
620.451,5261.2
620.615,5281.5
620.78,5340.8
620.944,5306.2
621.109,5293.7
621.273,5285.5
621.438,5232.0
621.602,5384.4
621.767,5362.3
621.931,5340.0
622.095,5296.2
622.26,5421.7
622.424,5315.9
622.589,5292.9
622.753,5359.1
622.917,5354.3
623.082,5415.3
623.246,5303.6
623.41,5415.8
623.575,5404.9
623.739,5385.9
623.903,5346.3
624.068,5394.0
624.232,5396.0
624.396,5432.7
624.561,5475.1
624.725,5494.9
624.889,5387.6
625.053,5553.2
625.218,5390.4
625.382,5433.3
625.546,5444.9
625.71,5378.2
625.875,5373.5
626.039,5468.1
626.203,5350.3
626.367,5365.0
626.531,5365.9
626.695,5362.7
626.86,5324.6
627.024,5377.3
627.188,5445.9
627.352,5386.0
627.516,5426.8
627.68,5459.0
627.844,5394.8
628.008,5512.8
628.172,5538.1
628.337,5511.5
628.501,5617.8
628.665,5770.6
628.829,5610.4
628.993,5789.6
629.157,5815.9
629.321,5770.9
629.485,5700.3
629.649,5686.4
629.813,5686.3
629.977,5728.4
630.141,5602.6
630.305,5603.4
630.469,5637.9
630.633,5670.5
630.797,5893.8
630.96,6026.6
631.124,6339.9
631.288,6658.8
631.452,6805.2
631.616,7116.9
631.78,7173.5
631.944,7040.4
632.108,6926.8
632.272,6601.3
632.435,6620.1
632.599,6391.9
632.763,6358.4
632.927,6192.2
633.091,6285.3
633.254,6267.3
633.418,6229.8
633.582,6105.0
633.746,6106.0
633.91,5943.8
634.073,5879.1
634.237,5816.5
634.401,5768.1
634.564,5769.7
634.728,5872.1
634.892,5740.8
635.056,5655.8
635.219,5862.9
635.383,5808.8
635.547,5915.2
635.71,6103.3
635.874,6373.2
636.038,6677.5
636.201,6885.5
636.365,7381.3
636.528,7328.6
636.692,7253.0
636.856,6998.5
637.019,6351.1
637.183,6165.0
637.346,6125.4
637.51,6003.9
637.673,5790.5
637.837,5698.1
638.0,5783.4
638.164,5744.1
638.327,5831.0
638.491,5628.2
638.654,5659.2
638.818,5757.1
638.981,5654.5
639.145,5618.3
639.308,5610.9
639.472,5717.3
639.635,5750.1
639.799,5605.8
639.962,5537.5
640.125,5701.4
640.289,5674.2
640.452,5580.2
640.616,5621.5
640.779,5632.5
640.942,5528.7
641.106,5525.8
641.269,5624.8
641.432,5598.9
641.596,5745.3
641.759,5732.6
641.922,5481.1
642.085,5563.6
642.249,5837.5
642.412,5742.3
642.575,5652.7
642.738,5768.5
642.902,5620.2
643.065,5600.4
643.228,5556.5
643.391,5576.2
643.555,5592.9
643.718,5736.3
643.881,5719.5
644.044,5713.8
644.207,5651.8
644.37,5692.9
644.534,5441.5
644.697,5522.2
644.86,5615.6
645.023,5552.1
645.186,5711.6
645.349,5574.8
645.512,5595.6
645.675,5712.0
645.838,5659.8
646.001,5634.7
646.164,5564.7
646.327,5606.2
646.49,5547.5
646.653,5576.4
646.816,5572.5
646.979,5642.4
647.142,5513.0
647.305,5652.8
647.468,5601.7
647.631,5686.9
647.794,5529.6
647.957,5545.1
648.12,5658.7
648.283,5471.5
648.446,5510.3
648.609,5509.3
648.772,5616.8
648.935,5498.4
649.098,5728.4
649.26,5532.9
649.423,5450.3
649.586,5459.5
649.749,5580.5
649.912,5568.5
650.075,5316.4
650.237,5495.2
650.4,5587.0
650.563,5457.0
650.726,5524.4
650.888,5509.4
651.051,5380.8
651.214,5494.6
651.377,5488.6
651.539,5610.1
651.702,5366.9
651.865,5461.7
652.027,5515.6
652.19,5434.6
652.353,5377.0
652.515,5458.0
652.678,5395.3
652.841,5401.4
653.003,5281.3
653.166,5277.7
653.329,5263.9
653.491,5355.2
653.654,5291.7
653.816,5356.0
653.979,5332.1
654.142,5275.5
654.304,5325.7
654.467,5239.3
654.629,5210.2
654.792,5372.1
654.954,5165.3
655.117,5344.0
655.279,5190.8
655.442,5412.8
655.604,5233.9
655.767,5242.1
655.929,5294.1
656.091,5293.1
656.254,5096.8
656.416,5157.9
656.579,5307.3
656.741,5181.6
656.904,5173.2
657.066,5160.8
657.228,5127.1
657.391,5125.5
657.553,5115.8
657.715,5073.5
657.878,5041.1
658.04,5029.5
658.202,5028.6
658.365,5035.1
658.527,4996.0
658.689,5083.7
658.851,5188.6
659.014,5026.0
659.176,4983.7
659.338,4867.1
659.5,4934.7
659.663,4922.0
659.825,4997.5
659.987,4970.8
660.149,4876.0
660.311,4944.8
660.474,4867.2
660.636,4898.6
660.798,4966.2
660.96,4934.4
661.041,4934.3