File: spectra/VLFR_01-LDPE_nobio_Raman_391ad2c4.csv
cm-1,Intensity
-123.878,1852.35
-117.855,1854.05
-111.836,1853.55
-105.821,1852.95
-99.8104,1854.25
-93.8036,1852.85
-87.8007,1853.25
-81.8019,1852.95
-75.807,1852.7
-69.8161,1852.85
-63.8293,1852.5
-57.8464,1853.75
-51.8675,1853.4
-45.8926,1854.5
-39.9216,1854.05
-33.9547,1853.35
-27.9917,1855.4
-22.0326,1857.55
-16.0776,1870.5
-10.1265,2108.6
-4.17932,2863.05
1.76388,2752.55
7.70313,1922.85
13.6384,1856.25
19.5698,1853.8
25.4972,1854.5
31.4207,1854.25
37.3403,1854.35
43.256,1854.45
49.1677,1865.05
55.0755,1932.2
60.9794,2053.45
66.8794,2130.25
72.7754,2169.3
78.6676,2164.4
84.5559,2148.4
90.4402,2171.35
96.3207,2174.75
102.197,2184.2
108.07,2183.2
113.939,2181.75
119.804,2167.1
125.665,2171.4
131.522,2158.15
137.375,2161.1
143.225,2157.7
149.07,2160.35
154.912,2163.25
160.75,2151.45
166.584,2155.65
172.414,2161.9
178.241,2149.2
184.063,2174.1
189.882,2181.8
195.697,2169.6
201.508,2173.4
207.315,2179.4
213.119,2166.05
218.918,2172.35
224.714,2177.75
230.506,2174.8
236.294,2177.05
242.078,2187.15
247.859,2185.8
253.636,2189.8
259.409,2182.6
265.178,2177.7
270.943,2185.85
276.705,2195.85
282.463,2191.5
288.217,2189.9
293.967,2192.85
299.713,2200.1
305.456,2189.35
311.195,2196.1
316.93,2214.8
322.662,2194.4
328.389,2210.1
334.113,2210.65
339.834,2215.2
345.55,2204.6
351.263,2220.55
356.972,2215.9
362.677,2220.45
368.379,2226.8
374.077,2231.75
379.771,2232.0
385.461,2222.75
391.148,2229.95
396.831,2232.6
402.51,2239.6
408.186,2238.6
413.858,2242.05
419.526,2238.55
425.19,2236.2
430.851,2244.05
436.508,2242.95
442.162,2244.3
447.811,2247.3
453.458,2241.65
459.1,2247.9
464.739,2255.15
470.374,2262.1
476.005,2275.95
481.633,2265.15
487.257,2263.3
492.878,2273.35
498.494,2263.8
504.107,2268.0
509.717,2257.1
515.323,2283.55
520.925,2267.85
526.524,2274.15
532.119,2281.9
537.71,2276.6
543.298,2282.05
548.882,2279.75
554.462,2289.05
560.039,2298.25
565.613,2295.25
571.182,2305.9
576.748,2291.4
582.311,2292.05
587.87,2301.6
593.425,2298.4
598.977,2294.15
604.525,2304.35
610.069,2304.85
615.61,2304.45
621.148,2301.0
626.682,2288.0
632.212,2312.65
637.739,2320.95
643.262,2323.1
648.781,2338.8
654.297,2334.5
659.81,2320.95
665.319,2324.85
670.824,2333.6
676.326,2331.3
681.824,2330.7
687.319,2338.45
692.81,2321.7
698.298,2308.65
703.782,2333.75
709.262,2342.5
714.739,2333.5
720.213,2348.1
725.683,2335.3
731.15,2343.6
736.613,2358.4
742.072,2355.25
747.528,2355.4
752.981,2355.05
758.43,2353.65
763.875,2366.2
769.317,2370.05
774.756,2373.8
780.191,2364.45
785.623,2366.25
791.051,2358.5
796.475,2367.35
801.897,2355.3
807.314,2375.2
812.729,2367.8
818.139,2364.85
823.547,2380.75
828.951,2374.15
834.351,2383.5
839.748,2385.25
845.142,2383.1
850.532,2387.75
855.918,2396.1
861.302,2394.05
866.681,2387.3
872.058,2391.95
877.431,2401.65
882.8,2407.45
888.166,2397.0
893.529,2395.1
898.888,2410.65
904.244,2410.9
909.596,2412.75
914.945,2406.95
920.291,2426.35
925.633,2407.6
930.972,2417.25
936.308,2423.1
941.64,2417.6
946.968,2416.35
952.294,2440.75
957.615,2430.1
962.934,2436.3
968.249,2440.25
973.561,2436.9
978.869,2426.4
984.174,2427.15
989.476,2437.6
994.774,2446.35
1000.07,2440.0
1005.36,2453.45
1010.65,2432.4
1015.93,2446.7
1021.22,2458.2
1026.49,2437.8
1031.77,2461.0
1037.04,2465.2
1042.31,2454.1
1047.57,2449.85
1052.83,2474.25
1058.09,2471.85
1063.35,2498.15
1068.6,2499.75
1073.85,2481.35
1079.09,2478.05
1084.33,2464.85
1089.57,2470.5
1094.81,2485.5
1100.04,2489.4
1105.27,2488.65
1110.49,2471.75
1115.71,2491.0
1120.93,2483.15
1126.15,2508.4
1131.36,2512.15
1136.57,2493.75
1141.77,2484.0
1146.98,2481.85
1152.18,2508.5
1157.37,2481.8
1162.56,2467.5
1167.75,2493.3
1172.94,2486.75
1178.12,2497.45
1183.3,2492.1
1188.48,2505.9
1193.65,2489.25
1198.82,2521.3
1203.99,2508.1
1209.15,2511.9
1214.31,2513.2
1219.46,2524.7
1224.62,2510.95
1229.77,2512.85
1234.92,2512.8
1240.06,2524.8
1245.2,2510.35
1250.34,2518.65
1255.47,2537.1
1260.6,2515.1
1265.73,2531.1
1270.85,2532.35
1275.97,2522.5
1281.09,2543.35
1286.21,2566.0
1291.32,2594.75
1296.43,2605.2
1301.53,2583.0
1306.63,2569.0
1311.73,2579.6
1316.83,2571.05
1321.92,2573.05
1327.01,2563.8
1332.1,2561.85
1337.18,2570.25
1342.26,2586.0
1347.34,2549.2
1352.41,2560.05
1357.48,2559.3
1362.55,2569.0
1367.61,2562.55
1372.67,2546.75
1377.73,2558.15
1382.78,2562.8
1387.84,2552.15
1392.88,2565.8
1397.93,2560.55
1402.97,2564.3
1408.01,2557.9
1413.05,2583.95
1418.08,2581.5
1423.11,2600.4
1428.14,2597.8
1433.16,2625.3
1438.18,2637.5
1443.2,2630.95
1448.21,2640.95
1453.22,2619.05
1458.23,2609.5
1463.23,2614.8
1468.23,2609.3
1473.23,2589.25
1478.23,2599.3
1483.22,2583.9
1488.21,2569.0
1493.2,2568.25
1498.18,2578.45
1503.16,2575.45
1508.14,2601.4
1513.11,2586.85
1518.08,2585.7
1523.05,2599.2
1528.01,2578.9
1532.97,2589.4
1537.93,2606.35
1542.89,2590.25
1547.84,2609.45
1552.79,2605.85
1557.73,2615.25
1562.68,2623.0
1567.62,2612.65
1572.56,2604.05
1577.49,2598.9
1582.42,2612.9
1587.35,2596.15
1592.27,2616.85
1597.19,2618.1
1602.11,2606.65
1607.03,2607.85
1611.94,2607.2
1616.85,2617.25
1621.76,2596.4
1626.66,2617.55
1631.56,2627.4
1636.46,2628.4
1641.36,2619.2
1646.25,2614.85
1651.14,2623.3
1656.02,2637.7
1660.9,2631.7
1665.78,2624.5
1670.66,2633.05
1675.54,2629.25
1680.41,2598.7
1685.27,2612.95
1690.14,2638.45
1695.0,2609.85
1699.86,2596.45
1704.71,2614.7
1709.57,2593.95
1714.42,2598.4
1719.26,2593.5
1724.11,2594.0
1728.95,2615.7
1733.79,2596.75
1738.62,2585.1
1743.46,2617.65
1748.28,2609.6
1753.11,2612.65
1757.93,2623.15
1762.75,2613.3
1767.57,2619.3
1772.39,2607.7
1777.2,2610.25
1782.01,2623.0
1786.81,2614.05
1791.62,2609.05
1796.41,2608.95
1801.21,2608.25
1806.01,2616.6
1810.8,2618.8
1815.59,2576.75
1820.37,2606.65
1825.15,2601.0
1829.93,2594.1
1834.71,2601.2
1839.48,2610.15
1844.25,2617.75
1849.02,2603.75
1853.79,2613.0
1858.55,2608.05
1863.31,2606.9
1868.06,2603.9
1872.82,2614.05
1877.57,2606.1
1882.31,2605.45
1887.06,2607.35
1891.8,2609.25
1896.54,2628.95
1901.28,2621.6
1906.01,2603.45
1910.74,2614.1
1915.47,2620.85
1920.19,2620.1
1924.91,2605.75
1929.63,2614.85
1934.35,2623.75
1939.06,2602.55
1943.77,2594.35
1948.48,2636.0
1953.19,2622.45
1957.89,2611.4
1962.59,2600.95
1967.28,2617.4
1971.98,2622.0
1976.67,2609.4
1981.35,2630.85
1986.04,2640.15
1990.72,2625.85
1995.4,2607.05
2000.08,2630.75
2004.75,2623.65
2009.42,2636.6
2014.09,2628.65
2018.75,2639.6
2023.42,2632.6
2028.08,2651.35
2032.73,2642.3
2037.39,2640.95
2042.04,2634.45
2046.69,2645.05
2051.33,2647.65
2055.97,2640.85
2060.61,2649.4
2065.25,2632.75
2069.88,2640.6
2074.52,2653.15
2079.15,2645.1
2083.77,2626.6
2088.39,2646.05
2093.01,2657.3
2097.63,2663.15
2102.25,2641.85
2106.86,2668.05
2111.47,2669.65
2116.08,2661.85
2120.68,2656.5
2125.28,2667.9
2129.88,2665.1
2134.47,2669.25
2139.07,2668.65
2143.66,2686.4
2148.24,2658.8
2152.83,2648.5
2157.41,2679.15
2161.99,2656.15
2166.57,2663.85
2171.14,2669.85
2175.71,2664.7
2180.28,2676.4
2184.84,2676.8
2189.41,2681.3
2193.97,2659.95
2198.52,2669.85
2203.08,2670.0
2207.63,2660.55
2212.18,2661.0
2216.73,2675.4
2221.27,2667.15
2225.81,2670.75
2230.35,2650.15
2234.89,2664.0
2239.42,2682.8
2243.95,2654.8
2248.48,2661.45
2253.0,2647.85
2257.52,2655.9
2262.04,2656.55
2266.56,2650.7
2271.07,2665.8
2275.58,2649.45
2280.09,2647.05
2284.6,2649.1
2289.1,2652.8
2293.6,2650.4
2298.1,2652.15
2302.6,2656.35
2307.09,2649.6
2311.58,2667.95
2316.07,2667.65
2320.55,2659.05
2325.03,2657.35
2329.51,2652.15
2333.99,2657.7
2338.46,2644.75
2342.93,2637.0
2347.4,2656.8
2351.87,2649.8
2356.33,2642.75
2360.79,2661.2
2365.25,2641.9
2369.71,2646.2
2374.16,2630.6
2378.61,2647.95
2383.06,2663.15
2387.5,2635.55
2391.94,2629.8
2396.38,2646.6
2400.82,2637.45
2405.26,2657.6
2409.69,2659.8
2414.12,2649.15
2418.54,2658.25
2422.97,2643.3
2427.39,2651.7
2431.81,2639.8
2436.22,2645.2
2440.64,2657.25
2445.05,2663.35
2449.46,2666.55
2453.86,2624.35
2458.27,2640.1
2462.67,2619.65
2467.06,2632.7
2471.46,2623.2
2475.85,2635.1
2480.24,2640.0
2484.63,2643.3
2489.02,2631.2
2493.4,2622.4
2497.78,2612.9
2502.16,2627.8
2506.53,2642.15
2510.9,2646.35
2515.27,2620.05
2519.64,2633.95
2524.0,2626.5
2528.37,2643.25
2532.73,2625.65
2537.08,2650.1
2541.44,2628.75
2545.79,2617.5
2550.14,2631.55
2554.48,2627.7
2558.83,2609.25
2563.17,2634.15
2567.51,2639.25
2571.85,2639.75
2576.18,2623.85
2580.51,2631.9
2584.84,2634.7
2589.17,2614.9
2593.49,2646.5
2597.81,2644.8
2602.13,2632.6
2606.45,2638.6
2610.76,2620.8
2615.07,2633.7
2619.38,2642.25
2623.69,2635.9
2627.99,2625.5
2632.29,2651.9
2636.59,2637.35
2640.89,2635.45
2645.18,2645.75
2649.47,2654.25
2653.76,2652.45
2658.05,2652.3
2662.33,2629.1
2666.61,2644.35
2670.89,2659.85
2675.17,2647.95
2679.44,2623.95
2683.71,2645.45
2687.98,2644.35
2692.25,2629.0
2696.51,2642.4
2700.77,2646.4
2705.03,2661.6
2709.29,2643.95
2713.54,2656.7
2717.79,2675.3
2722.04,2647.9
2726.29,2674.55
2730.53,2656.55
2734.77,2652.9
2739.01,2639.9
2743.25,2651.15
2747.48,2645.15
2751.71,2628.25
2755.94,2634.0
2760.17,2650.6
2764.39,2646.55
2768.61,2639.9
2772.83,2644.8
2777.05,2646.85
2781.27,2630.2
2785.48,2623.7
2789.69,2645.55
2793.89,2648.6
2798.1,2639.6
2802.3,2642.45
2806.5,2643.95
2810.7,2637.2
2814.89,2657.9
2819.09,2646.35
2823.28,2651.1
2827.46,2690.05
2831.65,2708.05
2835.83,2761.15
2840.01,2844.75
2844.19,2990.1
2848.37,3025.75
2852.54,2985.45
2856.71,2942.15
2860.88,2924.85
2865.05,2901.2
2869.21,2884.85
2873.37,2935.1
2877.53,3017.5
2881.69,3100.1
2885.84,3032.35
2889.99,2957.75
2894.14,2945.05
2898.29,2931.75
2902.43,2891.4
2906.58,2876.3
2910.72,2893.75
2914.85,2881.35
2918.99,2873.75
2923.12,2844.45
2927.25,2873.9
2931.38,2882.85
2935.5,2868.65
2939.63,2829.25
2943.75,2790.15
2947.87,2775.2
2951.98,2740.25
2956.1,2731.05
2960.21,2715.5
2964.32,2718.25
2968.42,2702.8
2972.53,2699.95
2976.63,2724.55
2980.73,2707.0
2984.83,2696.4
2988.92,2689.2
2993.01,2679.25
2997.1,2684.6
3001.19,2683.05
3005.28,2667.2
3009.36,2674.2
3013.44,2684.75
3017.52,2666.7
3021.6,2667.65
3025.67,2668.05
3029.74,2668.1
3033.81,2671.0
3037.88,2682.4
3041.94,2666.55
3046.01,2663.35
3050.07,2650.75
3054.12,2659.0
3058.18,2675.4
3062.23,2643.6
3066.28,2652.25
3070.33,2675.5
3074.38,2662.5
3078.42,2647.75
3082.46,2652.3
3086.5,2641.95
3090.54,2653.15
3094.57,2655.85
3098.6,2647.2
3102.63,2661.0
3106.66,2652.85
3110.69,2643.85
3114.71,2674.75
3118.73,2657.8
3122.75,2656.3
3126.77,2647.9
3130.78,2663.3
3134.79,2654.15
3138.8,2649.55
3142.81,2649.9
3146.81,2668.15
3150.82,2636.1
3154.82,2640.1
3158.81,2656.25
3162.81,2664.55
3166.8,2640.6
3170.79,2685.3
3174.78,2665.15
3178.77,2658.35
3182.75,2632.25
3186.74,2633.45
3190.72,2660.15
3194.69,2649.55
3198.67,2646.45
3202.64,2654.55
3206.61,2657.65
3210.58,2649.05
3214.55,2633.7
3218.51,2636.1
3222.47,2655.15
3226.43,2669.0
3230.39,2658.15
3234.35,2656.8
3238.3,2652.1
3242.25,2651.55
3246.2,2629.25
3250.15,2639.25
3254.09,2657.6
3258.03,2645.95
3261.97,2646.35
3265.91,2653.45
3269.84,2658.2
3273.78,2674.3
3277.71,2659.2
3281.64,2655.2
3285.56,2645.75
3289.49,2658.15
3293.41,2667.75
3297.33,2688.25
3301.25,2652.7
3305.16,2663.25
3309.07,2644.75
3312.99,2639.5
3316.89,2656.8
3320.8,2651.7
3324.7,2653.0
3328.61,2662.35
3332.51,2658.5
3336.4,2649.35
3340.3,2648.35
3344.19,2665.15
3348.08,2641.9
3351.97,2637.35
3355.86,2662.25
3359.74,2650.1
3363.63,2672.0
3367.51,2651.2
3371.39,2611.85
3375.26,2635.35
3379.13,2643.5
3383.01,2642.1
3386.88,2626.4
3390.74,2636.8
3394.61,2629.05
3398.47,2631.7
3402.33,2623.5
3406.19,2627.95
3410.05,2622.1
3413.9,2636.35
3417.75,2652.3
3421.6,2632.85
3425.45,2604.25
3429.3,2621.3
3433.14,2656.25
3436.98,2625.1
3440.82,2604.8
3444.66,2639.95
3448.49,2627.05
3452.32,2634.85
3456.15,2621.8
3459.98,2605.8
3463.81,2623.35
3467.63,2618.5
3471.46,2634.05
3475.28,2622.4
3479.09,2626.35
3482.91,2598.05
3486.72,2609.35
3490.53,2611.25
3494.34,2594.7
3498.15,2600.15
3501.96,2619.65
3505.76,2607.5
3509.56,2597.4
3513.36,2577.2
3517.15,2605.85
3520.95,2587.7
3524.74,2599.75
3528.53,2585.0
3532.32,2585.55
3536.11,2592.65
3539.89,2570.35
3543.67,2586.1
3547.45,2585.9
3551.23,2573.3
3555.0,2577.65
3558.78,2565.05
3562.55,2604.4
3566.32,2567.4
3570.09,2592.3
3573.85,2567.65
3577.61,2574.55
3581.37,2608.05
3585.13,2563.95
3588.89,2558.55
3592.64,2581.8
3596.4,2565.05
3600.15,2571.5
3603.9,2540.3
3607.64,2557.3
3611.39,2542.2
3615.13,2551.55
3618.87,2578.35
3622.61,2567.9
3626.34,2532.0
3630.08,2533.35
3633.81,2547.65
3637.54,2537.7
3641.27,2531.2
3644.99,2505.6
3648.72,2514.4
3652.44,2549.85
3656.16,2539.65
3659.87,2516.55
3663.59,2522.1
3665.45,2548.3