File: spectra/VLFR_02-HDPE_bio_Raman_cb08cfa3.csv
nm,Intensity
528.626,1862.8
528.795,1864.1
528.963,1863.0
529.132,1863.4
529.3,1865.2
529.469,1863.1
529.637,1864.1
529.806,1864.4
529.974,1862.4
530.143,1862.0
530.311,1863.5
530.48,1863.2
530.648,1863.9
530.816,1864.3
530.985,1863.9
531.153,1865.3
531.322,1867.1
531.49,1867.9
531.658,1885.8
531.827,2218.0
531.995,3246.2
532.164,3143.4
532.332,2097.3
532.5,1866.4
532.669,1865.9
532.837,1865.9
533.006,1864.7
533.174,1864.1
533.342,1865.3
533.511,1878.1
533.679,1943.8
533.847,2096.5
534.016,2206.4
534.184,2241.8
534.352,2253.4
534.521,2245.2
534.689,2235.3
534.857,2261.4
535.025,2277.2
535.194,2256.5
535.362,2253.4
535.53,2253.6
535.699,2252.6
535.867,2254.6
536.035,2219.8
536.203,2230.8
536.372,2227.9
536.54,2220.8
536.708,2211.1
536.876,2214.9
537.044,2196.9
537.213,2215.5
537.381,2244.0
537.549,2233.5
537.717,2241.9
537.885,2236.7
538.054,2255.7
538.222,2226.7
538.39,2214.8
538.558,2235.2
538.726,2230.3
538.894,2239.8
539.063,2231.4
539.231,2224.8
539.399,2222.7
539.567,2212.1
539.735,2225.7
539.903,2233.0
540.071,2228.7
540.239,2228.6
540.408,2214.2
540.576,2219.5
540.744,2233.0
540.912,2222.9
541.08,2226.9
541.248,2247.4
541.416,2217.5
541.584,2236.8
541.752,2255.3
541.92,2246.7
542.088,2253.3
542.256,2249.5
542.424,2248.2
542.592,2241.5
542.76,2258.2
542.928,2244.5
543.096,2244.2
543.264,2240.5
543.432,2240.7
543.6,2247.8
543.768,2268.2
543.936,2265.8
544.104,2261.4
544.272,2277.5
544.44,2259.1
544.608,2247.9
544.776,2256.8
544.944,2274.6
545.112,2290.1
545.28,2281.3
545.448,2246.3
545.616,2257.6
545.784,2279.0
545.951,2286.8
546.119,2257.0
546.287,2271.5
546.455,2276.1
546.623,2287.2
546.791,2283.4
546.959,2289.9
547.127,2292.6
547.294,2281.6
547.462,2267.6
547.63,2253.8
547.798,2283.3
547.966,2294.1
548.134,2292.5
548.301,2280.0
548.469,2271.9
548.637,2293.1
548.805,2287.6
548.972,2311.3
549.14,2301.0
549.308,2303.4
549.476,2306.3
549.644,2293.3
549.811,2297.4
549.979,2310.1
550.147,2316.0
550.315,2286.5
550.482,2296.5
550.65,2305.7
550.818,2306.1
550.985,2309.3
551.153,2319.0
551.321,2306.4
551.488,2323.3
551.656,2309.1
551.824,2335.9
551.991,2338.7
552.159,2335.4
552.327,2325.8
552.494,2319.2
552.662,2317.1
552.83,2309.0
552.997,2326.3
553.165,2329.6
553.333,2329.6
553.5,2345.0
553.668,2313.4
553.835,2344.5
554.003,2342.1
554.171,2345.0
554.338,2335.2
554.506,2337.2
554.673,2339.6
554.841,2363.8
555.008,2363.4
555.176,2358.4
555.343,2347.6
555.511,2352.6
555.679,2342.0
555.846,2357.8
556.014,2356.7
556.181,2345.8
556.349,2370.8
556.516,2369.0
556.684,2365.3
556.851,2362.4
557.018,2376.4
557.186,2374.6
557.353,2376.4
557.521,2382.7
557.688,2392.6
557.856,2412.6
558.023,2371.2
558.191,2403.7
558.358,2397.9
558.525,2396.7
558.693,2379.5
558.86,2382.1
559.028,2390.4
559.195,2409.4
559.362,2417.7
559.53,2418.7
559.697,2416.9
559.864,2409.5
560.032,2408.3
560.199,2420.9
560.366,2403.0
560.534,2429.5
560.701,2439.9
560.868,2438.5
561.036,2454.9
561.203,2460.8
561.37,2437.8
561.538,2425.2
561.705,2437.9
561.872,2438.8
562.039,2465.9
562.207,2470.6
562.374,2459.2
562.541,2465.5
562.708,2489.5
562.876,2482.4
563.043,2493.6
563.21,2481.4
563.377,2487.5
563.545,2508.4
563.712,2548.2
563.879,2653.1
564.046,2727.7
564.213,2635.8
564.38,2565.2
564.548,2549.3
564.715,2529.7
564.882,2541.0
565.049,2521.9
565.216,2533.2
565.383,2533.0
565.551,2546.2
565.718,2546.4
565.885,2629.2
566.052,2753.7
566.219,2818.9
566.386,2671.0
566.553,2560.9
566.72,2514.3
566.887,2506.9
567.054,2527.0
567.221,2519.7
567.388,2534.4
567.555,2536.0
567.722,2528.9
567.889,2526.0
568.057,2519.0
568.224,2513.2
568.391,2513.0
568.558,2505.3
568.725,2504.3
568.892,2501.2
569.058,2542.6
569.225,2537.8
569.392,2536.2
569.559,2527.9
569.726,2535.7
569.893,2537.8
570.06,2527.1
570.227,2557.5
570.394,2557.2
570.561,2544.4
570.728,2571.9
570.895,2560.1
571.062,2571.8
571.229,2665.5
571.395,2883.6
571.562,3031.8
571.729,2841.7
571.896,2682.4
572.063,2643.9
572.23,2630.1
572.397,2605.7
572.563,2604.1
572.73,2604.1
572.897,2590.7
573.064,2581.3
573.231,2590.9
573.397,2611.4
573.564,2591.1
573.731,2619.3
573.898,2616.0
574.064,2650.6
574.231,2628.4
574.398,2588.2
574.565,2596.0
574.731,2599.6
574.898,2661.4
575.065,2651.5
575.232,2646.2
575.398,2740.3
575.565,2808.1
575.732,2793.4
575.898,2783.6
576.065,2870.4
576.232,2976.0
576.398,2980.2
576.565,2939.5
576.732,2918.9
576.898,2934.1
577.065,2903.4
577.232,2867.7
577.398,2819.6
577.565,2794.8
577.731,2762.5
577.898,2783.6
578.065,2776.3
578.231,2752.3
578.398,2750.1
578.564,2764.5
578.731,2785.2
578.897,2815.9
579.064,2801.7
579.23,2816.9
579.397,2859.5
579.563,2866.9
579.73,2873.4
579.896,2871.7
580.063,2915.5
580.229,2924.0
580.396,2916.2
580.562,2943.4
580.729,2940.2
580.895,2956.1
581.062,2995.4
581.228,2992.0
581.395,3001.6
581.561,3001.8
581.728,3036.6
581.894,3065.9
582.06,3007.8
582.227,3014.9
582.393,3098.2
582.56,3089.4
582.726,3064.6
582.892,3087.4
583.059,3158.2
583.225,3141.7
583.391,3113.9
583.558,3166.9
583.724,3197.2
583.89,3185.7
584.057,3224.7
584.223,3236.2
584.389,3255.7
584.556,3228.6
584.722,3274.6
584.888,3293.1
585.054,3276.8
585.221,3301.1
585.387,3323.2
585.553,3320.4
585.719,3294.0
585.886,3328.9
586.052,3384.7
586.218,3359.6
586.384,3432.1
586.55,3425.9
586.717,3458.8
586.883,3474.5
587.049,3459.1
587.215,3485.4
587.381,3487.9
587.548,3548.0
587.714,3551.6
587.88,3577.0
588.046,3588.5
588.212,3621.2
588.378,3651.1
588.544,3653.6
588.71,3660.1
588.876,3671.4
589.043,3670.1
589.209,3728.8
589.375,3673.2
589.541,3740.3
589.707,3735.6
589.873,3746.6
590.039,3832.2
590.205,3844.8
590.371,3854.7
590.537,3873.1
590.703,3897.6
590.869,3938.3
591.035,3918.1
591.201,3993.2
591.367,4001.9
591.533,4033.7
591.699,4007.9
591.865,4040.8
592.031,4118.0
592.197,4135.9
592.363,4102.5
592.529,4112.8
592.694,4174.0
592.86,4161.2
593.026,4148.2
593.192,4151.8
593.358,4169.7
593.524,4226.7
593.69,4244.0
593.856,4148.6
594.021,4279.6
594.187,4277.8
594.353,4227.3
594.519,4279.1
594.685,4308.1
594.851,4317.5
595.016,4256.8
595.182,4354.7
595.348,4355.6
595.514,4353.5
595.68,4373.6
595.845,4445.7
596.011,4433.8
596.177,4509.0
596.342,4478.3
596.508,4499.4
596.674,4568.9
596.84,4540.4
597.005,4558.3
597.171,4560.5
597.337,4563.7
597.502,4583.0
597.668,4644.2
597.834,4657.6
597.999,4702.4
598.165,4632.8
598.331,4700.0
598.496,4712.6
598.662,4679.3
598.828,4656.9
598.993,4729.4
599.159,4757.7
599.324,4749.4
599.49,4798.8
599.656,4776.1
599.821,4808.1
599.987,4762.5
600.152,4814.1
600.318,4792.8
600.483,4789.6
600.649,4841.6
600.814,4877.8
600.98,4834.4
601.145,4819.7
601.311,4847.3
601.476,4887.5
601.642,4803.9
601.807,4815.4
601.973,4807.0
602.138,4894.1
602.304,4797.6
602.469,4829.4
602.635,4819.3
602.8,4749.7
602.965,4781.4
603.131,4792.9
603.296,4779.6
603.462,4755.4
603.627,4735.4
603.792,4729.6
603.958,4699.4
604.123,4721.9
604.288,4614.3
604.454,4671.6
604.619,4675.6
604.784,4649.0
604.95,4599.7
605.115,4602.2
605.28,4606.9
605.446,4611.6
605.611,4554.7
605.776,4539.5
605.941,4488.6
606.107,4416.3
606.272,4459.7
606.437,4492.5
606.602,4454.2
606.767,4382.6
606.933,4451.0
607.098,4389.1
607.263,4317.9
607.428,4350.6
607.593,4359.5
607.759,4302.4
607.924,4327.1
608.089,4314.2
608.254,4218.8
608.419,4200.0
608.584,4272.2
608.749,4240.7
608.915,4174.7
609.08,4210.2
609.245,4139.9
609.41,4107.5
609.575,4185.6
609.74,4130.2
609.905,4174.5
610.07,4089.2
610.235,4072.4
610.4,4091.4
610.565,4070.5
610.73,4108.6
610.895,3997.9
611.06,4023.2
611.225,4026.4
611.39,4026.6
611.555,3966.4
611.72,3998.0
611.885,3975.3
612.05,3963.9
612.215,3916.1
612.38,3923.0
612.545,3930.4
612.71,3812.0
612.875,3892.6
613.04,3862.3
613.204,3825.7
613.369,3878.7
613.534,3815.5
613.699,3835.5
613.864,3769.9
614.029,3767.0
614.194,3790.9
614.358,3787.8
614.523,3778.9
614.688,3787.3
614.853,3713.9
615.018,3718.5
615.182,3748.6
615.347,3698.1
615.512,3718.6
615.677,3689.5
615.841,3640.2
616.006,3663.0
616.171,3703.7
616.336,3627.2
616.5,3617.1
616.665,3630.5
616.83,3601.3
616.994,3606.2
617.159,3598.0
617.324,3567.0
617.489,3603.9
617.653,3581.2
617.818,3589.3
617.982,3541.6
618.147,3578.3
618.312,3508.9
618.476,3573.1
618.641,3485.5
618.805,3536.0
618.97,3564.6
619.135,3438.6
619.299,3465.7
619.464,3485.9
619.628,3486.8
619.793,3478.6
619.957,3485.2
620.122,3457.1
620.286,3421.7
620.451,3451.1
620.615,3426.3
620.78,3428.0
620.944,3433.1
621.109,3442.7
621.273,3416.3
621.438,3410.7
621.602,3453.2
621.767,3454.0
621.931,3375.6
622.095,3443.3
622.26,3449.5
622.424,3462.8
622.589,3406.7
622.753,3369.3
622.917,3381.7
623.082,3301.4
623.246,3339.7
623.41,3314.4
623.575,3293.7
623.739,3291.6
623.903,3271.8
624.068,3275.9
624.232,3273.4
624.396,3283.3
624.561,3224.7
624.725,3237.2
624.889,3253.7
625.053,3269.9
625.218,3213.2
625.382,3216.8
625.546,3230.3
625.71,3220.4
625.875,3234.2
626.039,3256.0
626.203,3297.5
626.367,3305.9
626.531,3410.2
626.695,3658.5
626.86,3961.5
627.024,4423.6
627.188,4627.7
627.352,4526.2
627.516,4314.7
627.68,4155.3
627.844,4023.1
628.008,4014.5
628.172,4110.6
628.337,4447.2
628.501,4721.4
628.665,4584.5
628.829,4184.2
628.993,4000.2
629.157,3926.4
629.321,3832.5
629.485,3840.0
629.649,3662.7
629.813,3580.0
629.977,3570.6
630.141,3563.8
630.305,3562.5
630.469,3516.1
630.633,3433.5
630.797,3374.6
630.96,3282.0
631.124,3212.4
631.288,3161.3
631.452,3134.2
631.616,3071.6
631.78,3064.4
631.944,3069.7
632.108,3040.1
632.272,3044.1
632.435,3092.6
632.599,3078.7
632.763,3059.8
632.927,3064.0
633.091,3064.2
633.254,3062.3
633.418,3047.0
633.582,3065.4
633.746,3044.6
633.91,2993.9
634.073,3054.6
634.237,3014.4
634.401,3012.5
634.564,3000.6
634.728,3027.0
634.892,3031.8
635.056,3023.6
635.219,3011.5
635.383,3009.8
635.547,2983.3
635.71,3009.0
635.874,3020.7
636.038,2986.4
636.201,2997.5
636.365,3031.8
636.528,3023.5
636.692,3023.3
636.856,3009.2
637.019,2967.7
637.183,3024.0
637.346,3007.3
637.51,3036.6
637.673,2991.9
637.837,3026.5
638.0,3034.5
638.164,3067.9
638.327,3007.1
638.491,2994.2
638.654,2992.8
638.818,3005.4
638.981,3044.6
639.145,3002.5
639.308,3000.5
639.472,3038.9
639.635,3000.9
639.799,3028.9
639.962,3006.3
640.125,3013.0
640.289,3009.3
640.452,3006.7
640.616,2992.1
640.779,2982.2
640.942,2966.1
641.106,2988.5
641.269,3027.1
641.432,3015.4
641.596,2998.2
641.759,2977.7
641.922,3004.2
642.085,3012.2
642.249,3001.0
642.412,2998.9
642.575,3005.1
642.738,3017.0
642.902,3016.4
643.065,2963.9
643.228,2970.4
643.391,3026.4
643.555,2997.2
643.718,2992.4
643.881,3010.1
644.044,3040.2
644.207,3036.4
644.37,3031.1
644.534,3010.1
644.697,2954.7
644.86,3019.6
645.023,2998.2
645.186,3019.1
645.349,3007.3
645.512,2994.1
645.675,2999.3
645.838,3004.7
646.001,3018.4
646.164,3009.0
646.327,3017.0
646.49,2993.6
646.653,2984.1
646.816,2948.5
646.979,2959.1
647.142,2974.3
647.305,2996.7
647.468,2997.5
647.631,2942.3
647.794,2913.4
647.957,2970.3
648.12,2972.6
648.283,2963.8
648.446,2965.8
648.609,2951.8
648.772,2952.3
648.935,2973.9
649.098,2953.7
649.26,2947.0
649.423,2908.3
649.586,2939.9
649.749,2923.9
649.912,2937.4
650.075,2940.8
650.237,2909.7
650.4,2951.9
650.563,2945.0
650.726,2904.7
650.888,2911.6
651.051,2938.9
651.214,2955.0
651.377,2918.7
651.539,2875.2
651.702,2914.5
651.865,2915.1
652.027,2905.9
652.19,2946.0
652.353,2928.7
652.515,2899.7
652.678,2882.9
652.841,2890.9
653.003,2918.2
653.166,2874.5
653.329,2837.9
653.491,2877.2
653.654,2882.4
653.816,2862.8
653.979,2888.0
654.142,2829.2
654.304,2869.1
654.467,2829.7
654.629,2861.8
654.792,2812.8
654.954,2849.5
655.117,2855.6
655.279,2809.3
655.442,2835.0
655.604,2810.2
655.767,2842.9
655.929,2812.7
656.091,2816.0
656.254,2754.8
656.416,2773.1
656.579,2773.2
656.741,2763.4
656.904,2768.0
657.066,2777.4
657.228,2773.9
657.391,2731.8
657.553,2729.1
657.715,2744.9
657.878,2750.6
658.04,2756.6
658.202,2738.3
658.365,2717.2
658.527,2708.7
658.689,2713.9
658.851,2720.1
659.014,2698.0
659.176,2699.5
659.338,2670.4
659.5,2662.5
659.663,2671.1
659.825,2673.2
659.987,2655.7
660.149,2644.4
660.311,2684.1
660.474,2659.1
660.636,2631.0
660.798,2601.5
660.96,2641.7
661.041,2628.8