File: spectra/VLFR_02-HDPE_bio_Raman_86fe66d0.csv
nm,Intensity
528.635,1838.5
528.803,1837.7
528.972,1837.2
529.14,1837.7
529.308,1838.1
529.477,1838.0
529.645,1839.4
529.814,1838.9
529.982,1837.8
530.151,1838.2
530.319,1839.0
530.487,1838.7
530.656,1838.1
530.824,1838.2
530.993,1838.8
531.161,1840.1
531.329,1841.5
531.498,1844.6
531.666,1876.0
531.835,2415.6
532.003,4131.1
532.171,4243.8
532.34,2051.6
532.508,1841.6
532.676,1839.2
532.845,1839.1
533.013,1837.5
533.181,1838.2
533.35,1839.9
533.518,1856.4
533.686,1960.0
533.854,2136.0
534.023,2230.0
534.191,2254.5
534.359,2233.2
534.528,2245.8
534.696,2247.1
534.864,2274.9
535.032,2262.8
535.201,2214.5
535.369,2164.9
535.537,2111.0
535.705,2072.6
535.874,2044.9
536.042,2017.2
536.21,2027.0
536.378,2016.8
536.546,2005.1
536.715,2003.1
536.883,2008.8
537.051,1999.1
537.219,1996.5
537.387,1994.5
537.556,2001.7
537.724,2006.5
537.892,1994.6
538.06,1993.1
538.228,1994.0
538.396,1979.2
538.565,1975.3
538.733,1978.4
538.901,1971.5
539.069,1963.3
539.237,1964.1
539.405,1950.6
539.573,1949.2
539.741,1960.2
539.909,1943.0
540.077,1941.6
540.246,1943.5
540.414,1942.6
540.582,1943.2
540.75,1941.9
540.918,1937.3
541.086,1940.6
541.254,1940.2
541.422,1933.9
541.59,1941.2
541.758,1941.1
541.926,1944.1
542.094,1944.5
542.262,1942.8
542.43,1935.7
542.598,1941.2
542.766,1937.8
542.934,1936.3
543.102,1935.8
543.27,1938.2
543.438,1939.4
543.606,1943.5
543.774,1935.3
543.942,1939.1
544.11,1934.9
544.278,1929.9
544.445,1929.7
544.613,1930.3
544.781,1924.6
544.949,1933.1
545.117,1925.4
545.285,1928.5
545.453,1930.6
545.621,1932.6
545.789,1938.8
545.957,1938.6
546.124,1927.9
546.292,1937.3
546.46,1933.6
546.628,1931.4
546.796,1930.8
546.964,1934.2
547.131,1938.7
547.299,1936.5
547.467,1936.1
547.635,1930.9
547.803,1934.5
547.97,1941.0
548.138,1927.8
548.306,1935.5
548.474,1930.5
548.642,1931.1
548.809,1929.7
548.977,1925.2
549.145,1936.5
549.313,1941.2
549.48,1937.6
549.648,1934.7
549.816,1935.5
549.983,1929.4
550.151,1936.0
550.319,1925.8
550.487,1931.2
550.654,1935.1
550.822,1940.4
550.99,1942.5
551.157,1935.9
551.325,1940.4
551.493,1937.0
551.66,1945.2
551.828,1941.5
551.996,1940.0
552.163,1935.4
552.331,1939.1
552.499,1937.2
552.666,1940.0
552.834,1946.6
553.001,1947.2
553.169,1956.9
553.337,1966.3
553.504,1966.3
553.672,1955.2
553.839,1956.2
554.007,1956.4
554.174,1958.4
554.342,1961.7
554.509,1963.3
554.677,1961.8
554.845,1960.2
555.012,1968.4
555.18,1964.1
555.347,1968.6
555.515,1961.8
555.682,1979.8
555.85,1977.9
556.017,1977.0
556.185,1978.6
556.352,1982.2
556.52,1977.1
556.687,1992.2
556.854,2002.2
557.022,1991.1
557.189,2008.7
557.357,1996.4
557.524,2011.6
557.692,2018.6
557.859,2013.1
558.026,2025.6
558.194,2024.7
558.361,2021.8
558.529,2015.1
558.696,2025.1
558.863,2020.9
559.031,2010.9
559.198,2018.7
559.365,2020.7
559.533,2005.2
559.7,2014.7
559.867,2009.4
560.035,2022.4
560.202,2002.7
560.369,1996.8
560.537,1998.4
560.704,1989.2
560.871,2000.1
561.039,1992.3
561.206,1995.6
561.373,2007.2
561.54,2012.7
561.708,2004.1
561.875,2006.6
562.042,2010.9
562.209,2022.6
562.377,2026.2
562.544,2037.7
562.711,2030.7
562.878,2042.6
563.046,2037.7
563.213,2041.9
563.38,2078.1
563.547,2126.4
563.714,2351.0
563.881,2856.1
564.049,3047.3
564.216,2587.7
564.383,2246.6
564.55,2206.1
564.717,2199.4
564.884,2166.0
565.052,2142.9
565.219,2110.4
565.386,2121.4
565.553,2139.5
565.72,2226.8
565.887,2514.1
566.054,3077.5
566.221,3240.4
566.388,2544.0
566.555,2155.1
566.722,2086.9
566.889,2082.8
567.056,2076.4
567.224,2126.3
567.391,2203.5
567.558,2180.2
567.725,2090.3
567.892,2041.5
568.059,2042.1
568.226,2033.7
568.393,2034.6
568.56,2030.1
568.727,2019.5
568.893,2034.8
569.06,2038.6
569.227,2041.7
569.394,2046.6
569.561,2040.0
569.728,2042.9
569.895,2036.5
570.062,2050.1
570.229,2072.6
570.396,2073.3
570.563,2108.2
570.73,2122.1
570.897,2132.0
571.063,2172.9
571.23,2473.8
571.397,3282.4
571.564,3752.9
571.731,2927.6
571.898,2349.5
572.064,2235.1
572.231,2166.9
572.398,2118.6
572.565,2086.5
572.732,2049.1
572.899,2054.1
573.065,2049.0
573.232,2045.8
573.399,2046.1
573.566,2047.8
573.732,2087.3
573.899,2142.3
574.066,2112.4
574.233,2049.5
574.399,2030.4
574.566,2021.4
574.733,2030.1
574.9,2044.8
575.066,2067.5
575.233,2237.4
575.4,2594.4
575.566,2853.9
575.733,2568.9
575.9,2517.5
576.066,2866.8
576.233,3258.6
576.4,3181.0
576.566,2851.7
576.733,2770.6
576.899,2787.3
577.066,2748.7
577.233,2583.6
577.399,2380.6
577.566,2220.2
577.732,2144.9
577.899,2092.8
578.066,2067.8
578.232,2066.5
578.399,2044.5
578.565,2036.6
578.732,2043.0
578.898,2029.3
579.065,2027.9
579.231,2028.8
579.398,2032.5
579.564,2036.4
579.731,2023.2
579.897,2023.8
580.064,2024.9
580.23,2023.4
580.397,2023.3
580.563,2020.9
580.73,2014.4
580.896,2020.6
581.063,2014.1
581.229,2016.4
581.396,2018.3
581.562,2016.3
581.728,2010.2
581.895,2011.4
582.061,2026.5
582.228,1999.3
582.394,2008.6
582.56,2012.2
582.727,2022.5
582.893,2013.4
583.059,2015.4
583.226,2001.7
583.392,2006.7
583.558,2009.3
583.725,2000.5
583.891,2016.6
584.057,2011.7
584.224,2010.8
584.39,2010.8
584.556,2017.9
584.722,2006.8
584.889,2014.8
585.055,2012.5
585.221,2013.4
585.387,2014.4
585.554,2015.7
585.72,2005.4
585.886,2013.7
586.052,2014.9
586.219,2019.2
586.385,2028.7
586.551,2023.3
586.717,2029.5
586.883,2016.3
587.049,2013.4
587.216,2024.9
587.382,2024.1
587.548,2035.0
587.714,2032.7
587.88,2027.9
588.046,2038.9
588.212,2032.5
588.379,2026.2
588.545,2037.6
588.711,2031.5
588.877,2034.1
589.043,2045.7
589.209,2018.3
589.375,2031.8
589.541,2040.2
589.707,2033.8
589.873,2042.0
590.039,2025.4
590.205,2035.3
590.371,2040.5
590.537,2034.8
590.703,2031.9
590.869,2051.8
591.035,2042.5
591.201,2041.2
591.367,2041.7
591.533,2038.6
591.699,2042.5
591.865,2047.6
592.031,2037.4
592.197,2051.9
592.363,2039.2
592.529,2046.9
592.695,2044.7
592.86,2045.0
593.026,2047.2
593.192,2040.9
593.358,2045.6
593.524,2041.4
593.69,2038.6
593.856,2040.3
594.022,2057.9
594.187,2040.1
594.353,2040.5
594.519,2035.9
594.685,2040.9
594.851,2039.9
595.016,2041.7
595.182,2047.2
595.348,2044.2
595.514,2041.6
595.679,2038.8
595.845,2049.7
596.011,2050.9
596.177,2051.4
596.342,2045.6
596.508,2049.3
596.674,2057.8
596.84,2052.6
597.005,2046.2
597.171,2060.7
597.337,2049.0
597.502,2044.6
597.668,2048.2
597.834,2053.0
597.999,2059.4
598.165,2052.9
598.331,2064.7
598.496,2059.7
598.662,2061.9
598.827,2066.9
598.993,2060.2
599.159,2071.6
599.324,2070.1
599.49,2070.7
599.655,2089.6
599.821,2080.2
599.987,2064.6
600.152,2066.5
600.318,2073.7
600.483,2069.1
600.649,2073.4
600.814,2071.8
600.98,2085.4
601.145,2074.3
601.311,2083.3
601.476,2083.6
601.642,2095.5
601.807,2102.3
601.973,2108.2
602.138,2127.5
602.303,2103.9
602.469,2088.5
602.634,2079.0
602.8,2073.7
602.965,2075.5
603.13,2075.6
603.296,2078.4
603.461,2068.9
603.627,2070.1
603.792,2068.1
603.957,2072.6
604.123,2065.0
604.288,2078.2
604.453,2080.5
604.619,2062.2
604.784,2069.4
604.949,2066.6
605.115,2060.6
605.28,2060.5
605.445,2058.3
605.61,2056.7
605.776,2052.4
605.941,2064.1
606.106,2056.0
606.272,2049.7
606.437,2051.3
606.602,2049.7
606.767,2045.2
606.932,2040.8
607.098,2031.4
607.263,2033.2
607.428,2041.7
607.593,2042.6
607.758,2034.4
607.923,2048.1
608.089,2043.7
608.254,2041.6
608.419,2050.5
608.584,2045.7
608.749,2039.9
608.914,2044.2
609.079,2046.1
609.244,2034.0
609.41,2038.2
609.575,2042.5
609.74,2032.1
609.905,2044.9
610.07,2044.5
610.235,2037.4
610.4,2037.1
610.565,2045.6
610.73,2053.9
610.895,2067.1
611.06,2064.2
611.225,2053.4
611.39,2057.9
611.555,2037.4
611.72,2036.8
611.885,2034.9
612.05,2034.1
612.215,2029.7
612.38,2037.0
612.545,2031.4
612.709,2021.1
612.874,2028.3
613.039,2037.5
613.204,2029.8
613.369,2035.4
613.534,2024.5
613.699,2037.0
613.864,2022.1
614.028,2039.9
614.193,2038.0
614.358,2031.9
614.523,2034.5
614.688,2022.1
614.853,2033.5
615.017,2035.0
615.182,2036.1
615.347,2041.2
615.512,2044.8
615.676,2046.7
615.841,2047.8
616.006,2052.7
616.171,2060.0
616.335,2056.6
616.5,2063.6
616.665,2083.9
616.829,2101.3
616.994,2097.9
617.159,2117.5
617.324,2120.8
617.488,2126.8
617.653,2136.9
617.818,2134.3
617.982,2129.4
618.147,2121.8
618.311,2125.7
618.476,2124.6
618.641,2108.1
618.805,2116.1
618.97,2113.8
619.134,2147.8
619.299,2155.7
619.463,2163.3
619.628,2175.1
619.793,2162.2
619.957,2157.6
620.122,2152.6
620.286,2161.8
620.451,2157.6
620.615,2178.6
620.78,2203.8
620.944,2224.6
621.109,2237.9
621.273,2281.4
621.438,2339.3
621.602,2420.8
621.766,2480.6
621.931,2554.8
622.095,2666.2
622.26,2661.0
622.424,2643.9
622.588,2506.8
622.753,2387.2
622.917,2294.1
623.082,2238.6
623.246,2219.9
623.41,2182.7
623.575,2160.0
623.739,2171.2
623.903,2167.7
624.068,2156.6
624.232,2162.2
624.396,2179.6
624.56,2177.4
624.725,2166.4
624.889,2184.4
625.053,2194.0
625.218,2197.7
625.382,2214.6
625.546,2247.4
625.71,2287.3
625.874,2351.6
626.039,2426.4
626.203,2579.1
626.367,2929.9
626.531,3587.6
626.695,4760.6
626.86,6888.2
627.024,8913.6
627.188,9716.6
627.352,8909.2
627.516,7842.7
627.68,6832.7
627.844,6566.5
628.008,6414.7
628.172,7071.5
628.337,9007.4
628.501,10055.3
628.665,8568.4
628.829,6668.2
628.993,6107.8
629.157,5826.8
629.321,5576.6
629.485,5181.8
629.649,4786.8
629.813,4426.7
629.977,4349.8
630.141,4247.3
630.305,4129.9
630.469,4007.8
630.633,3784.6
630.797,3402.0
630.961,3042.7
631.124,2704.3
631.288,2493.3
631.452,2376.3
631.616,2319.1
631.78,2273.4
631.944,2233.7
632.108,2196.3
632.272,2189.7
632.436,2180.2
632.599,2169.0
632.763,2161.7
632.927,2143.3
633.091,2133.9
633.255,2118.7
633.418,2129.1
633.582,2114.2
633.746,2103.2
633.91,2103.3
634.074,2076.4
634.237,2081.4
634.401,2085.6
634.565,2056.7
634.728,2070.6
634.892,2064.5
635.056,2043.0
635.22,2041.9
635.383,2043.5
635.547,2035.4
635.711,2036.4
635.874,2042.4
636.038,2034.4
636.202,2037.6
636.365,2037.4
636.529,2028.2
636.692,2022.3
636.856,2035.2
637.02,2004.2
637.183,1995.0
637.347,1995.6
637.51,1999.0
637.674,1984.4
637.837,1983.7
638.001,1994.3
638.164,1988.1
638.328,1995.2
638.491,1988.0
638.655,1973.8
638.818,1977.0
638.982,1988.6
639.145,1984.6
639.309,1981.0
639.472,1980.6
639.636,1971.6
639.799,1971.0
639.963,1969.3
640.126,1968.7
640.289,1975.4
640.453,1972.0
640.616,1971.3
640.78,1966.0
640.943,1974.4
641.106,1973.1
641.27,1964.0
641.433,1963.6
641.596,1966.2
641.76,1970.1
641.923,1968.7
642.086,1961.9
642.249,1959.3
642.413,1968.0
642.576,1964.4
642.739,1960.4
642.903,1957.8
643.066,1958.8
643.229,1959.9
643.392,1958.9
643.555,1958.4
643.719,1959.2
643.882,1966.2
644.045,1961.4
644.208,1966.5
644.371,1958.2
644.534,1957.5
644.698,1956.4
644.861,1957.6
645.024,1964.9
645.187,1961.2
645.35,1952.2
645.513,1959.0
645.676,1957.0
645.839,1954.1
646.002,1955.7
646.165,1951.8
646.329,1952.3
646.492,1951.5
646.655,1955.4
646.818,1950.2
646.981,1955.8
647.144,1955.9
647.307,1954.2
647.47,1956.8
647.633,1960.7
647.796,1955.2
647.958,1952.5
648.121,1951.6
648.284,1952.7
648.447,1955.3
648.61,1946.2
648.773,1953.5
648.936,1946.1
649.099,1944.8
649.262,1951.1
649.425,1943.2
649.587,1945.8
649.75,1941.1
649.913,1935.6
650.076,1940.0
650.239,1942.7
650.402,1943.2
650.564,1948.8
650.727,1939.4
650.89,1940.5
651.053,1942.1
651.215,1941.2
651.378,1939.7
651.541,1945.4
651.704,1948.3
651.866,1942.7
652.029,1942.1
652.192,1937.1
652.354,1940.7
652.517,1938.3
652.68,1946.3
652.842,1941.7
653.005,1945.2
653.168,1947.9
653.33,1934.8
653.493,1935.0
653.656,1936.1
653.818,1932.5
653.981,1937.1
654.143,1935.5
654.306,1933.3
654.468,1939.6
654.631,1940.2
654.794,1936.8
654.956,1928.7
655.119,1938.4
655.281,1936.4
655.444,1934.1
655.606,1934.2
655.769,1932.5
655.931,1942.6
656.093,1940.5
656.256,1934.8
656.418,1931.0
656.581,1935.5
656.743,1942.4
656.906,1930.3
657.068,1924.8
657.23,1932.4
657.393,1933.4
657.555,1932.0
657.718,1927.2
657.88,1934.0
658.042,1922.9
658.205,1932.5
658.367,1928.8
658.529,1926.2
658.691,1921.4
658.854,1928.9
659.016,1931.6
659.178,1927.2
659.341,1922.6
659.503,1923.3
659.665,1925.7
659.827,1932.2
659.989,1938.2
660.152,1935.2
660.314,1936.9
660.476,1928.8
660.638,1926.3
660.8,1933.2
660.963,1930.8
661.044,1924.8