File: spectra/VLFR_02-HDPE_bio_Raman_b32f3c52.csv
nm,Intensity
528.626,1863.3
528.795,1864.7
528.963,1864.0
529.132,1863.1
529.3,1863.6
529.469,1865.1
529.637,1863.1
529.806,1865.3
529.974,1864.6
530.143,1864.2
530.311,1862.5
530.48,1862.9
530.648,1865.8
530.816,1863.7
530.985,1863.3
531.153,1865.8
531.322,1865.6
531.49,1870.1
531.658,1892.0
531.827,2244.9
531.995,3711.6
532.164,3650.2
532.332,2145.1
532.5,1870.3
532.669,1865.6
532.837,1869.7
533.006,1868.9
533.174,1874.0
533.342,1885.2
533.511,2025.1
533.679,2901.1
533.847,4772.9
534.016,6075.7
534.184,6442.0
534.352,5988.5
534.521,5520.3
534.689,5195.6
534.857,4932.0
535.025,4604.0
535.194,4378.9
535.362,4234.6
535.53,4190.6
535.699,4093.0
535.867,4152.2
536.035,4645.2
536.203,4452.4
536.372,3709.1
536.54,3148.0
536.708,2950.1
536.876,2847.8
537.044,2813.8
537.213,2779.8
537.381,2724.9
537.549,2711.3
537.717,2699.1
537.885,2661.8
538.054,2633.1
538.222,2636.6
538.39,2653.1
538.558,2627.5
538.726,2619.8
538.894,2637.5
539.063,2622.7
539.231,2635.7
539.399,2681.3
539.567,2732.3
539.735,2812.4
539.903,2971.9
540.071,3060.6
540.239,2965.1
540.408,2773.0
540.576,2710.4
540.744,2620.3
540.912,2587.7
541.08,2546.3
541.248,2562.5
541.416,2522.0
541.584,2521.6
541.752,2529.2
541.92,2536.0
542.088,2528.4
542.256,2539.0
542.424,2521.5
542.592,2562.9
542.76,2545.6
542.928,2561.0
543.096,2569.4
543.264,2566.7
543.432,2609.3
543.6,2618.6
543.768,2627.2
543.936,2597.6
544.104,2599.4
544.272,2556.6
544.44,2525.0
544.608,2526.6
544.776,2535.7
544.944,2542.7
545.112,2548.5
545.28,2524.7
545.448,2531.7
545.616,2512.5
545.784,2545.5
545.951,2540.9
546.119,2556.2
546.287,2568.5
546.455,2562.4
546.623,2573.3
546.791,2585.0
546.959,2643.1
547.127,2635.3
547.294,2602.1
547.462,2593.9
547.63,2564.8
547.798,2580.3
547.966,2583.3
548.134,2587.9
548.301,2593.5
548.469,2614.4
548.637,2616.3
548.805,2657.8
548.972,2666.5
549.14,2623.4
549.308,2583.6
549.476,2587.5
549.644,2575.7
549.811,2580.7
549.979,2616.3
550.147,2630.8
550.315,2769.5
550.482,3313.4
550.65,3814.7
550.818,3295.2
550.985,2825.6
551.153,2710.7
551.321,2679.5
551.488,2646.1
551.656,2657.8
551.824,2639.4
551.991,2639.7
552.159,2662.9
552.327,2635.5
552.494,2667.6
552.662,2861.6
552.83,2969.7
552.997,2805.0
553.165,2660.4
553.333,2612.1
553.5,2628.3
553.668,2641.2
553.835,2613.8
554.003,2645.6
554.171,2642.5
554.338,2642.6
554.506,2641.2
554.673,2653.5
554.841,2665.3
555.008,2699.4
555.176,2746.4
555.343,2785.4
555.511,2970.1
555.679,3084.3
555.846,2944.0
556.014,2900.7
556.181,2899.0
556.349,2942.5
556.516,2970.4
556.684,2970.9
556.851,2979.3
557.018,3100.6
557.186,3378.7
557.353,3992.8
557.521,4825.4
557.688,4798.9
557.856,3858.2
558.023,3217.6
558.191,3094.4
558.358,3007.0
558.525,2972.0
558.693,2901.3
558.86,2851.2
559.028,2834.9
559.195,2813.6
559.362,2771.1
559.53,2729.0
559.697,2747.5
559.864,2744.1
560.032,2729.4
560.199,2728.4
560.366,2745.3
560.534,2752.1
560.701,2753.5
560.868,2785.9
561.036,2829.1
561.203,2873.1
561.37,2906.7
561.538,2980.6
561.705,3101.6
561.872,3361.7
562.039,3392.1
562.207,3308.0
562.374,3123.8
562.541,3009.5
562.708,2947.4
562.876,2930.1
563.043,2937.4
563.21,2895.9
563.377,2921.0
563.545,2891.7
563.712,2896.5
563.879,2948.4
564.046,2982.8
564.213,3022.9
564.38,3030.6
564.548,3200.7
564.715,3458.1
564.882,3898.4
565.049,4390.0
565.216,4178.2
565.383,3831.1
565.551,3767.9
565.718,3804.2
565.885,3811.2
566.052,3590.4
566.219,3427.5
566.386,3258.6
566.553,3088.3
566.72,3050.6
566.887,2984.4
567.054,2991.0
567.221,3025.4
567.388,3070.0
567.555,3264.0
567.722,3364.6
567.889,3416.3
568.057,3325.1
568.224,3209.8
568.391,3122.2
568.558,3036.1
568.725,3018.6
568.892,3000.6
569.058,2970.8
569.225,2980.6
569.392,3054.0
569.559,3049.1
569.726,3095.3
569.893,3154.6
570.06,3250.8
570.227,3325.6
570.394,3528.4
570.561,3817.4
570.728,4308.8
570.895,5012.0
571.062,5843.6
571.229,6466.6
571.395,6558.9
571.562,5958.4
571.729,4982.1
571.896,4356.3
572.063,4061.7
572.23,3839.7
572.397,3576.1
572.563,3386.0
572.73,3295.7
572.897,3203.2
573.064,3258.9
573.231,3194.3
573.397,3184.0
573.564,3175.6
573.731,3208.7
573.898,3231.7
574.064,3263.6
574.231,3224.0
574.398,3179.5
574.565,3196.2
574.731,3212.9
574.898,3297.4
575.065,3355.8
575.232,3543.2
575.398,3858.5
575.565,3935.7
575.732,3721.1
575.898,3452.4
576.065,3421.8
576.232,3493.5
576.398,3495.7
576.565,3563.3
576.732,3586.4
576.898,3654.7
577.065,3640.5
577.232,3524.2
577.398,3408.5
577.565,3316.1
577.731,3276.7
577.898,3267.6
578.065,3243.8
578.231,3238.6
578.398,3259.4
578.564,3294.9
578.731,3227.3
578.897,3267.3
579.064,3260.2
579.23,3265.2
579.397,3261.0
579.563,3311.9
579.73,3330.7
579.896,3312.1
580.063,3357.3
580.229,3383.1
580.396,3398.8
580.562,3433.5
580.729,3503.8
580.895,3576.0
581.062,3645.6
581.228,3749.3
581.395,3924.5
581.561,4512.9
581.728,6005.8
581.894,9470.8
582.06,13765.3
582.227,14685.6
582.393,9490.7
582.56,5431.8
582.726,4155.4
582.892,3803.5
583.059,3649.4
583.225,3586.4
583.391,3546.4
583.558,3488.3
583.724,3508.5
583.89,3463.0
584.057,3515.5
584.223,3499.3
584.389,3597.0
584.556,3621.3
584.722,3623.0
584.888,3630.7
585.054,3724.6
585.221,3982.8
585.387,4416.1
585.553,5424.6
585.719,7150.3
585.886,8978.6
586.052,9430.9
586.218,8072.1
586.384,6528.2
586.55,5410.6
586.717,4518.0
586.883,4098.8
587.049,3858.0
587.215,3836.3
587.381,3726.8
587.548,3673.1
587.714,3630.9
587.88,3624.2
588.046,3602.3
588.212,3603.1
588.378,3564.3
588.544,3573.5
588.71,3590.6
588.876,3543.7
589.043,3572.6
589.209,3587.3
589.375,3572.4
589.541,3557.9
589.707,3519.0
589.873,3606.9
590.039,3559.6
590.205,3564.8
590.371,3593.4
590.537,3600.5
590.703,3609.4
590.869,3582.7
591.035,3610.3
591.201,3608.5
591.367,3617.6
591.533,3566.9
591.699,3626.1
591.865,3635.3
592.031,3614.7
592.197,3668.7
592.363,3611.3
592.529,3681.0
592.694,3652.9
592.86,3638.2
593.026,3667.7
593.192,3687.0
593.358,3681.0
593.524,3714.7
593.69,3699.0
593.856,3688.7
594.021,3700.2
594.187,3686.7
594.353,3699.1
594.519,3694.7
594.685,3724.0
594.851,3735.1
595.016,3745.3
595.182,3775.8
595.348,3786.2
595.514,3766.0
595.68,3810.5
595.845,3795.9
596.011,3789.9
596.177,3835.6
596.342,3802.5
596.508,3802.3
596.674,3814.1
596.84,3803.8
597.005,3890.9
597.171,3856.9
597.337,3860.9
597.502,3864.0
597.668,3840.4
597.834,3852.8
597.999,3876.3
598.165,3872.9
598.331,3900.5
598.496,3843.1
598.662,3898.4
598.828,3937.0
598.993,3904.6
599.159,3911.4
599.324,3928.2
599.49,3913.7
599.656,3928.9
599.821,3966.3
599.987,3925.9
600.152,3981.5
600.318,3958.3
600.483,3935.0
600.649,3954.3
600.814,3982.1
600.98,3970.8
601.145,3971.8
601.311,3944.5
601.476,4050.8
601.642,3978.4
601.807,3985.0
601.973,4005.4
602.138,3962.0
602.304,4014.3
602.469,3990.4
602.635,3984.3
602.8,4058.5
602.965,4002.7
603.131,3973.5
603.296,3996.2
603.462,4011.3
603.627,4043.6
603.792,4017.7
603.958,4026.7
604.123,4069.2
604.288,4022.4
604.454,4055.6
604.619,4011.5
604.784,4067.9
604.95,4052.8
605.115,4067.9
605.28,4067.1
605.446,4083.2
605.611,4059.9
605.776,4066.1
605.941,4078.4
606.107,4080.2
606.272,4088.0
606.437,4045.3
606.602,4049.3
606.767,4073.5
606.933,4083.7
607.098,4142.9
607.263,4148.1
607.428,4085.8
607.593,4102.1
607.759,4113.6
607.924,4065.8
608.089,4136.2
608.254,4156.9
608.419,4083.2
608.584,4144.3
608.749,4162.5
608.915,4116.4
609.08,4153.6
609.245,4157.2
609.41,4173.0
609.575,4168.4
609.74,4214.9
609.905,4199.7
610.07,4220.0
610.235,4157.8
610.4,4248.4
610.565,4258.9
610.73,4208.1
610.895,4257.4
611.06,4310.5
611.225,4259.9
611.39,4273.9
611.555,4270.5
611.72,4287.0
611.885,4299.5
612.05,4359.2
612.215,4251.8
612.38,4287.2
612.545,4337.7
612.71,4302.2
612.875,4359.5
613.04,4395.0
613.204,4396.9
613.369,4353.2
613.534,4371.2
613.699,4411.8
613.864,4408.1
614.029,4432.8
614.194,4494.8
614.358,4492.7
614.523,4499.5
614.688,4444.7
614.853,4597.8
615.018,4486.8
615.182,4550.3
615.347,4561.3
615.512,4500.2
615.677,4634.2
615.841,4584.1
616.006,4622.0
616.171,4658.1
616.336,4697.7
616.5,4588.3
616.665,4589.3
616.83,4638.7
616.994,4667.4
617.159,4760.8
617.324,4736.1
617.489,4811.5
617.653,4744.9
617.818,4855.9
617.982,4867.2
618.147,4814.5
618.312,4869.9
618.476,4906.9
618.641,4853.3
618.805,4882.9
618.97,4873.5
619.135,4860.0
619.299,4873.5
619.464,4931.9
619.628,4857.4
619.793,4944.6
619.957,4922.3
620.122,4852.4
620.286,4895.5
620.451,4989.3
620.615,4990.3
620.78,4956.6
620.944,4952.9
621.109,4914.5
621.273,4968.0
621.438,4969.9
621.602,4964.3
621.767,4966.5
621.931,5010.0
622.095,5045.6
622.26,4984.3
622.424,5045.9
622.589,5053.0
622.753,5063.1
622.917,5188.6
623.082,5014.4
623.246,5090.3
623.41,5081.8
623.575,5054.3
623.739,5085.0
623.903,5131.5
624.068,5128.1
624.232,5149.1
624.396,5208.8
624.561,5139.2
624.725,5167.2
624.889,5245.7
625.053,5160.4
625.218,5140.1
625.382,5200.2
625.546,5121.3
625.71,5163.4
625.875,5239.4
626.039,5210.8
626.203,5206.7
626.367,5234.0
626.531,5273.8
626.695,5382.2
626.86,5611.0
627.024,5590.2
627.188,5599.7
627.352,5685.3
627.516,5563.5
627.68,5544.2
627.844,5445.1
628.008,5537.8
628.172,5576.8
628.337,5715.5
628.501,5807.1
628.665,5830.1
628.829,5736.3
628.993,5664.3
629.157,5662.0
629.321,5796.1
629.485,5722.8
629.649,5764.8
629.813,5642.2
629.977,5555.7
630.141,5512.0
630.305,5442.4
630.469,5465.1
630.633,5536.6
630.797,5624.8
630.96,5634.9
631.124,5632.1
631.288,5746.7
631.452,5856.1
631.616,6077.8
631.78,6144.7
631.944,6164.3
632.108,6227.4
632.272,6004.9
632.435,5789.0
632.599,5785.9
632.763,5715.5
632.927,5677.5
633.091,5573.0
633.254,5613.3
633.418,5609.5
633.582,5518.0
633.746,5497.6
633.91,5345.0
634.073,5414.3
634.237,5321.0
634.401,5170.7
634.564,5174.2
634.728,5246.5
634.892,5125.9
635.056,5158.8
635.219,5123.4
635.383,5237.4
635.547,5265.0
635.71,5289.3
635.874,5488.2
636.038,5810.3
636.201,5936.4
636.365,6277.7
636.528,6393.4
636.692,6197.9
636.856,5776.8
637.019,5469.1
637.183,5292.7
637.346,5130.9
637.51,5127.6
637.673,5009.1
637.837,4947.6
638.0,4918.6
638.164,4898.5
638.327,4935.8
638.491,4955.8
638.654,4918.2
638.818,4811.3
638.981,4877.4
639.145,4786.0
639.308,4879.1
639.472,4764.5
639.635,4799.4
639.799,4723.2
639.962,4772.5
640.125,4753.6
640.289,4687.6
640.452,4647.2
640.616,4695.1
640.779,4695.1
640.942,4640.9
641.106,4657.0
641.269,4656.0
641.432,4683.0
641.596,4717.5
641.759,4567.8
641.922,4666.2
642.085,4591.8
642.249,4667.0
642.412,4687.5
642.575,4694.5
642.738,4543.1
642.902,4483.5
643.065,4557.3
643.228,4592.3
643.391,4470.5
643.555,4540.0
643.718,4409.0
643.881,4475.9
644.044,4454.7
644.207,4446.5
644.37,4446.1
644.534,4419.3
644.697,4310.7
644.86,4296.5
645.023,4421.8
645.186,4390.3
645.349,4342.1
645.512,4315.6
645.675,4347.3
645.838,4365.9
646.001,4330.4
646.164,4330.8
646.327,4204.5
646.49,4246.8
646.653,4311.9
646.816,4195.5
646.979,4242.7
647.142,4205.1
647.305,4257.1
647.468,4208.9
647.631,4165.2
647.794,4147.1
647.957,4174.9
648.12,4130.2
648.283,4126.2
648.446,4114.3
648.609,4118.2
648.772,4089.9
648.935,4025.1
649.098,4101.3
649.26,4026.0
649.423,3961.8
649.586,4006.5
649.749,4008.5
649.912,4035.3
650.075,3996.9
650.237,3965.1
650.4,4042.8
650.563,3975.2
650.726,3948.5
650.888,3913.5
651.051,3939.5
651.214,3916.7
651.377,3883.4
651.539,3844.7
651.702,3927.5
651.865,3927.7
652.027,3825.3
652.19,3914.2
652.353,3839.6
652.515,3801.5
652.678,3786.4
652.841,3746.7
653.003,3783.6
653.166,3759.5
653.329,3711.9
653.491,3758.2
653.654,3730.4
653.816,3685.5
653.979,3672.7
654.142,3701.2
654.304,3721.4
654.467,3662.5
654.629,3607.9
654.792,3651.8
654.954,3677.0
655.117,3643.5
655.279,3678.2
655.442,3602.9
655.604,3580.2
655.767,3595.2
655.929,3630.0
656.091,3601.2
656.254,3515.1
656.416,3527.0
656.579,3512.1
656.741,3571.8
656.904,3537.1
657.066,3530.1
657.228,3516.2
657.391,3525.7
657.553,3429.8
657.715,3453.7
657.878,3484.7
658.04,3454.6
658.202,3417.8
658.365,3417.9
658.527,3451.0
658.689,3400.3
658.851,3458.2
659.014,3402.6
659.176,3331.1
659.338,3352.8
659.5,3311.0
659.663,3385.4
659.825,3327.8
659.987,3308.1
660.149,3315.2
660.311,3300.1
660.474,3344.7
660.636,3338.6
660.798,3273.0
660.96,3340.0
661.041,3335.5