File: spectra/VLFR_08-PLA_nobio_Raman_7ad56e36.csv
cm-1,Intensity
-123.878,1852.85
-117.855,1853.55
-111.836,1854.0
-105.821,1851.8
-99.8104,1852.8
-93.8036,1853.45
-87.8007,1853.45
-81.8019,1851.95
-75.807,1852.35
-69.8161,1853.9
-63.8293,1853.4
-57.8464,1853.35
-51.8675,1853.5
-45.8926,1853.2
-39.9216,1854.5
-33.9547,1854.4
-27.9917,1856.25
-22.0326,1859.3
-16.0776,1888.8
-10.1265,2318.0
-4.17932,3670.55
1.76388,3375.05
7.70313,1966.4
13.6384,1855.75
19.5698,1855.85
25.4972,1854.9
31.4207,1855.9
37.3403,1856.7
43.256,1858.95
49.1677,1899.35
55.0755,2134.35
60.9794,2514.7
66.8794,2694.6
72.7754,2713.95
78.6676,2684.15
84.5559,2637.5
90.4402,2609.1
96.3207,2564.0
102.197,2544.3
108.07,2526.05
113.939,2493.55
119.804,2512.7
125.665,2467.1
131.522,2446.05
137.375,2429.45
143.225,2439.45
149.07,2449.0
154.912,2466.25
160.75,2467.1
166.584,2443.8
172.414,2413.1
178.241,2422.7
184.063,2444.85
189.882,2459.55
195.697,2453.95
201.508,2429.15
207.315,2426.1
213.119,2398.9
218.918,2394.35
224.714,2380.05
230.506,2385.1
236.294,2386.95
242.078,2399.55
247.859,2393.2
253.636,2365.4
259.409,2350.4
265.178,2343.25
270.943,2343.75
276.705,2361.85
282.463,2395.9
288.217,2410.2
293.967,2451.9
299.713,2435.5
305.456,2434.9
311.195,2457.25
316.93,2446.0
322.662,2456.1
328.389,2427.45
334.113,2405.6
339.834,2407.8
345.55,2397.1
351.263,2404.9
356.972,2395.85
362.677,2416.4
368.379,2424.9
374.077,2458.45
379.771,2477.3
385.461,2505.55
391.148,2554.6
396.831,2583.45
402.51,2580.15
408.186,2550.75
413.858,2551.6
419.526,2505.15
425.19,2466.3
430.851,2457.95
436.508,2443.15
442.162,2435.8
447.811,2443.65
453.458,2444.4
459.1,2423.2
464.739,2417.25
470.374,2421.1
476.005,2433.05
481.633,2432.65
487.257,2438.0
492.878,2448.7
498.494,2444.15
504.107,2462.1
509.717,2468.6
515.323,2460.3
520.925,2454.6
526.524,2476.65
532.119,2470.6
537.71,2482.65
543.298,2473.2
548.882,2485.3
554.462,2494.95
560.039,2497.45
565.613,2500.3
571.182,2506.65
576.748,2502.25
582.311,2516.95
587.87,2509.5
593.425,2507.05
598.977,2509.75
604.525,2515.95
610.069,2499.9
615.61,2537.15
621.148,2535.15
626.682,2534.0
632.212,2544.75
637.739,2550.8
643.262,2553.1
648.781,2574.05
654.297,2558.6
659.81,2576.6
665.319,2588.95
670.824,2571.45
676.326,2618.4
681.824,2591.4
687.319,2583.55
692.81,2584.45
698.298,2595.25
703.782,2578.25
709.262,2589.05
714.739,2596.7
720.213,2567.35
725.683,2574.5
731.15,2602.45
736.613,2653.3
742.072,2640.75
747.528,2636.8
752.981,2597.15
758.43,2605.95
763.875,2590.55
769.317,2600.25
774.756,2605.9
780.191,2577.3
785.623,2573.35
791.051,2569.75
796.475,2575.4
801.897,2584.15
807.314,2591.2
812.729,2568.55
818.139,2564.7
823.547,2569.8
828.951,2583.4
834.351,2582.9
839.748,2605.15
845.142,2633.95
850.532,2687.55
855.918,2743.45
861.302,2908.8
866.681,3141.75
872.058,3313.25
877.431,3262.4
882.8,2943.35
888.166,2773.05
893.529,2702.1
898.888,2685.1
904.244,2705.4
909.596,2668.9
914.945,2693.75
920.291,2685.85
925.633,2668.55
930.972,2673.25
936.308,2646.25
941.64,2652.3
946.968,2645.75
952.294,2647.2
957.615,2655.4
962.934,2646.2
968.249,2640.95
973.561,2640.15
978.869,2626.65
984.174,2653.65
989.476,2639.95
994.774,2645.35
1000.07,2664.8
1005.36,2658.6
1010.65,2659.9
1015.93,2684.1
1021.22,2704.55
1026.49,2740.55
1031.77,2777.65
1037.04,2830.1
1042.31,2868.1
1047.57,2897.1
1052.83,2825.2
1058.09,2770.55
1063.35,2746.2
1068.6,2743.35
1073.85,2727.6
1079.09,2745.6
1084.33,2781.15
1089.57,2863.7
1094.81,2869.1
1100.04,2851.3
1105.27,2828.65
1110.49,2867.1
1115.71,2863.05
1120.93,2934.2
1126.15,2998.55
1131.36,2995.9
1136.57,2908.6
1141.77,2857.2
1146.98,2785.45
1152.18,2744.2
1157.37,2749.25
1162.56,2732.35
1167.75,2739.25
1172.94,2765.35
1178.12,2767.2
1183.3,2799.75
1188.48,2800.35
1193.65,2780.95
1198.82,2789.8
1203.99,2798.4
1209.15,2803.35
1214.31,2788.1
1219.46,2802.9
1224.62,2801.0
1229.77,2783.45
1234.92,2770.05
1240.06,2773.15
1245.2,2785.0
1250.34,2777.9
1255.47,2787.35
1260.6,2804.15
1265.73,2794.95
1270.85,2803.55
1275.97,2795.8
1281.09,2815.6
1286.21,2866.0
1291.32,2912.1
1296.43,2961.3
1301.53,2985.05
1306.63,2938.05
1311.73,2921.4
1316.83,2901.1
1321.92,2868.6
1327.01,2890.05
1332.1,2893.25
1337.18,2894.8
1342.26,2905.9
1347.34,2915.95
1352.41,2923.8
1357.48,2902.0
1362.55,2903.45
1367.61,2860.7
1372.67,2877.5
1377.73,2896.95
1382.78,2960.05
1387.84,2955.95
1392.88,2879.85
1397.93,2865.45
1402.97,2830.45
1408.01,2821.35
1413.05,2834.45
1418.08,2837.15
1423.11,2834.95
1428.14,2863.6
1433.16,2879.4
1438.18,2922.2
1443.2,3074.4
1448.21,3213.85
1453.22,3249.85
1458.23,3232.8
1463.23,3122.0
1468.23,3015.05
1473.23,2922.3
1478.23,2878.4
1483.22,2860.75
1488.21,2847.0
1493.2,2835.15
1498.18,2830.5
1503.16,2814.3
1508.14,2824.25
1513.11,2821.95
1518.08,2824.5
1523.05,2826.2
1528.01,2836.15
1532.97,2817.2
1537.93,2808.6
1542.89,2835.1
1547.84,2815.85
1552.79,2824.9
1557.73,2815.2
1562.68,2832.75
1567.62,2850.8
1572.56,2833.3
1577.49,2834.75
1582.42,2836.35
1587.35,2809.7
1592.27,2835.0
1597.19,2844.5
1602.11,2812.8
1607.03,2834.6
1611.94,2816.8
1616.85,2823.9
1621.76,2829.7
1626.66,2824.35
1631.56,2819.85
1636.46,2843.1
1641.36,2827.15
1646.25,2834.25
1651.14,2824.6
1656.02,2827.2
1660.9,2839.9
1665.78,2843.35
1670.66,2825.35
1675.54,2839.85
1680.41,2815.25
1685.27,2825.4
1690.14,2828.6
1695.0,2830.45
1699.86,2828.45
1704.71,2816.7
1709.57,2802.8
1714.42,2836.6
1719.26,2812.85
1724.11,2858.2
1728.95,2813.95
1733.79,2844.25
1738.62,2862.55
1743.46,2963.1
1748.28,3006.1
1753.11,3073.5
1757.93,3105.15
1762.75,3131.45
1767.57,3183.15
1772.39,3147.3
1777.2,3109.35
1782.01,3025.2
1786.81,2956.05
1791.62,2862.9
1796.41,2862.35
1801.21,2841.55
1806.01,2847.6
1810.8,2823.6
1815.59,2828.45
1820.37,2812.7
1825.15,2799.1
1829.93,2782.15
1834.71,2826.3
1839.48,2831.5
1844.25,2807.3
1849.02,2786.55
1853.79,2812.4
1858.55,2782.6
1863.31,2803.2
1868.06,2811.85
1872.82,2810.95
1877.57,2814.9
1882.31,2800.8
1887.06,2795.7
1891.8,2820.25
1896.54,2806.75
1901.28,2829.1
1906.01,2796.1
1910.74,2844.05
1915.47,2821.8
1920.19,2807.15
1924.91,2819.95
1929.63,2798.55
1934.35,2806.75
1939.06,2784.25
1943.77,2793.15
1948.48,2799.75
1953.19,2803.95
1957.89,2790.2
1962.59,2780.45
1967.28,2788.15
1971.98,2788.9
1976.67,2795.0
1981.35,2809.6
1986.04,2796.7
1990.72,2808.9
1995.4,2796.7
2000.08,2800.3
2004.75,2816.95
2009.42,2826.6
2014.09,2808.7
2018.75,2816.0
2023.42,2831.7
2028.08,2813.85
2032.73,2827.8
2037.39,2807.45
2042.04,2821.5
2046.69,2787.3
2051.33,2795.5
2055.97,2804.5
2060.61,2817.5
2065.25,2804.8
2069.88,2810.1
2074.52,2807.1
2079.15,2816.55
2083.77,2828.3
2088.39,2797.25
2093.01,2807.7
2097.63,2820.65
2102.25,2785.45
2106.86,2818.2
2111.47,2813.25
2116.08,2804.45
2120.68,2804.85
2125.28,2817.2
2129.88,2785.9
2134.47,2813.75
2139.07,2833.9
2143.66,2806.4
2148.24,2803.25
2152.83,2797.1
2157.41,2816.15
2161.99,2810.5
2166.57,2815.05
2171.14,2817.1
2175.71,2818.05
2180.28,2821.0
2184.84,2802.8
2189.41,2799.4
2193.97,2828.5
2198.52,2811.5
2203.08,2826.05
2207.63,2823.45
2212.18,2821.05
2216.73,2813.05
2221.27,2821.2
2225.81,2804.4
2230.35,2800.0
2234.89,2816.75
2239.42,2806.45
2243.95,2809.7
2248.48,2821.2
2253.0,2799.25
2257.52,2819.05
2262.04,2819.15
2266.56,2812.05
2271.07,2791.85
2275.58,2802.35
2280.09,2771.9
2284.6,2798.65
2289.1,2801.3
2293.6,2811.25
2298.1,2805.1
2302.6,2819.8
2307.09,2788.9
2311.58,2823.35
2316.07,2803.9
2320.55,2806.85
2325.03,2800.25
2329.51,2832.25
2333.99,2808.9
2338.46,2823.0
2342.93,2813.5
2347.4,2826.3
2351.87,2798.7
2356.33,2819.85
2360.79,2795.8
2365.25,2810.5
2369.71,2776.0
2374.16,2798.7
2378.61,2808.8
2383.06,2796.5
2387.5,2803.15
2391.94,2807.3
2396.38,2792.85
2400.82,2796.2
2405.26,2816.4
2409.69,2817.95
2414.12,2784.1
2418.54,2833.55
2422.97,2812.3
2427.39,2804.55
2431.81,2806.3
2436.22,2795.75
2440.64,2816.65
2445.05,2784.3
2449.46,2793.2
2453.86,2788.8
2458.27,2803.5
2462.67,2809.2
2467.06,2782.25
2471.46,2768.95
2475.85,2776.3
2480.24,2809.55
2484.63,2812.25
2489.02,2790.95
2493.4,2789.45
2497.78,2792.55
2502.16,2799.6
2506.53,2771.05
2510.9,2792.5
2515.27,2817.2
2519.64,2771.15
2524.0,2793.85
2528.37,2786.5
2532.73,2810.2
2537.08,2805.15
2541.44,2794.35
2545.79,2776.05
2550.14,2800.85
2554.48,2786.8
2558.83,2804.0
2563.17,2790.15
2567.51,2777.55
2571.85,2790.45
2576.18,2789.55
2580.51,2774.1
2584.84,2757.5
2589.17,2789.0
2593.49,2799.4
2597.81,2793.8
2602.13,2778.15
2606.45,2787.0
2610.76,2771.85
2615.07,2772.7
2619.38,2748.8
2623.69,2791.7
2627.99,2773.2
2632.29,2795.5
2636.59,2765.7
2640.89,2784.8
2645.18,2784.45
2649.47,2776.0
2653.76,2766.65
2658.05,2795.55
2662.33,2767.75
2666.61,2749.05
2670.89,2783.7
2675.17,2764.4
2679.44,2764.65
2683.71,2774.85
2687.98,2763.6
2692.25,2775.35
2696.51,2747.6
2700.77,2761.45
2705.03,2772.55
2709.29,2757.2
2713.54,2788.5
2717.79,2779.1
2722.04,2787.55
2726.29,2791.25
2730.53,2807.1
2734.77,2839.6
2739.01,2857.7
2743.25,2843.9
2747.48,2816.9
2751.71,2808.95
2755.94,2793.05
2760.17,2805.6
2764.39,2775.65
2768.61,2750.5
2772.83,2772.2
2777.05,2758.85
2781.27,2744.5
2785.48,2764.2
2789.69,2724.55
2793.89,2748.3
2798.1,2728.55
2802.3,2735.25
2806.5,2729.65
2810.7,2728.3
2814.89,2709.6
2819.09,2714.95
2823.28,2736.9
2827.46,2741.75
2831.65,2723.25
2835.83,2723.8
2840.01,2714.65
2844.19,2728.5
2848.37,2733.05
2852.54,2748.05
2856.71,2772.55
2860.88,2769.9
2865.05,2819.5
2869.21,2850.85
2873.37,3038.7
2877.53,3199.45
2881.69,3197.2
2885.84,3165.4
2889.99,3107.6
2894.14,3056.6
2898.29,3068.35
2902.43,3055.9
2906.58,3073.45
2910.72,3101.2
2914.85,3124.35
2918.99,3110.45
2923.12,3127.4
2927.25,3236.7
2931.38,3485.7
2935.5,3943.55
2939.63,4695.2
2943.75,5357.7
2947.87,5399.65
2951.98,4996.0
2956.1,4419.9
2960.21,4004.2
2964.32,3633.0
2968.42,3454.6
2972.53,3371.4
2976.63,3336.6
2980.73,3250.4
2984.83,3300.35
2988.92,3461.85
2993.01,3561.8
2997.1,3721.5
3001.19,3810.95
3005.28,3713.1
3009.36,3580.45
3013.44,3503.35
3017.52,3286.05
3021.6,3133.55
3025.67,3023.0
3029.74,2900.2
3033.81,2804.7
3037.88,2779.5
3041.94,2729.65
3046.01,2710.45
3050.07,2708.2
3054.12,2653.6
3058.18,2654.0
3062.23,2633.15
3066.28,2628.6
3070.33,2656.0
3074.38,2625.05
3078.42,2644.0
3082.46,2628.2
3086.5,2596.15
3090.54,2604.45
3094.57,2616.35
3098.6,2613.85
3102.63,2591.6
3106.66,2601.6
3110.69,2599.25
3114.71,2584.55
3118.73,2595.0
3122.75,2582.5
3126.77,2584.75
3130.78,2580.45
3134.79,2569.15
3138.8,2557.3
3142.81,2564.05
3146.81,2573.25
3150.82,2583.25
3154.82,2562.3
3158.81,2548.9
3162.81,2576.2
3166.8,2565.85
3170.79,2577.3
3174.78,2556.75
3178.77,2533.6
3182.75,2536.9
3186.74,2557.3
3190.72,2542.95
3194.69,2547.45
3198.67,2537.45
3202.64,2535.2
3206.61,2572.1
3210.58,2551.75
3214.55,2555.75
3218.51,2513.05
3222.47,2532.3
3226.43,2541.25
3230.39,2529.8
3234.35,2515.3
3238.3,2505.25
3242.25,2520.85
3246.2,2501.9
3250.15,2512.25
3254.09,2516.2
3258.03,2484.55
3261.97,2495.15
3265.91,2485.7
3269.84,2477.45
3273.78,2473.85
3277.71,2490.85
3281.64,2491.0
3285.56,2476.0
3289.49,2468.15
3293.41,2477.35
3297.33,2498.1
3301.25,2478.45
3305.16,2482.45
3309.07,2461.0
3312.99,2472.55
3316.89,2439.15
3320.8,2467.85
3324.7,2469.25
3328.61,2415.95
3332.51,2449.45
3336.4,2462.2
3340.3,2434.35
3344.19,2453.2
3348.08,2451.65
3351.97,2434.4
3355.86,2435.5
3359.74,2440.45
3363.63,2421.8
3367.51,2425.3
3371.39,2423.15
3375.26,2417.45
3379.13,2423.05
3383.01,2429.7
3386.88,2406.65
3390.74,2424.35
3394.61,2393.55
3398.47,2407.4
3402.33,2412.95
3406.19,2413.65
3410.05,2399.05
3413.9,2406.8
3417.75,2392.95
3421.6,2380.15
3425.45,2397.4
3429.3,2399.95
3433.14,2414.85
3436.98,2383.35
3440.82,2378.1
3444.66,2382.8
3448.49,2375.7
3452.32,2395.3
3456.15,2373.7
3459.98,2396.05
3463.81,2378.25
3467.63,2364.85
3471.46,2363.8
3475.28,2366.8
3479.09,2378.6
3482.91,2358.05
3486.72,2379.9
3490.53,2336.7
3494.34,2339.55
3498.15,2357.7
3501.96,2344.8
3505.76,2346.3
3509.56,2334.05
3513.36,2358.9
3517.15,2349.15
3520.95,2330.2
3524.74,2340.45
3528.53,2329.65
3532.32,2328.8
3536.11,2340.65
3539.89,2343.85
3543.67,2329.55
3547.45,2320.3
3551.23,2315.65
3555.0,2320.15
3558.78,2317.8
3562.55,2327.85
3566.32,2319.45
3570.09,2309.1
3573.85,2314.55
3577.61,2314.35
3581.37,2308.75
3585.13,2292.9
3588.89,2301.6
3592.64,2320.95
3596.4,2298.05
3600.15,2292.1
3603.9,2290.9
3607.64,2288.25
3611.39,2294.1
3615.13,2270.8
3618.87,2272.3
3622.61,2272.75
3626.34,2260.65
3630.08,2285.05
3633.81,2280.85
3637.54,2276.65
3641.27,2258.05
3644.99,2240.45
3648.72,2258.85
3652.44,2275.75
3656.16,2281.8
3659.87,2256.55
3663.59,2271.7
3665.45,2267.3