File: spectra/VLFR_06-PET_bio_Raman_55c0449b.csv
nm,Intensity
528.635,1840.0
528.803,1840.2
528.972,1841.3
529.14,1840.9
529.308,1841.9
529.477,1841.8
529.645,1841.8
529.814,1840.6
529.982,1842.5
530.151,1843.2
530.319,1842.5
530.487,1841.7
530.656,1844.2
530.824,1845.9
530.993,1844.6
531.161,1846.6
531.329,1848.5
531.498,1854.4
531.666,1893.6
531.835,2332.8
532.003,4496.4
532.171,4046.6
532.34,2090.1
532.508,1852.7
532.676,1851.9
532.845,1851.4
533.013,1856.2
533.181,1864.1
533.35,1909.2
533.518,2300.9
533.686,4715.7
533.854,9215.0
534.023,11411.1
534.191,10998.2
534.359,10290.1
534.528,9525.6
534.696,8840.6
534.864,7818.2
535.032,7140.6
535.201,6424.8
535.369,5757.6
535.537,5278.8
535.705,4738.3
535.874,4224.0
536.042,3832.7
536.21,3617.2
536.378,3450.9
536.546,3270.6
536.715,3169.7
536.883,3097.1
537.051,3054.5
537.219,2997.8
537.387,2957.3
537.556,2907.3
537.724,2910.6
537.892,2845.7
538.06,2921.8
538.228,2938.1
538.396,2957.8
538.565,2937.6
538.733,2922.3
538.901,2880.0
539.069,2912.1
539.237,2966.9
539.405,3039.9
539.573,3127.0
539.741,3195.5
539.909,3165.4
540.077,3091.0
540.246,2960.5
540.414,2829.7
540.582,2709.2
540.75,2679.7
540.918,2652.7
541.086,2582.1
541.254,2555.2
541.422,2545.8
541.59,2540.0
541.758,2563.8
541.926,2540.9
542.094,2563.1
542.262,2557.3
542.43,2558.1
542.598,2559.7
542.766,2578.0
542.934,2571.4
543.102,2517.5
543.27,2564.1
543.438,2504.7
543.606,2541.8
543.774,2641.4
543.942,2628.3
544.11,2578.5
544.278,2572.6
544.445,2579.9
544.613,2583.9
544.781,2569.9
544.949,2606.8
545.117,2599.8
545.285,2585.7
545.453,2607.9
545.621,2588.7
545.789,2607.6
545.957,2594.2
546.124,2616.7
546.292,2630.9
546.46,2609.5
546.628,2634.6
546.796,2611.5
546.964,2627.9
547.131,2625.3
547.299,2636.4
547.467,2659.4
547.635,2676.4
547.803,2660.0
547.97,2654.5
548.138,2683.2
548.306,2671.8
548.474,2679.0
548.642,2675.9
548.809,2687.7
548.977,2661.1
549.145,2666.7
549.313,2673.7
549.48,2679.2
549.648,2651.6
549.816,2677.5
549.983,2666.8
550.151,2722.2
550.319,2956.4
550.487,3663.0
550.654,4247.6
550.822,3535.3
550.99,2828.9
551.157,2793.9
551.325,2779.2
551.493,2744.1
551.66,2760.6
551.828,2774.5
551.996,2804.7
552.163,2822.4
552.331,2773.6
552.499,2884.7
552.666,3244.8
552.834,3432.5
553.001,3221.2
553.169,2929.4
553.337,2838.9
553.504,2838.0
553.672,2880.2
553.839,2846.6
554.007,2850.3
554.174,2853.5
554.342,2862.4
554.509,2876.4
554.677,2876.2
554.845,2896.4
555.012,2926.8
555.18,3037.2
555.347,3256.7
555.515,3547.0
555.682,3667.7
555.85,3574.7
556.017,3633.9
556.185,3629.5
556.352,3709.0
556.52,3781.1
556.687,3778.1
556.854,3801.5
557.022,4008.6
557.189,4506.6
557.357,5199.2
557.524,5756.8
557.692,5245.4
557.859,4474.0
558.026,4038.2
558.194,4020.7
558.361,4044.5
558.529,3953.0
558.696,3797.2
558.863,3597.6
559.031,3450.3
559.198,3325.8
559.365,3246.6
559.533,3112.7
559.7,3123.4
559.867,3145.4
560.035,3163.3
560.202,3134.6
560.369,3088.6
560.537,3121.3
560.704,3122.6
560.871,3187.9
561.039,3201.0
561.206,3203.3
561.373,3257.6
561.54,3275.4
561.708,3321.5
561.875,3325.3
562.042,3481.2
562.209,3483.1
562.377,3457.3
562.544,3477.1
562.711,3499.6
562.878,3591.0
563.046,3609.5
563.213,3646.4
563.38,3547.6
563.547,3500.6
563.714,3404.2
563.881,3378.4
564.049,3388.9
564.216,3417.5
564.383,3464.5
564.55,3604.2
564.717,3702.6
564.884,4013.3
565.052,4247.6
565.219,4482.1
565.386,4686.7
565.553,4821.3
565.72,4991.0
565.887,5045.9
566.054,4727.8
566.221,4316.3
566.388,3967.4
566.555,3695.6
566.722,3630.5
566.889,3534.7
567.056,3541.8
567.224,3612.6
567.391,3876.5
567.558,4238.6
567.725,4426.8
567.892,4118.9
568.059,3826.9
568.226,3610.3
568.393,3585.7
568.56,3605.6
568.727,3555.2
568.893,3559.7
569.06,3573.6
569.227,3599.3
569.394,3619.7
569.561,3811.5
569.728,3857.6
569.895,3935.9
570.062,4122.8
570.229,4310.5
570.396,4589.2
570.563,5085.3
570.73,5600.8
570.897,6068.3
571.063,6756.0
571.23,7070.9
571.397,7229.2
571.564,6628.2
571.731,5881.9
571.898,5420.8
572.064,5100.6
572.231,4663.8
572.398,4281.7
572.565,4076.4
572.732,3941.2
572.899,3893.3
573.065,3790.0
573.232,3827.8
573.399,3832.5
573.566,3854.3
573.732,3913.5
573.899,4067.7
574.066,4095.1
574.233,4025.4
574.399,3992.1
574.566,3972.3
574.733,3948.8
574.9,3996.2
575.066,4191.4
575.233,4380.9
575.4,4444.0
575.566,4214.7
575.733,4053.0
575.9,4002.0
576.066,4134.2
576.233,4346.3
576.4,4415.5
576.566,4467.6
576.733,4509.0
576.899,4362.4
577.066,4205.3
577.233,4101.2
577.399,3989.1
577.566,3978.6
577.732,3913.0
577.899,3895.7
578.066,3950.9
578.232,3964.5
578.399,3945.9
578.565,3939.6
578.732,3924.7
578.898,3876.4
579.065,3977.7
579.231,3968.8
579.398,3999.9
579.564,4009.2
579.731,4044.4
579.897,3977.5
580.064,4025.1
580.23,4058.6
580.397,4114.1
580.563,4187.3
580.73,4265.7
580.896,4391.6
581.063,4360.3
581.229,4477.0
581.396,4730.7
581.562,5388.7
581.728,7131.8
581.895,10809.5
582.061,15830.8
582.228,15414.7
582.394,9523.2
582.56,5620.4
582.727,4700.9
582.893,4450.3
583.059,4368.7
583.226,4309.4
583.392,4237.1
583.558,4242.1
583.725,4264.0
583.891,4293.4
584.057,4300.6
584.224,4333.7
584.39,4365.4
584.556,4491.4
584.722,4430.5
584.889,4533.1
585.055,4753.3
585.221,5394.9
585.387,6238.7
585.554,8346.7
585.72,10394.9
585.886,11233.7
586.052,11168.4
586.219,10172.9
586.385,8594.5
586.551,7024.3
586.717,5717.6
586.883,4959.6
587.049,4739.6
587.216,4560.4
587.382,4572.9
587.548,4392.8
587.714,4353.4
587.88,4384.2
588.046,4372.6
588.212,4398.4
588.379,4337.9
588.545,4389.9
588.711,4350.2
588.877,4368.2
589.043,4344.9
589.209,4346.7
589.375,4296.2
589.541,4264.2
589.707,4329.6
589.873,4338.2
590.039,4230.0
590.205,4260.2
590.371,4274.8
590.537,4305.0
590.703,4351.1
590.869,4326.5
591.035,4319.5
591.201,4357.6
591.367,4274.5
591.533,4388.4
591.699,4309.8
591.865,4329.0
592.031,4340.4
592.197,4404.7
592.363,4301.7
592.529,4348.0
592.695,4354.3
592.86,4351.4
593.026,4388.4
593.192,4327.3
593.358,4374.2
593.524,4406.2
593.69,4347.3
593.856,4349.7
594.022,4382.5
594.187,4314.3
594.353,4404.3
594.519,4459.4
594.685,4419.6
594.851,4344.9
595.016,4393.8
595.182,4361.6
595.348,4432.0
595.514,4515.5
595.679,4442.4
595.845,4444.1
596.011,4424.9
596.177,4447.3
596.342,4468.5
596.508,4384.4
596.674,4521.8
596.84,4506.4
597.005,4414.7
597.171,4381.9
597.337,4488.1
597.502,4501.8
597.668,4431.0
597.834,4401.3
597.999,4428.3
598.165,4459.8
598.331,4477.5
598.496,4453.2
598.662,4399.5
598.827,4456.8
598.993,4516.6
599.159,4496.7
599.324,4436.2
599.49,4408.5
599.655,4562.2
599.821,4474.6
599.987,4514.9
600.152,4524.6
600.318,4464.5
600.483,4488.4
600.649,4467.2
600.814,4485.7
600.98,4526.3
601.145,4508.7
601.311,4481.8
601.476,4553.5
601.642,4486.1
601.807,4513.6
601.973,4484.6
602.138,4527.9
602.303,4535.8
602.469,4571.1
602.634,4545.2
602.8,4517.1
602.965,4529.5
603.13,4568.0
603.296,4518.9
603.461,4592.7
603.627,4517.9
603.792,4506.7
603.957,4581.9
604.123,4582.8
604.288,4526.0
604.453,4615.8
604.619,4590.4
604.784,4575.7
604.949,4541.8
605.115,4536.3
605.28,4488.0
605.445,4611.1
605.61,4521.4
605.776,4471.0
605.941,4568.2
606.106,4601.7
606.272,4547.5
606.437,4563.0
606.602,4514.4
606.767,4601.6
606.932,4569.2
607.098,4551.2
607.263,4585.9
607.428,4589.9
607.593,4560.1
607.758,4559.4
607.923,4559.4
608.089,4547.3
608.254,4567.2
608.419,4571.8
608.584,4538.1
608.749,4564.6
608.914,4622.6
609.079,4548.2
609.244,4551.0
609.41,4552.0
609.575,4568.6
609.74,4542.4
609.905,4590.6
610.07,4571.9
610.235,4654.1
610.4,4605.1
610.565,4594.8
610.73,4580.5
610.895,4652.9
611.06,4585.3
611.225,4521.6
611.39,4617.9
611.555,4653.5
611.72,4638.1
611.885,4568.4
612.05,4577.1
612.215,4638.3
612.38,4592.5
612.545,4613.7
612.709,4579.8
612.874,4656.0
613.039,4633.0
613.204,4638.7
613.369,4531.2
613.534,4644.4
613.699,4639.3
613.864,4604.3
614.028,4665.4
614.193,4630.3
614.358,4640.9
614.523,4593.0
614.688,4664.2
614.853,4678.3
615.017,4678.6
615.182,4654.9
615.347,4694.0
615.512,4645.0
615.676,4657.2
615.841,4729.1
616.006,4777.1
616.171,4671.5
616.335,4722.7
616.5,4685.5
616.665,4695.0
616.829,4711.7
616.994,4690.2
617.159,4731.5
617.324,4737.2
617.488,4722.9
617.653,4818.0
617.818,4834.9
617.982,4917.5
618.147,4825.4
618.311,4768.6
618.476,4896.1
618.641,4794.4
618.805,4770.9
618.97,4793.5
619.134,4833.3
619.299,4730.3
619.463,4836.8
619.628,4729.5
619.793,4779.8
619.957,4678.1
620.122,4771.2
620.286,4788.1
620.451,4759.2
620.615,4763.4
620.78,4822.5
620.944,4764.8
621.109,4810.0
621.273,4691.5
621.438,4755.3
621.602,4879.1
621.766,4767.3
621.931,4766.8
622.095,4777.8
622.26,4748.4
622.424,4862.1
622.588,4928.8
622.753,4858.3
622.917,4854.3
623.082,4864.7
623.246,4810.8
623.41,4911.1
623.575,4835.4
623.739,4839.1
623.903,4862.9
624.068,4920.7
624.232,4990.7
624.396,4992.5
624.56,4963.1
624.725,5072.0
624.889,4975.8
625.053,4974.1
625.218,4950.6
625.382,4945.8
625.546,4993.4
625.71,5069.9
625.874,4987.0
626.039,4960.4
626.203,4986.3
626.367,4915.6
626.531,4958.0
626.695,4901.9
626.86,4927.8
627.024,4999.3
627.188,5034.2
627.352,5042.7
627.516,5032.8
627.68,4975.6
627.844,5165.7
628.008,5122.7
628.172,5183.0
628.337,5232.2
628.501,5232.4
628.665,5414.1
628.829,5527.2
628.993,5504.9
629.157,5522.2
629.321,5506.4
629.485,5436.4
629.649,5578.7
629.813,5434.5
629.977,5402.9
630.141,5377.0
630.305,5417.8
630.469,5465.2
630.633,5615.7
630.797,5858.9
630.961,6025.3
631.124,6378.6
631.288,6787.6
631.452,7150.9
631.616,7618.7
631.78,7668.6
631.944,7398.0
632.108,7094.2
632.272,6928.6
632.436,6643.1
632.599,6373.4
632.763,6304.5
632.927,6264.6
633.091,6339.5
633.255,6266.3
633.418,6145.6
633.582,6109.2
633.746,5935.3
633.91,5873.9
634.074,5766.5
634.237,5712.4
634.401,5799.4
634.565,5587.1
634.728,5557.9
634.892,5621.5
635.056,5692.9
635.22,5713.4
635.383,5788.2
635.547,6015.5
635.711,6233.2
635.874,6442.3
636.038,6691.6
636.202,7221.2
636.365,7768.8
636.529,8206.0
636.692,7936.1
636.856,7146.4
637.02,6736.7
637.183,6323.4
637.347,6029.3
637.51,5953.9
637.674,5796.6
637.837,5782.7
638.001,5749.9
638.164,5667.0
638.328,5783.6
638.491,5602.5
638.655,5588.7
638.818,5602.5
638.982,5667.2
639.145,5590.9
639.309,5601.9
639.472,5663.3
639.636,5553.6
639.799,5648.4
639.963,5703.9
640.126,5658.6
640.289,5577.2
640.453,5478.8
640.616,5657.9
640.78,5544.5
640.943,5587.7
641.106,5635.8
641.27,5627.7
641.433,5582.4
641.596,5665.5
641.76,5624.5
641.923,5663.4
642.086,5820.0
642.249,5686.7
642.413,5840.4
642.576,5824.9
642.739,5654.9
642.903,5484.4
643.066,5743.4
643.229,5583.3
643.392,5695.9
643.555,5502.4
643.719,5661.4
643.882,5712.2
644.045,5672.5
644.208,5724.6
644.371,5636.9
644.534,5585.2
644.698,5579.3
644.861,5604.5
645.024,5632.2
645.187,5600.8
645.35,5748.3
645.513,5650.2
645.676,5669.3
645.839,5754.9
646.002,5733.1
646.165,5750.8
646.329,5596.6
646.492,5762.4
646.655,5647.5
646.818,5769.3
646.981,5757.8
647.144,5659.7
647.307,5650.6
647.47,5781.3
647.633,5695.0
647.796,5735.1
647.958,5697.4
648.121,5772.9
648.284,5541.9
648.447,5532.5
648.61,5577.1
648.773,5642.7
648.936,5585.3
649.099,5779.0
649.262,5564.9
649.425,5410.5
649.587,5546.0
649.75,5666.4
649.913,5620.2
650.076,5559.0
650.239,5527.5
650.402,5500.8
650.564,5736.7
650.727,5709.1
650.89,5507.5
651.053,5591.9
651.215,5548.3
651.378,5653.6
651.541,5398.9
651.704,5608.0
651.866,5583.5
652.029,5457.7
652.192,5519.3
652.354,5531.8
652.517,5469.6
652.68,5560.6
652.842,5418.7
653.005,5447.2
653.168,5325.6
653.33,5471.0
653.493,5278.6
653.656,5466.8
653.818,5383.6
653.981,5303.7
654.143,5329.0
654.306,5420.4
654.468,5464.8
654.631,5345.3
654.794,5436.7
654.956,5518.2
655.119,5399.8
655.281,5417.7
655.444,5236.2
655.606,5368.3
655.769,5334.5
655.931,5316.1
656.093,5396.2
656.256,5372.2
656.418,5194.2
656.581,5266.1
656.743,5147.5
656.906,5218.6
657.068,5305.4
657.23,5341.4
657.393,5195.7
657.555,5212.2
657.718,5215.2
657.88,5124.5
658.042,5101.3
658.205,5137.0
658.367,5084.3
658.529,5087.0
658.691,5008.0
658.854,5159.0
659.016,5033.4
659.178,4969.4
659.341,4985.7
659.503,4929.4
659.665,4937.9
659.827,4922.0
659.989,4913.8
660.152,4924.6
660.314,4980.8
660.476,4964.1
660.638,5031.6
660.8,4923.7
660.963,4935.9
661.044,4860.1