File: spectra/VLFR_07-PET_bio_Raman_1a8f7258.csv
nm,Intensity
791.377,13581.5
791.652,13022.8
791.927,12695.2
792.202,12380.1
792.477,12027.0
792.752,11861.4
793.027,11431.7
793.301,11250.2
793.576,11101.2
793.851,11056.0
794.126,10986.3
794.401,10719.0
794.676,10696.7
794.951,10372.2
795.225,10502.2
795.5,10484.3
795.775,10360.2
796.05,10437.9
796.325,10340.4
796.599,10345.1
796.874,10363.0
797.149,10292.7
797.424,10302.8
797.698,10298.1
797.973,10270.5
798.248,10257.9
798.523,10265.7
798.797,10254.9
799.072,10207.6
799.347,10470.5
799.622,10360.0
799.896,10165.7
800.171,10146.0
800.446,10270.0
800.72,10316.2
800.995,10108.2
801.27,10225.5
801.544,10228.2
801.819,10357.3
802.094,10289.5
802.368,10292.4
802.643,10155.1
802.918,10064.3
803.192,10085.5
803.467,10108.7
803.742,9958.44
804.016,9974.84
804.291,9967.42
804.565,9929.4
804.84,9834.84
805.114,9808.28
805.389,9852.8
805.664,9755.04
805.938,9861.06
806.213,9844.14
806.487,9718.02
806.762,9806.02
807.036,9721.82
807.311,9656.52
807.585,9639.2
807.86,9681.58
808.134,9624.02
808.409,9674.7
808.683,9581.08
808.958,9561.56
809.232,9607.26
809.507,9600.14
809.781,9487.14
810.056,9469.68
810.33,9505.58
810.605,9505.08
810.879,9437.04
811.153,9407.7
811.428,9413.52
811.702,9348.94
811.977,9286.26
812.251,9284.76
812.525,9396.56
812.8,9441.4
813.074,9394.04
813.349,9331.36
813.623,9177.04
813.897,9121.9
814.172,9165.46
814.446,9184.88
814.72,9168.54
814.995,9131.0
815.269,9053.9
815.543,9018.94
815.818,9050.9
816.092,9006.02
816.366,9054.58
816.64,8902.92
816.915,8985.12
817.189,9011.72
817.463,8892.82
817.737,8925.58
818.012,8893.04
818.286,8867.36
818.56,8910.32
818.834,8842.98
819.109,8810.64
819.383,8801.6
819.657,8681.74
819.931,8798.54
820.205,8699.8
820.48,8758.02
820.754,8608.56
821.028,8631.16
821.302,8592.66
821.576,8626.84
821.85,8598.58
822.125,8598.36
822.399,8585.16
822.673,8511.0
822.947,8459.96
823.221,8443.52
823.495,8539.5
823.769,8425.44
824.043,8450.26
824.317,8394.04
824.591,8468.72
824.865,8421.06
825.14,8441.76
825.414,8453.9
825.688,8650.54
825.962,8728.9
826.236,8708.66
826.51,8474.16
826.784,8394.52
827.058,8306.46
827.332,8200.16
827.606,8243.6
827.88,8259.1
828.154,8226.56
828.428,8180.12
828.702,8153.46
828.976,8148.86
829.249,8102.94
829.523,8159.22
829.797,8149.04
830.071,8110.52
830.345,8099.54
830.619,8184.06
830.893,8278.3
831.167,8286.1
831.441,8198.96
831.715,8057.34
831.988,7960.88
832.262,8000.0
832.536,8001.86
832.81,7940.28
833.084,7956.54
833.358,7967.92
833.632,7919.7
833.905,7858.9
834.179,7900.42
834.453,7860.88
834.727,7846.34
835.001,7824.58
835.274,7810.78
835.548,7814.82
835.822,7796.92
836.096,7702.36
836.369,7716.2
836.643,7877.08
836.917,7965.16
837.191,7999.24
837.464,7920.4
837.738,7851.92
838.012,7902.68
838.285,7921.94
838.559,7907.34
838.833,7925.74
839.106,7954.92
839.38,7906.12
839.654,7852.76
839.927,7830.84
840.201,7862.7
840.475,7913.78
840.748,7941.22
841.022,8151.3
841.295,8371.36
841.569,8450.98
841.843,8247.12
842.116,8044.0
842.39,7929.86
842.663,7807.04
842.937,7812.5
843.211,7791.64
843.484,7681.76
843.758,7764.16
844.031,7792.64
844.305,7561.94
844.578,7510.02
844.852,7496.26
845.125,7504.18
845.399,7479.22
845.672,7382.64
845.946,7316.98
846.219,7287.12
846.493,7274.64
846.766,7278.04
847.039,7234.3
847.313,7273.24
847.586,7318.54
847.86,7288.5
848.133,7158.14
848.407,7177.14
848.68,7200.4
848.953,7215.78
849.227,7205.42
849.5,7160.84
849.773,7196.46
850.047,7115.14
850.32,7080.12
850.593,7089.32
850.867,7085.68
851.14,7095.76
851.413,7098.04
851.687,7155.94
851.96,7146.38
852.233,7104.0
852.507,7161.88
852.78,7133.56
853.053,7076.22
853.326,7087.38
853.6,7076.34
853.873,7101.86
854.146,7080.5
854.419,6977.88
854.693,7003.82
854.966,7019.14
855.239,6928.46
855.512,6962.98
855.785,6922.6
856.059,6955.96
856.332,6939.48
856.605,6891.56
856.878,6833.0
857.151,6857.38
857.424,6926.6
857.698,6874.6
857.971,6827.86
858.244,6916.64
858.517,7011.12
858.79,7112.68
859.063,7117.92
859.336,7081.8
859.609,7037.6
859.882,7116.88
860.155,7159.46
860.428,7194.86
860.701,7048.08
860.974,6967.8
861.247,6902.22
861.52,6923.06
861.793,6823.7
862.066,6810.08
862.339,6780.84
862.612,6712.7
862.885,6742.72
863.158,6699.64
863.431,6680.14
863.704,6643.54
863.977,6681.5
864.25,6707.42
864.523,6715.06
864.796,6715.76
865.069,6689.02
865.342,6679.34
865.615,6655.32
865.888,6625.98
866.16,6597.14
866.433,6543.1
866.706,6539.0
866.979,6518.38
867.252,6520.66
867.525,6467.58
867.798,6432.12
868.07,6525.98
868.343,6528.32
868.616,6465.14
868.889,6483.56
869.162,6500.22
869.434,6489.36
869.707,6458.78
869.98,6495.98
870.253,6519.56
870.525,6497.6
870.798,6581.68
871.071,6665.54
871.344,6629.1
871.616,6696.46
871.889,6857.3
872.162,6941.0
872.434,6900.86
872.707,6944.32
872.98,6957.16
873.252,6932.88
873.525,6965.62
873.798,6905.6
874.07,6875.46
874.343,6768.28
874.615,6709.42
874.888,6664.64
875.161,6582.12
875.433,6517.1
875.706,6494.5
875.978,6387.74
876.251,6317.06
876.524,6297.76
876.796,6311.74
877.069,6349.06
877.341,6307.46
877.614,6257.7
877.886,6280.46
878.159,6275.44
878.431,6226.1
878.704,6209.54
878.976,6206.76
879.249,6206.86
879.521,6223.06
879.794,6223.66
880.066,6196.06
880.338,6190.5
880.611,6129.58
880.883,6141.48
881.156,6117.9
881.428,6054.96
881.7,6088.84
881.973,6126.44
882.245,6166.04
882.518,6204.54
882.79,6122.86
883.062,6158.2
883.335,6171.1
883.607,6133.66
883.879,6127.7
884.152,6123.84
884.424,6105.6
884.696,6059.5
884.968,6107.22
885.241,6128.48
885.513,6093.66
885.785,6125.68
886.058,6083.0
886.33,6045.06
886.602,6019.74
886.874,6047.8
887.146,6003.88
887.419,6020.86
887.691,5937.04
887.963,5892.36
888.235,5904.3
888.507,5902.34
888.78,5916.28
889.052,5889.44
889.324,5881.44
889.596,5910.9
889.868,5865.44
890.14,5873.56
890.412,5836.16
890.684,5799.42
890.957,5857.36
891.229,5907.46
891.501,5839.46
891.773,5825.3
892.045,5848.94
892.317,5867.42
892.589,5829.18
892.861,5806.46
893.133,5821.28
893.405,5783.9
893.677,5774.52
893.949,5765.18
894.221,5727.52
894.493,5761.68
894.765,5767.46
895.037,5722.98
895.309,5705.76
895.581,5693.32
895.853,5745.78
896.125,5762.54
896.397,5731.68
896.668,5744.42
896.94,5738.46
897.212,5797.76
897.484,5874.98
897.756,6038.6
898.028,6342.14
898.3,6687.94
898.571,6833.1
898.843,6732.96
899.115,6606.9
899.387,6465.62
899.659,6278.46
899.931,6085.86
900.202,5891.32
900.474,5732.56
900.746,5592.46
901.018,5545.7
901.289,5547.14
901.561,5542.5
901.833,5543.96
902.105,5545.92
902.376,5501.82
902.648,5489.94
902.92,5466.46
903.191,5425.78
903.463,5455.54
903.735,5479.22
904.006,5456.06
904.278,5448.62
904.55,5436.4
904.821,5441.04
905.093,5484.68
905.365,5475.66
905.636,5503.88
905.908,5554.76
906.179,5589.86
906.451,5679.14
906.722,5811.98
906.994,5907.86
907.266,6048.5
907.537,6134.08
907.809,6147.86
908.08,6203.56
908.352,6222.12
908.623,6093.98
908.895,5945.2
909.166,5845.74
909.438,5760.24
909.709,5647.36
909.981,5540.78
910.252,5448.12
910.523,5367.44
910.795,5335.66
911.066,5305.5
911.338,5280.82
911.609,5251.3
911.881,5238.66
912.152,5182.48
912.423,5168.1
912.695,5177.38
912.966,5137.34
913.237,5148.92
913.509,5168.52
913.78,5176.42
914.051,5180.46
914.323,5171.74
914.594,5136.8
914.865,5120.12
915.136,5122.42
915.408,5118.46
915.679,5081.14
915.95,5061.02
916.221,5062.08
916.493,5046.62
916.764,5036.58
917.035,5074.12
917.306,5064.34
917.578,5032.96
917.849,5029.36
918.12,5035.58
918.391,5020.08
918.662,5023.98
918.933,5035.42
919.204,5022.2
919.476,5013.46
919.747,4966.96
920.018,4943.78
920.289,4944.36
920.56,4947.3
920.831,4941.42
921.102,4908.4
921.373,4886.88
921.644,4918.88
921.915,4920.48
922.186,4924.28
922.457,4927.96
922.728,4905.42
922.999,4885.96
923.27,4866.82
923.541,4849.28
923.812,4848.38
924.083,4865.28
924.354,4871.72
924.625,4860.46
924.896,4813.0
925.167,4804.14
925.438,4814.06
925.709,4831.02
925.98,4816.22
926.251,4805.38
926.522,4769.96
926.792,4764.74
927.063,4786.36
927.334,4759.7
927.605,4762.06
927.876,4759.24
928.147,4738.34
928.417,4737.08
928.688,4713.38
928.959,4725.38
929.23,4715.78
929.501,4701.88
929.771,4683.92
930.042,4687.76
930.313,4676.4
930.584,4678.32
930.854,4671.16
931.125,4646.02
931.396,4663.4
931.666,4660.94
931.937,4664.14
932.208,4662.02
932.478,4634.92
932.749,4624.82
933.02,4625.38
933.29,4627.1
933.561,4601.32
933.832,4594.08
934.102,4596.84
934.373,4594.48
934.643,4584.46
934.914,4575.6
935.184,4571.9
935.455,4554.86
935.726,4541.86
935.996,4545.6
936.267,4558.52
936.537,4526.4
936.808,4517.24
937.078,4507.88
937.349,4510.84
937.619,4513.22
937.89,4525.44
938.16,4520.52
938.43,4499.64
938.701,4497.86
938.971,4488.74
939.242,4477.44
939.512,4461.96
939.782,4467.28
940.053,4476.52
940.323,4472.76
940.594,4464.56
940.864,4458.06
941.134,4448.46
941.405,4451.0
941.675,4453.3
941.945,4442.76
942.216,4439.22
942.486,4416.86
942.756,4408.34
943.026,4404.08
943.297,4408.04
943.567,4402.98
943.837,4393.04
944.107,4380.96
944.378,4377.64
944.648,4388.12
944.918,4379.06
945.188,4362.0
945.458,4357.5
945.729,4354.12
945.999,4355.28
946.269,4371.4
946.539,4363.6
946.809,4352.02
947.079,4337.28
947.349,4327.58
947.62,4323.24
947.89,4315.04
948.16,4320.36
948.43,4330.98
948.7,4333.92
948.97,4322.28
949.24,4299.62
949.51,4295.8
949.78,4301.54
950.05,4296.42
950.32,4287.32
950.59,4294.98
950.86,4293.48
951.13,4288.9
951.4,4286.76
951.67,4279.5
951.94,4268.68
952.21,4260.98
952.48,4253.28
952.75,4240.06
953.02,4238.98
953.289,4243.84
953.559,4240.08
953.829,4227.98
954.099,4228.52
954.369,4231.28
954.639,4228.24
954.909,4225.4
955.178,4212.98
955.448,4202.72
955.718,4215.06
955.988,4218.36
956.257,4207.26
956.527,4204.52
956.797,4208.32
957.067,4205.88
957.336,4189.48
957.606,4187.5
957.876,4188.94
958.146,4178.4
958.415,4179.4
958.685,4189.4
958.955,4178.8
959.224,4176.54
959.494,4163.88
959.764,4157.14
960.033,4160.56
960.303,4166.12
960.572,4162.12
960.842,4157.4
961.112,4151.04
961.381,4148.82
961.651,4141.36
961.92,4141.9
962.19,4147.08
962.459,4135.72
962.729,4125.9
962.998,4122.48
963.268,4130.06
963.537,4129.92
963.807,4127.96
964.076,4119.32
964.346,4114.38
964.615,4113.42
964.885,4112.68
965.154,4104.7
965.424,4103.08
965.693,4102.88
965.962,4098.16
966.232,4094.52
966.501,4088.1
966.771,4076.46
967.04,4084.3
967.309,4088.3
967.579,4076.82
967.848,4086.08
968.117,4089.84
968.387,4073.38
968.656,4064.14
968.925,4072.7
969.194,4076.46
969.464,4076.22
969.733,4061.92
970.002,4065.08
970.271,4061.2
970.541,4057.58
970.81,4054.06
971.079,4050.72
971.348,4047.9
971.617,4047.22
971.887,4040.04
972.156,4050.94
972.425,4050.78
972.694,4046.28
972.963,4036.0
973.232,4039.26
973.501,4029.18
973.77,4024.52
974.04,4027.84
974.309,4034.76
974.578,4030.82
974.847,4032.14
975.116,4023.82
975.385,4017.34
975.654,4015.1
975.923,4013.8
976.192,4017.5
976.461,4012.44
976.73,4014.04
976.999,4019.48
977.268,4012.08
977.537,4006.48
977.806,4002.78
978.074,3997.98
978.343,3998.58
978.612,3998.66
978.881,3994.82
979.15,3991.74
979.419,3985.84
979.688,3989.2
979.957,3988.94
980.225,3988.24
980.494,3987.98
980.763,3986.72
981.032,3985.22
981.301,3978.44
981.569,3980.32
981.838,3981.36
982.107,3984.48
982.376,3977.34
982.644,3972.7
982.913,3971.1
983.182,3971.34
983.451,3961.26
983.719,3961.5
983.988,3967.32
984.257,3965.44
984.525,3967.1
984.794,3961.88
985.063,3958.26
985.331,3957.2
985.6,3954.88
985.868,3951.62
986.137,3950.74
986.406,3955.68
986.674,3955.58
986.943,3952.7
987.211,3953.02
987.48,3948.5
987.748,3949.66
988.017,3944.9
988.285,3941.64
988.554,3937.18
988.822,3934.22
989.091,3939.66
989.359,3943.58
989.628,3939.4
989.896,3932.12
990.164,3933.16
990.433,3932.44
990.701,3931.34
990.97,3929.92
991.238,3925.7
991.506,3924.42
991.775,3922.18
992.043,3919.48
992.311,3921.64
992.58,3921.22
992.848,3918.96
993.116,3915.42
993.385,3914.98
993.653,3913.46
993.921,3913.68
994.19,3905.58
994.458,3906.28
994.726,3904.68
994.994,3906.1
995.262,3908.42
995.531,3902.76
995.799,3905.26
996.067,3901.58
996.335,3901.8
996.603,3898.8
996.872,3899.8
997.14,3897.26
997.408,3897.32
997.676,3895.98
997.944,3894.94
998.212,3893.58
998.48,3893.28
998.748,3893.52
999.016,3895.3
999.284,3891.04
999.552,3890.1
999.82,3887.7
1000.09,3886.28
1000.36,3882.0
1000.62,3880.0
1000.89,3879.3
1001.16,3882.62
1001.43,3880.2
1001.7,3881.42
1001.96,3883.6
1002.23,3884.2
1002.5,3878.36
1002.77,3876.7
1003.04,3874.52
1003.3,3872.62
1003.57,3873.82
1003.84,3874.02
1004.11,3872.6
1004.38,3869.32
1004.64,3869.1
1004.91,3867.7
1005.18,3867.0
1005.45,3868.04
1005.71,3867.26
1005.98,3867.84
1006.25,3865.34
1006.52,3865.06
1006.79,3863.38
1007.05,3864.34
1007.32,3863.84
1007.59,3860.62
1007.86,3857.0
1008.12,3856.24
1008.39,3855.6
1008.66,3857.68
1008.93,3857.58
1009.19,3853.68
1009.46,3849.28
1009.73,3851.2
1010.0,3852.12
1010.26,3850.54
1010.53,3851.3
1010.8,3852.28
1011.07,3850.92
1011.33,3850.34
1011.6,3846.44
1011.87,3846.62
1012.14,3844.44
1012.4,3846.58
1012.67,3846.08
1012.94,3846.88
1013.21,3846.32
1013.47,3845.02
1013.74,3846.54
1014.01,3846.7
1014.28,3842.42
1014.54,3844.14
1014.81,3842.42
1015.08,3842.2
1015.35,3841.06
1015.61,3842.98
1015.88,3843.04
1016.15,3843.62
1016.42,3844.6
1016.68,3843.5
1016.95,3841.7
1017.22,3841.26
1017.48,3839.32
1017.75,3838.66
1018.02,3837.08
1018.29,3835.8
1018.55,3837.82
1018.82,3836.96
1019.09,3835.84
1019.36,3834.44
1019.62,3834.08
1019.89,3834.14
1020.16,3833.5
1020.42,3835.48
1020.69,3837.7
1020.96,3840.88
1021.23,3841.06
1021.49,3840.52
1021.76,3843.58
1022.03,3843.8
1022.29,3844.58
1022.56,3848.3
1022.83,3846.28
1023.09,3845.48
1023.36,3847.32
1023.63,3844.14
1023.9,3841.88
1024.16,3841.66
1024.43,3841.46
1024.7,3838.12
1024.96,3834.68
1025.23,3834.44
1025.5,3834.36
1025.76,3831.44
1026.03,3828.46
1026.3,3826.9
1026.56,3826.9
1026.83,3828.04
1027.1,3823.4
1027.37,3822.82
1027.63,3821.14
1027.9,3820.78
1028.17,3818.58
1028.43,3817.26
1028.7,3816.24
1028.97,3813.08
1029.23,3815.08
1029.5,3814.74
1029.77,3813.24
1030.03,3813.64
1030.3,3811.24
1030.57,3810.12
1030.83,3810.16
1031.1,3809.9
1031.37,3809.62
1031.63,3810.88
1031.9,3809.96
1032.17,3808.94
1032.43,3808.38
1032.7,3808.1
1032.97,3811.36
1033.23,3809.28
1033.5,3811.78
1033.77,3813.78
1034.03,3814.54
1034.3,3815.98
1034.57,3814.52
1034.83,3816.58
1035.1,3818.96
1035.36,3817.58
1035.63,3816.16
1035.9,3816.88
1036.16,3816.34
1036.43,3814.8
1036.7,3814.18
1036.96,3812.8
1037.23,3809.26
1037.5,3809.1
1037.76,3805.74
1038.03,3806.26
1038.3,3803.42
1038.56,3802.48
1038.83,3801.88
1039.09,3801.28
1039.36,3799.84
1039.63,3800.92
1039.89,3799.14
1040.16,3799.7
1040.43,3797.02
1040.69,3797.58
1040.96,3796.18
1041.22,3796.86
1041.49,3797.22
1041.76,3796.46
1042.02,3795.64
1042.29,3796.16
1042.55,3794.92
1042.82,3795.14
1043.09,3793.34
1043.35,3793.72
1043.62,3793.88
1043.89,3792.92
1044.15,3791.84
1044.42,3792.44
1044.68,3792.56
1044.95,3791.58
1045.22,3792.9
1045.48,3791.64
1045.75,3791.78
1046.01,3791.3
1046.28,3791.32
1046.55,3791.02
1046.81,3791.12
1047.08,3792.96
1047.34,3790.56
1047.61,3790.98
1047.88,3790.52
1048.14,3789.28
1048.41,3791.2
1048.67,3790.22
1048.94,3790.62
1049.2,3791.04
1049.47,3790.14
1049.74,3790.64
1050.0,3789.3
1050.27,3790.16
1050.53,3789.8
1050.8,3790.4
1051.06,3790.34
1051.33,3789.04
1051.6,3790.56
1051.86,3790.12
1052.13,3789.3
1052.39,3788.52
1052.66,3787.74
1052.92,3789.88
1053.19,3788.72
1053.46,3788.48
1053.72,3788.44
1053.99,3788.3
1054.25,3788.5
1054.52,3788.08
1054.78,3788.94
1055.05,3788.62
1055.32,3788.06
1055.58,3788.04
1055.85,3787.96
1056.11,3787.98
1056.38,3787.08
1056.64,3788.2
1056.91,3787.78
1057.17,3787.96
1057.44,3787.0
1057.7,3786.78
1057.97,3786.72
1058.24,3787.26
1058.5,3786.82
1058.77,3786.3
1059.03,3785.56
1059.3,3787.4
1059.56,3786.4
1059.83,3786.54
1060.09,3786.96
1060.36,3786.7
1060.62,3786.76
1060.89,3786.58
1061.15,3785.82
1061.42,3786.8
1061.68,3786.32
1061.95,3784.72
1062.22,3785.9
1062.48,3786.98
1062.75,3786.26
1063.01,3786.22
1063.28,3785.04
1063.54,3786.0
1063.81,3785.48
1064.07,3785.9
1064.34,3785.16
1064.6,3785.02
1064.87,3784.84
1065.13,3786.22
1065.4,3785.96
1065.66,3785.88
1065.93,3785.36
1066.19,3785.0
1066.46,3785.1
1066.72,3784.98
1066.99,3784.3
1067.25,3784.44
1067.52,3783.86
1067.78,3784.16
1068.05,3784.62