File: spectra/VLFR_01-LDPE_bio_Raman_e1d382c4.csv
nm,Intensity
528.65,1836.95
528.819,1836.9
528.987,1838.35
529.155,1837.7
529.324,1837.65
529.492,1837.95
529.66,1836.95
529.829,1837.6
529.997,1837.45
530.165,1837.0
530.334,1836.9
530.502,1837.45
530.67,1838.55
530.839,1838.2
531.007,1838.65
531.175,1837.2
531.344,1840.55
531.512,1840.8
531.68,1854.95
531.848,2097.6
532.017,2708.05
532.185,2371.65
532.353,1856.2
532.521,1838.95
532.69,1837.3
532.858,1838.0
533.026,1837.5
533.194,1837.7
533.363,1839.85
533.531,1854.15
533.699,1928.9
533.867,2032.1
534.036,2086.5
534.204,2075.05
534.372,2065.35
534.54,2051.6
534.708,2059.05
534.877,2041.65
535.045,2032.4
535.213,2019.9
535.381,2009.6
535.549,1996.8
535.717,1990.25
535.886,1979.35
536.054,1968.85
536.222,1960.9
536.39,1964.15
536.558,1966.25
536.726,1953.8
536.894,1960.2
537.062,1950.45
537.231,1954.65
537.399,1951.8
537.567,1955.65
537.735,1958.0
537.903,1957.0
538.071,1953.4
538.239,1948.4
538.407,1940.45
538.575,1944.95
538.743,1938.4
538.911,1937.6
539.079,1935.2
539.247,1932.2
539.415,1935.8
539.583,1925.4
539.751,1933.35
539.919,1926.6
540.087,1921.15
540.255,1926.2
540.423,1922.15
540.591,1921.95
540.759,1928.55
540.927,1922.05
541.095,1927.8
541.263,1919.25
541.431,1926.8
541.599,1920.95
541.767,1922.05
541.935,1927.55
542.103,1923.85
542.271,1921.8
542.439,1920.6
542.607,1924.25
542.775,1924.2
542.943,1920.6
543.111,1924.2
543.279,1921.6
543.446,1919.35
543.614,1924.9
543.782,1928.8
543.95,1921.95
544.118,1923.4
544.286,1927.45
544.454,1923.8
544.622,1915.5
544.789,1916.25
544.957,1918.15
545.125,1923.05
545.293,1915.1
545.461,1914.05
545.629,1921.15
545.796,1921.6
545.964,1918.65
546.132,1920.45
546.3,1916.0
546.468,1919.85
546.635,1919.5
546.803,1921.5
546.971,1923.45
547.139,1921.55
547.306,1925.05
547.474,1914.75
547.642,1920.15
547.81,1915.8
547.977,1917.7
548.145,1920.3
548.313,1921.55
548.481,1917.65
548.648,1916.0
548.816,1918.15
548.984,1916.35
549.151,1913.9
549.319,1916.75
549.487,1917.7
549.655,1916.5
549.822,1917.1
549.99,1914.9
550.158,1913.5
550.325,1910.7
550.493,1916.4
550.66,1915.65
550.828,1916.65
550.996,1915.35
551.163,1913.5
551.331,1912.05
551.499,1919.1
551.666,1921.5
551.834,1917.5
552.001,1920.8
552.169,1918.45
552.337,1916.65
552.504,1915.2
552.672,1915.25
552.839,1920.4
553.007,1923.8
553.174,1932.05
553.342,1935.05
553.509,1932.55
553.677,1937.55
553.844,1932.35
554.012,1935.35
554.179,1936.35
554.347,1931.7
554.514,1939.9
554.682,1940.45
554.849,1944.5
555.017,1940.05
555.184,1939.15
555.352,1943.45
555.519,1942.6
555.687,1947.0
555.854,1946.75
556.022,1947.55
556.189,1955.25
556.357,1957.2
556.524,1962.8
556.691,1956.25
556.859,1965.7
557.026,1965.7
557.194,1972.15
557.361,1976.2
557.528,1977.0
557.696,1980.6
557.863,1986.75
558.031,1988.7
558.198,1999.9
558.365,1997.95
558.533,1996.0
558.7,1985.15
558.867,1986.2
559.035,1983.95
559.202,1971.25
559.369,1972.8
559.537,1974.3
559.704,1973.15
559.871,1973.0
560.038,1964.8
560.206,1964.8
560.373,1964.85
560.54,1963.55
560.708,1974.75
560.875,1972.45
561.042,1976.45
561.209,1969.95
561.377,1970.15
561.544,1970.95
561.711,1979.8
561.878,1973.55
562.045,1992.45
562.213,1987.1
562.38,1992.0
562.547,1997.15
562.714,2003.3
562.881,2008.95
563.049,2015.8
563.216,2015.5
563.383,2035.6
563.55,2069.65
563.717,2138.3
563.884,2321.45
564.052,2413.65
564.219,2221.9
564.386,2126.8
564.553,2128.2
564.72,2113.1
564.887,2089.65
565.054,2077.7
565.221,2062.05
565.388,2057.4
565.556,2076.35
565.723,2131.5
565.89,2279.45
566.057,2466.9
566.224,2424.6
566.391,2217.6
566.558,2094.8
566.725,2060.0
566.892,2045.65
567.059,2048.95
567.226,2045.4
567.393,2059.65
567.56,2052.5
567.727,2032.15
567.894,2025.2
568.061,2021.5
568.228,2030.45
568.395,2026.45
568.562,2026.55
568.729,2028.25
568.896,2030.45
569.063,2039.85
569.23,2041.6
569.396,2043.35
569.563,2043.35
569.73,2042.1
569.897,2044.7
570.064,2058.4
570.231,2063.05
570.398,2076.9
570.565,2087.85
570.732,2112.65
570.898,2122.55
571.065,2153.7
571.232,2284.6
571.399,2607.95
571.566,2738.25
571.733,2447.2
571.9,2279.3
572.066,2235.4
572.233,2196.15
572.4,2169.15
572.567,2160.3
572.734,2138.5
572.9,2131.6
573.067,2127.8
573.234,2143.75
573.401,2146.85
573.567,2157.9
573.734,2179.35
573.901,2209.55
574.068,2201.0
574.234,2188.7
574.401,2182.75
574.568,2174.6
574.734,2193.65
574.901,2197.85
575.068,2238.1
575.235,2274.05
575.401,2446.35
575.568,2551.0
575.735,2548.8
575.901,2550.5
576.068,2699.05
576.235,2797.95
576.401,2813.9
576.568,2691.0
576.734,2680.0
576.901,2689.7
577.068,2680.8
577.234,2589.1
577.401,2501.4
577.567,2474.65
577.734,2449.55
577.901,2468.3
578.067,2463.7
578.234,2482.1
578.4,2483.35
578.567,2504.55
578.733,2553.45
578.9,2563.5
579.066,2570.45
579.233,2589.75
579.399,2632.8
579.566,2643.05
579.732,2678.95
579.899,2701.85
580.065,2728.6
580.232,2748.9
580.398,2732.7
580.565,2790.05
580.731,2833.85
580.898,2827.9
581.064,2864.55
581.231,2899.6
581.397,2898.35
581.563,2891.85
581.73,2953.15
581.896,2950.1
582.063,2995.9
582.229,2999.15
582.395,3027.25
582.562,3073.35
582.728,3085.8
582.895,3096.1
583.061,3103.05
583.227,3155.45
583.394,3153.6
583.56,3189.95
583.726,3198.4
583.893,3186.75
584.059,3264.7
584.225,3280.35
584.391,3254.1
584.558,3275.6
584.724,3313.15
584.89,3362.45
585.057,3362.3
585.223,3368.95
585.389,3365.65
585.555,3368.2
585.722,3394.4
585.888,3424.65
586.054,3458.95
586.22,3488.25
586.386,3516.9
586.553,3457.5
586.719,3515.45
586.885,3554.05
587.051,3577.5
587.217,3569.45
587.384,3623.0
587.55,3649.6
587.716,3645.25
587.882,3665.35
588.048,3633.45
588.214,3687.85
588.38,3768.4
588.546,3721.25
588.713,3783.8
588.879,3776.95
589.045,3756.6
589.211,3790.35
589.377,3821.1
589.543,3838.4
589.709,3828.7
589.875,3852.6
590.041,3814.2
590.207,3927.1
590.373,3852.9
590.539,3912.7
590.705,3933.05
590.871,3942.75
591.037,3972.2
591.203,3964.35
591.369,4018.45
591.535,3976.7
591.701,3990.65
591.867,4052.65
592.033,4085.2
592.199,4062.7
592.365,4000.55
592.531,4087.35
592.697,4054.1
592.863,4085.2
593.029,4058.0
593.195,4097.2
593.361,4072.85
593.526,4043.7
593.692,4121.65
593.858,4061.2
594.024,4073.25
594.19,4071.65
594.356,4105.65
594.522,4086.3
594.687,4123.35
594.853,4149.45
595.019,4075.4
595.185,4130.3
595.351,4106.35
595.516,4175.5
595.682,4240.2
595.848,4238.1
596.014,4229.15
596.18,4174.65
596.345,4201.8
596.511,4325.85
596.677,4234.8
596.843,4277.05
597.008,4252.0
597.174,4373.5
597.34,4273.75
597.505,4262.45
597.671,4366.6
597.837,4417.55
598.002,4376.7
598.168,4370.75
598.334,4375.2
598.499,4414.75
598.665,4430.85
598.831,4414.2
598.996,4446.4
599.162,4540.15
599.328,4520.7
599.493,4510.65
599.659,4474.25
599.824,4504.75
599.99,4595.3
600.156,4551.9
600.321,4561.15
600.487,4511.75
600.652,4524.55
600.818,4561.6
600.983,4559.2
601.149,4555.85
601.314,4587.7
601.48,4583.0
601.645,4536.05
601.811,4499.6
601.976,4456.55
602.142,4580.15
602.307,4520.65
602.473,4517.0
602.638,4426.05
602.804,4455.05
602.969,4418.7
603.135,4384.65
603.3,4441.75
603.466,4329.55
603.631,4389.05
603.796,4364.6
603.962,4386.1
604.127,4318.0
604.293,4233.2
604.458,4279.5
604.623,4224.05
604.789,4227.15
604.954,4119.05
605.119,4134.65
605.285,4091.8
605.45,4124.1
605.615,4026.5
605.781,4022.5
605.946,4086.35
606.111,3973.6
606.277,3918.3
606.442,3951.7
606.607,3916.35
606.772,3873.7
606.938,3872.05
607.103,3837.0
607.268,3801.2
607.433,3819.55
607.599,3740.75
607.764,3725.35
607.929,3795.25
608.094,3730.4
608.259,3698.5
608.425,3693.05
608.59,3671.1
608.755,3621.95
608.92,3655.8
609.085,3597.4
609.25,3654.3
609.415,3596.3
609.581,3533.85
609.746,3572.9
609.911,3594.25
610.076,3519.45
610.241,3502.3
610.406,3520.8
610.571,3513.4
610.736,3499.8
610.901,3470.95
611.066,3517.95
611.231,3446.5
611.396,3422.35
611.561,3417.5
611.727,3391.85
611.892,3390.9
612.057,3431.7
612.222,3340.45
612.386,3372.2
612.551,3317.15
612.716,3285.85
612.881,3302.6
613.046,3295.5
613.211,3281.5
613.376,3273.9
613.541,3252.8
613.706,3245.4
613.871,3278.55
614.036,3224.3
614.201,3243.75
614.366,3204.05
614.531,3198.9
614.695,3196.0
614.86,3184.45
615.025,3130.55
615.19,3161.9
615.355,3151.15
615.52,3119.5
615.684,3095.4
615.849,3138.65
616.014,3068.7
616.179,3094.1
616.344,3084.95
616.508,3069.25
616.673,3047.35
616.838,3047.95
617.003,3072.85
617.168,3070.3
617.332,3016.05
617.497,3037.15
617.662,3073.55
617.826,3028.1
617.991,2995.8
618.156,3023.2
618.32,2989.35
618.485,2974.85
618.65,2979.9
618.814,2992.65
618.979,2975.75
619.144,2988.15
619.308,2965.9
619.473,3014.75
619.638,2952.55
619.802,2962.45
619.967,2921.85
620.131,2923.45
620.296,2983.25
620.461,2899.05
620.625,2952.0
620.79,2910.25
620.954,2953.15
621.119,2925.75
621.283,2953.45
621.448,2927.3
621.612,2969.35
621.777,3001.55
621.941,3026.9
622.106,3010.2
622.27,3049.75
622.435,3032.75
622.599,2999.65
622.764,2947.35
622.928,2903.8
623.093,2893.95
623.257,2898.8
623.422,2856.65
623.586,2852.05
623.75,2815.85
623.915,2827.15
624.079,2862.65
624.244,2841.9
624.408,2828.2
624.572,2814.25
624.737,2833.85
624.901,2832.1
625.065,2835.65
625.23,2814.15
625.394,2847.6
625.558,2862.4
625.723,2835.7
625.887,2887.6
626.051,2898.55
626.215,2951.55
626.38,3097.9
626.544,3255.8
626.708,3708.4
626.872,4465.85
627.037,5128.65
627.201,5558.05
627.365,5293.5
627.529,4885.4
627.693,4532.45
627.858,4453.2
628.022,4523.25
628.186,4648.95
628.35,5305.9
628.514,5633.0
628.678,5162.6
628.843,4817.05
629.007,4696.45
629.171,4526.3
629.335,4359.85
629.499,4329.6
629.663,4092.9
629.827,4009.85
629.991,3926.45
630.155,3872.25
630.319,3860.95
630.483,3830.5
630.647,3745.95
630.812,3524.8
630.976,3342.5
631.14,3159.3
631.304,3115.8
631.468,3052.55
631.632,3007.4
631.796,2973.85
631.959,2965.1
632.123,2912.3
632.287,2909.25
632.451,2896.9
632.615,2904.3
632.779,2892.55
632.943,2883.25
633.107,2841.05
633.271,2865.1
633.435,2903.65
633.599,2896.0
633.763,2863.25
633.926,2862.4
634.09,2899.9
634.254,2841.95
634.418,2858.15
634.582,2843.65
634.746,2874.95
634.909,2855.65
635.073,2879.35
635.237,2840.65
635.401,2873.85
635.564,2855.95
635.728,2881.35
635.892,2856.2
636.056,2859.2
636.219,2869.9
636.383,2842.75
636.547,2869.4
636.711,2845.0
636.874,2863.25
637.038,2877.05
637.202,2879.65
637.365,2881.35
637.529,2846.95
637.693,2886.6
637.856,2895.7
638.02,2870.95
638.184,2893.05
638.347,2888.7
638.511,2881.7
638.674,2866.7
638.838,2865.05
639.002,2902.45
639.165,2890.35
639.329,2906.35
639.492,2860.2
639.656,2882.25
639.819,2903.65
639.983,2906.8
640.146,2884.15
640.31,2916.05
640.473,2861.8
640.637,2890.6
640.8,2893.3
640.964,2872.75
641.127,2867.9
641.291,2905.35
641.454,2920.6
641.618,2892.5
641.781,2920.5
641.944,2909.0
642.108,2912.8
642.271,2955.55
642.435,2914.4
642.598,2925.65
642.761,2914.9
642.925,2895.95
643.088,2930.85
643.251,2930.45
643.415,2934.8
643.578,2932.35
643.741,2926.4
643.905,2955.65
644.068,2925.8
644.231,2940.8
644.394,2929.75
644.558,2945.4
644.721,2898.05
644.884,2904.45
645.047,2951.3
645.211,2949.85
645.374,2957.85
645.537,2906.0
645.7,2922.4
645.863,2924.15
646.027,2903.6
646.19,2923.9
646.353,2908.1
646.516,2943.0
646.679,2928.6
646.842,2863.95
647.005,2926.55
647.169,2935.1
647.332,2894.9
647.495,2899.0
647.658,2876.8
647.821,2873.3
647.984,2897.4
648.147,2919.4
648.31,2911.45
648.473,2860.45
648.636,2831.25
648.799,2866.85
648.962,2877.9
649.125,2896.95
649.288,2906.8
649.451,2846.95
649.614,2843.35
649.777,2819.7
649.94,2873.3
650.103,2867.75
650.266,2850.9
650.429,2832.8
650.592,2861.7
650.755,2827.4
650.918,2849.7
651.08,2850.45
651.243,2854.95
651.406,2866.6
651.569,2796.95
651.732,2849.3
651.895,2817.7
652.058,2789.1
652.22,2857.5
652.383,2824.85
652.546,2809.15
652.709,2834.65
652.872,2781.8
653.034,2787.2
653.197,2791.65
653.36,2813.15
653.523,2775.3
653.685,2792.55
653.848,2782.5
654.011,2816.75
654.173,2766.25
654.336,2770.75
654.499,2768.6
654.662,2786.5
654.824,2771.65
654.987,2798.5
655.149,2717.8
655.312,2781.1
655.475,2769.95
655.637,2753.95
655.8,2755.2
655.963,2766.45
656.125,2729.45
656.288,2720.25
656.45,2722.35
656.613,2707.25
656.775,2707.15
656.938,2724.15
657.1,2722.15
657.263,2708.3
657.425,2689.35
657.588,2660.55
657.75,2623.65
657.913,2663.35
658.075,2676.45
658.238,2634.3
658.4,2621.75
658.563,2609.85
658.725,2652.6
658.888,2619.75
659.05,2609.15
659.212,2614.85
659.375,2581.9
659.537,2581.9
659.7,2598.65
659.862,2598.0
660.024,2559.75
660.187,2529.15
660.349,2536.6
660.511,2519.75
660.674,2514.0
660.836,2499.5
660.998,2492.05
661.079,2490.05