File: spectra/VLFR_06-PET_nobio_Raman_8e3653e8.csv
cm-1,Intensity
-123.878,1854.0
-117.855,1852.8
-111.836,1852.85
-105.821,1852.5
-99.8104,1853.0
-93.8036,1854.1
-87.8007,1852.45
-81.8019,1852.95
-75.807,1853.7
-69.8161,1853.1
-63.8293,1854.0
-57.8464,1852.9
-51.8675,1853.7
-45.8926,1854.2
-39.9216,1855.1
-33.9547,1855.7
-27.9917,1857.65
-22.0326,1861.1
-16.0776,1885.25
-10.1265,2373.85
-4.17932,3900.35
1.76388,3560.35
7.70313,1965.5
13.6384,1858.55
19.5698,1856.8
25.4972,1856.5
31.4207,1857.1
37.3403,1858.25
43.256,1869.5
49.1677,1965.15
55.0755,2586.4
60.9794,3707.6
66.8794,4253.65
72.7754,4233.75
78.6676,3973.55
84.5559,3778.35
90.4402,3686.85
96.3207,3536.5
102.197,3308.4
108.07,3234.95
113.939,3146.4
119.804,2965.85
125.665,2890.7
131.522,2794.1
137.375,2713.85
143.225,2678.45
149.07,2615.85
154.912,2614.7
160.75,2600.25
166.584,2593.4
172.414,2594.75
178.241,2589.45
184.063,2607.95
189.882,2593.25
195.697,2596.75
201.508,2613.55
207.315,2601.65
213.119,2605.8
218.918,2634.25
224.714,2622.5
230.506,2629.55
236.294,2618.7
242.078,2642.05
247.859,2650.0
253.636,2652.2
259.409,2693.7
265.178,2699.1
270.943,2722.55
276.705,2692.75
282.463,2672.9
288.217,2652.0
293.967,2645.45
299.713,2622.15
305.456,2620.9
311.195,2597.1
316.93,2622.1
322.662,2624.05
328.389,2596.65
334.113,2613.45
339.834,2611.25
345.55,2620.1
351.263,2622.85
356.972,2647.4
362.677,2655.65
368.379,2652.4
374.077,2654.25
379.771,2634.5
385.461,2650.55
391.148,2665.6
396.831,2679.1
402.51,2651.5
408.186,2682.85
413.858,2688.1
419.526,2654.15
425.19,2688.15
430.851,2670.55
436.508,2695.25
442.162,2670.15
447.811,2671.7
453.458,2693.35
459.1,2702.1
464.739,2696.4
470.374,2711.7
476.005,2707.2
481.633,2755.4
487.257,2715.9
492.878,2706.4
498.494,2718.15
504.107,2755.25
509.717,2729.05
515.323,2722.65
520.925,2749.9
526.524,2733.05
532.119,2746.4
537.71,2757.45
543.298,2782.05
548.882,2739.05
554.462,2781.75
560.039,2756.85
565.613,2796.95
571.182,2803.05
576.748,2799.4
582.311,2761.4
587.87,2775.7
593.425,2803.5
598.977,2787.2
604.525,2811.75
610.069,2792.8
615.61,2766.25
621.148,2833.0
626.682,3064.55
632.212,3200.8
637.739,3008.75
643.262,2843.45
648.781,2851.1
654.297,2825.4
659.81,2855.55
665.319,2836.95
670.824,2879.7
676.326,2865.0
681.824,2840.15
687.319,2864.15
692.81,2856.7
698.298,2953.3
703.782,2996.6
709.262,2911.4
714.739,2896.85
720.213,2869.35
725.683,2851.05
731.15,2856.3
736.613,2886.6
742.072,2872.8
747.528,2891.6
752.981,2878.05
758.43,2866.35
763.875,2909.15
769.317,2898.9
774.756,2925.65
780.191,2937.4
785.623,2986.25
791.051,3057.6
796.475,3101.25
801.897,3063.6
807.314,3086.5
812.729,3077.2
818.139,3053.1
823.547,3092.0
828.951,3126.5
834.351,3127.7
839.748,3176.6
845.142,3273.4
850.532,3435.05
855.918,3544.7
861.302,3451.95
866.681,3264.75
872.058,3183.75
877.431,3189.4
882.8,3188.5
888.166,3200.25
893.529,3166.1
898.888,3110.6
904.244,3075.7
909.596,3049.35
914.945,2994.6
920.291,3040.45
925.633,3037.65
930.972,2984.7
936.308,3004.6
941.64,3030.75
946.968,3047.65
952.294,3020.15
957.615,3057.15
962.934,3073.55
968.249,3071.8
973.561,3039.65
978.869,3081.7
984.174,3121.3
989.476,3104.0
994.774,3124.35
1000.07,3139.0
1005.36,3162.5
1010.65,3167.9
1015.93,3206.8
1021.22,3207.45
1026.49,3201.5
1031.77,3219.6
1037.04,3205.35
1042.31,3245.25
1047.57,3198.5
1052.83,3204.7
1058.09,3197.75
1063.35,3212.3
1068.6,3178.5
1073.85,3254.45
1079.09,3260.85
1084.33,3326.3
1089.57,3401.7
1094.81,3444.1
1100.04,3484.45
1105.27,3541.45
1110.49,3596.2
1115.71,3722.95
1120.93,3671.65
1126.15,3574.0
1131.36,3497.95
1136.57,3445.75
1141.77,3372.6
1146.98,3383.35
1152.18,3358.55
1157.37,3347.35
1162.56,3386.7
1167.75,3501.4
1172.94,3585.5
1178.12,3593.85
1183.3,3522.05
1188.48,3437.9
1193.65,3405.4
1198.82,3400.75
1203.99,3450.8
1209.15,3410.75
1214.31,3463.7
1219.46,3469.4
1224.62,3451.1
1229.77,3477.85
1234.92,3512.85
1240.06,3594.0
1245.2,3578.25
1250.34,3617.15
1255.47,3684.2
1260.6,3774.35
1265.73,3975.9
1270.85,4015.6
1275.97,4265.25
1281.09,4337.0
1286.21,4452.15
1291.32,4508.05
1296.43,4340.8
1301.53,4165.3
1306.63,4066.5
1311.73,3998.15
1316.83,3915.15
1321.92,3791.1
1327.01,3736.6
1332.1,3702.65
1337.18,3672.15
1342.26,3672.3
1347.34,3696.0
1352.41,3717.6
1357.48,3661.75
1362.55,3747.85
1367.61,3753.15
1372.67,3795.8
1377.73,3771.4
1382.78,3707.0
1387.84,3774.55
1392.88,3738.75
1397.93,3796.9
1402.97,3891.15
1408.01,3860.8
1413.05,3917.9
1418.08,3885.75
1423.11,3855.1
1428.14,3825.4
1433.16,3859.2
1438.18,3907.7
1443.2,3965.55
1448.21,3943.05
1453.22,4000.1
1458.23,3942.65
1463.23,3939.9
1468.23,3875.05
1473.23,3887.1
1478.23,3833.9
1483.22,3895.1
1488.21,3873.4
1493.2,3826.65
1498.18,3819.2
1503.16,3917.7
1508.14,3858.3
1513.11,3856.9
1518.08,3916.95
1523.05,3910.0
1528.01,3868.5
1532.97,3935.45
1537.93,3937.95
1542.89,3949.1
1547.84,3893.95
1552.79,3970.15
1557.73,3949.85
1562.68,4006.3
1567.62,4039.7
1572.56,4044.15
1577.49,4063.05
1582.42,4032.7
1587.35,4154.55
1592.27,4165.8
1597.19,4291.7
1602.11,4845.25
1607.03,5835.75
1611.94,7142.7
1616.85,7227.4
1621.76,5493.35
1626.66,4458.95
1631.56,4197.55
1636.46,4121.15
1641.36,4116.0
1646.25,4047.05
1651.14,4051.5
1656.02,4124.2
1660.9,4053.8
1665.78,4119.05
1670.66,4104.1
1675.54,4164.45
1680.41,4128.3
1685.27,4089.3
1690.14,4211.9
1695.0,4139.75
1699.86,4169.2
1704.71,4348.95
1709.57,4618.5
1714.42,5239.4
1719.26,5806.6
1724.11,6067.3
1728.95,6037.95
1733.79,5696.55
1738.62,5288.75
1743.46,4929.45
1748.28,4504.35
1753.11,4290.5
1757.93,4315.25
1762.75,4202.65
1767.57,4152.0
1772.39,4171.6
1777.2,4195.7
1782.01,4170.8
1786.81,4230.35
1791.62,4195.6
1796.41,4172.45
1801.21,4156.6
1806.01,4162.1
1810.8,4176.15
1815.59,4233.2
1820.37,4201.65
1825.15,4083.5
1829.93,4061.35
1834.71,4154.25
1839.48,4176.5
1844.25,4123.1
1849.02,4181.0
1853.79,4185.1
1858.55,4180.2
1863.31,4155.45
1868.06,4119.25
1872.82,4171.5
1877.57,4197.9
1882.31,4199.05
1887.06,4189.5
1891.8,4169.3
1896.54,4206.3
1901.28,4223.95
1906.01,4216.35
1910.74,4138.6
1915.47,4213.3
1920.19,4163.7
1924.91,4204.4
1929.63,4235.7
1934.35,4197.1
1939.06,4208.05
1943.77,4208.15
1948.48,4230.75
1953.19,4181.0
1957.89,4163.75
1962.59,4163.0
1967.28,4269.8
1971.98,4222.7
1976.67,4181.5
1981.35,4214.65
1986.04,4216.65
1990.72,4285.35
1995.4,4212.8
2000.08,4269.75
2004.75,4300.8
2009.42,4257.55
2014.09,4306.65
2018.75,4250.55
2023.42,4328.6
2028.08,4319.55
2032.73,4265.95
2037.39,4267.5
2042.04,4230.8
2046.69,4266.45
2051.33,4213.2
2055.97,4311.05
2060.61,4300.1
2065.25,4294.4
2069.88,4313.0
2074.52,4303.25
2079.15,4322.8
2083.77,4313.5
2088.39,4242.85
2093.01,4332.65
2097.63,4307.15
2102.25,4290.2
2106.86,4281.15
2111.47,4332.6
2116.08,4304.35
2120.68,4393.1
2125.28,4388.15
2129.88,4352.55
2134.47,4326.8
2139.07,4333.1
2143.66,4327.45
2148.24,4365.5
2152.83,4268.9
2157.41,4393.2
2161.99,4376.35
2166.57,4307.55
2171.14,4342.15
2175.71,4301.95
2180.28,4407.1
2184.84,4353.9
2189.41,4431.2
2193.97,4358.8
2198.52,4304.9
2203.08,4340.4
2207.63,4408.4
2212.18,4378.0
2216.73,4436.5
2221.27,4424.35
2225.81,4338.5
2230.35,4329.95
2234.89,4412.55
2239.42,4402.95
2243.95,4432.15
2248.48,4398.9
2253.0,4382.35
2257.52,4401.9
2262.04,4386.95
2266.56,4369.25
2271.07,4423.3
2275.58,4440.0
2280.09,4365.8
2284.6,4407.3
2289.1,4428.05
2293.6,4421.05
2298.1,4436.45
2302.6,4380.4
2307.09,4436.05
2311.58,4426.5
2316.07,4432.1
2320.55,4413.85
2325.03,4467.65
2329.51,4423.35
2333.99,4434.05
2338.46,4445.95
2342.93,4429.35
2347.4,4476.15
2351.87,4438.05
2356.33,4467.7
2360.79,4489.55
2365.25,4482.6
2369.71,4409.75
2374.16,4434.15
2378.61,4479.45
2383.06,4410.8
2387.5,4465.75
2391.94,4476.0
2396.38,4430.9
2400.82,4488.4
2405.26,4519.65
2409.69,4512.8
2414.12,4545.1
2418.54,4436.5
2422.97,4420.85
2427.39,4480.45
2431.81,4548.35
2436.22,4519.5
2440.64,4467.5
2445.05,4545.05
2449.46,4505.4
2453.86,4452.15
2458.27,4522.3
2462.67,4492.9
2467.06,4503.7
2471.46,4486.6
2475.85,4517.65
2480.24,4499.95
2484.63,4453.15
2489.02,4482.5
2493.4,4537.9
2497.78,4577.05
2502.16,4566.1
2506.53,4485.1
2510.9,4654.9
2515.27,4540.3
2519.64,4516.15
2524.0,4563.9
2528.37,4600.8
2532.73,4569.1
2537.08,4592.7
2541.44,4572.05
2545.79,4586.9
2550.14,4489.3
2554.48,4576.7
2558.83,4669.05
2563.17,4582.5
2567.51,4587.6
2571.85,4585.4
2576.18,4525.95
2580.51,4641.7
2584.84,4597.55
2589.17,4562.0
2593.49,4602.2
2597.81,4599.15
2602.13,4602.3
2606.45,4650.05
2610.76,4603.3
2615.07,4718.65
2619.38,4644.75
2623.69,4665.1
2627.99,4686.9
2632.29,4663.25
2636.59,4695.8
2640.89,4574.75
2645.18,4681.0
2649.47,4702.4
2653.76,4708.5
2658.05,4720.9
2662.33,4640.75
2666.61,4625.9
2670.89,4742.6
2675.17,4588.55
2679.44,4672.65
2683.71,4603.05
2687.98,4750.75
2692.25,4727.95
2696.51,4704.4
2700.77,4668.45
2705.03,4648.15
2709.29,4653.15
2713.54,4755.75
2717.79,4704.4
2722.04,4715.1
2726.29,4722.15
2730.53,4681.7
2734.77,4666.1
2739.01,4814.0
2743.25,4685.25
2747.48,4732.6
2751.71,4677.9
2755.94,4793.95
2760.17,4869.45
2764.39,4768.0
2768.61,4743.9
2772.83,4740.25
2777.05,4768.45
2781.27,4714.6
2785.48,4880.6
2789.69,4782.15
2793.89,4830.1
2798.1,4821.8
2802.3,4805.1
2806.5,4827.3
2810.7,4785.65
2814.89,4876.25
2819.09,4810.45
2823.28,4819.45
2827.46,4822.0
2831.65,4826.6
2835.83,4803.4
2840.01,4798.35
2844.19,4880.25
2848.37,4803.1
2852.54,4861.3
2856.71,4977.1
2860.88,4892.2
2865.05,4931.5
2869.21,4873.55
2873.37,4900.3
2877.53,4965.95
2881.69,4877.3
2885.84,5077.0
2889.99,5119.4
2894.14,4984.45
2898.29,5162.15
2902.43,5191.45
2906.58,5096.95
2910.72,5095.55
2914.85,5087.2
2918.99,5046.4
2923.12,4969.05
2927.25,5117.85
2931.38,5081.4
2935.5,5094.6
2939.63,5162.75
2943.75,5268.5
2947.87,5586.55
2951.98,5697.3
2956.1,5884.65
2960.21,5922.25
2964.32,5865.2
2968.42,5884.05
2972.53,5858.05
2976.63,5704.0
2980.73,5594.55
2984.83,5662.3
2988.92,5441.4
2993.01,5316.75
2997.1,5547.85
3001.19,5312.0
3005.28,5539.9
3009.36,5558.5
3013.44,5255.95
3017.52,5301.95
3021.6,5275.1
3025.67,5204.3
3029.74,5285.45
3033.81,5267.2
3037.88,5196.95
3041.94,5321.35
3046.01,5116.55
3050.07,5267.7
3054.12,5343.0
3058.18,5242.25
3062.23,5484.95
3066.28,5661.25
3070.33,5677.75
3074.38,5962.55
3078.42,6204.05
3082.46,6130.7
3086.5,6269.65
3090.54,5978.15
3094.57,5682.65
3098.6,5562.85
3102.63,5315.9
3106.66,5465.4
3110.69,5368.35
3114.71,5225.55
3118.73,5255.2
3122.75,5285.05
3126.77,5239.55
3130.78,5374.55
3134.79,5165.8
3138.8,5331.6
3142.81,5285.25
3146.81,5276.3
3150.82,5252.3
3154.82,5320.75
3158.81,5359.3
3162.81,5264.85
3166.8,5243.05
3170.79,5206.55
3174.78,5318.75
3178.77,5276.1
3182.75,5210.0
3186.74,5242.7
3190.72,5164.75
3194.69,5248.7
3198.67,5169.85
3202.64,5237.9
3206.61,5261.85
3210.58,5291.35
3214.55,5332.2
3218.51,5319.55
3222.47,5363.7
3226.43,5314.45
3230.39,5420.0
3234.35,5309.35
3238.3,5311.0
3242.25,5368.9
3246.2,5154.75
3250.15,5363.25
3254.09,5149.1
3258.03,5293.55
3261.97,5297.55
3265.91,5223.95
3269.84,5358.35
3273.78,5360.15
3277.71,5221.85
3281.64,5281.7
3285.56,5362.1
3289.49,5218.85
3293.41,5173.2
3297.33,5448.1
3301.25,5333.25
3305.16,5198.25
3309.07,5234.7
3312.99,5274.45
3316.89,5230.8
3320.8,5218.35
3324.7,5203.5
3328.61,5212.45
3332.51,5281.05
3336.4,5342.5
3340.3,5182.65
3344.19,5200.45
3348.08,5288.15
3351.97,5272.45
3355.86,5326.3
3359.74,5178.5
3363.63,5308.7
3367.51,5229.85
3371.39,5168.7
3375.26,5228.4
3379.13,5281.55
3383.01,5187.45
3386.88,5139.7
3390.74,5097.55
3394.61,5094.15
3398.47,5243.7
3402.33,5206.8
3406.19,5213.15
3410.05,5098.85
3413.9,5162.1
3417.75,5229.0
3421.6,5174.35
3425.45,5183.45
3429.3,5075.05
3433.14,5066.5
3436.98,5235.45
3440.82,5156.9
3444.66,5071.0
3448.49,5127.8
3452.32,5071.4
3456.15,5157.85
3459.98,5141.75
3463.81,5115.7
3467.63,5151.75
3471.46,5077.55
3475.28,5016.15
3479.09,4986.45
3482.91,5123.8
3486.72,5017.95
3490.53,5018.1
3494.34,4993.7
3498.15,5096.65
3501.96,5015.7
3505.76,4845.6
3509.56,5018.35
3513.36,5064.05
3517.15,4871.65
3520.95,4787.1
3524.74,5033.55
3528.53,5018.45
3532.32,5017.65
3536.11,4990.35
3539.89,5040.15
3543.67,4923.35
3547.45,4854.75
3551.23,4828.75
3555.0,5030.45
3558.78,4904.7
3562.55,4911.65
3566.32,4846.6
3570.09,4838.05
3573.85,4852.65
3577.61,4804.25
3581.37,4906.95
3585.13,4839.15
3588.89,4863.25
3592.64,4833.55
3596.4,4720.05
3600.15,4771.4
3603.9,4860.7
3607.64,4797.3
3611.39,4853.4
3615.13,4728.6
3618.87,4543.55
3622.61,4697.8
3626.34,4714.15
3630.08,4601.15
3633.81,4665.85
3637.54,4684.2
3641.27,4625.0
3644.99,4562.95
3648.72,4671.15
3652.44,4646.15
3656.16,4627.15
3659.87,4685.55
3663.59,4625.7
3665.45,4637.15