File: spectra/VLFR_07-PET_bio_Raman_f8488413.csv
nm,Intensity
791.377,15835.9
791.652,15265.1
791.927,14813.2
792.202,14743.3
792.477,14525.9
792.752,14263.7
793.027,13870.5
793.301,13465.5
793.576,13346.0
793.851,13092.8
794.126,13051.0
794.401,13088.8
794.676,12926.1
794.951,12742.4
795.225,12792.5
795.5,12828.8
795.775,12800.7
796.05,12619.7
796.325,12651.5
796.599,12735.6
796.874,12617.5
797.149,12658.8
797.424,12662.2
797.698,12618.1
797.973,12541.1
798.248,12683.2
798.523,12658.2
798.797,12633.9
799.072,12660.2
799.347,12635.2
799.622,12666.2
799.896,12578.5
800.171,12622.6
800.446,12484.1
800.72,12524.2
800.995,12516.5
801.27,12598.9
801.544,12688.5
801.819,12720.4
802.094,12550.9
802.368,12627.4
802.643,12554.7
802.918,12337.2
803.192,12256.6
803.467,12141.1
803.742,12227.6
804.016,12152.1
804.291,12256.1
804.565,12223.0
804.84,12059.2
805.114,12019.1
805.389,11983.1
805.664,12085.5
805.938,12081.4
806.213,11930.5
806.487,11882.1
806.762,11836.9
807.036,11852.8
807.311,11953.7
807.585,11844.4
807.86,11746.1
808.134,11588.8
808.409,11651.0
808.683,11734.8
808.958,11713.0
809.232,11640.3
809.507,11589.2
809.781,11352.3
810.056,11585.2
810.33,11736.0
810.605,11627.9
810.879,11444.4
811.153,11323.4
811.428,11299.7
811.702,11514.8
811.977,11260.3
812.251,11328.2
812.525,11296.2
812.8,11170.7
813.074,11147.9
813.349,11182.0
813.623,11171.9
813.897,11178.4
814.172,11079.3
814.446,11139.4
814.72,10978.9
814.995,11017.0
815.269,11066.3
815.543,11107.9
815.818,10910.7
816.092,10896.2
816.366,10886.9
816.64,10903.7
816.915,10799.2
817.189,10839.1
817.463,10730.5
817.737,10652.7
818.012,10609.2
818.286,10644.9
818.56,10500.4
818.834,10556.6
819.109,10850.9
819.383,10777.0
819.657,10518.2
819.931,10401.4
820.205,10415.6
820.48,10513.1
820.754,10516.9
821.028,10390.4
821.302,10371.6
821.576,10343.8
821.85,10220.9
822.125,10348.9
822.399,10338.8
822.673,10147.1
822.947,10143.1
823.221,10082.9
823.495,10140.6
823.769,10101.2
824.043,10190.0
824.317,10113.7
824.591,10098.0
824.865,10021.7
825.14,10054.6
825.414,10237.5
825.688,10375.5
825.962,10516.8
826.236,10344.7
826.51,10043.5
826.784,9848.66
827.058,9833.9
827.332,9953.92
827.606,9922.4
827.88,9896.22
828.154,9874.84
828.428,9807.3
828.702,9642.02
828.976,9629.2
829.249,9739.88
829.523,9631.48
829.797,9610.0
830.071,9759.72
830.345,9832.18
830.619,9808.48
830.893,9862.5
831.167,9827.74
831.441,9724.12
831.715,9502.18
831.988,9516.14
832.262,9461.84
832.536,9388.06
832.81,9390.64
833.084,9323.1
833.358,9380.4
833.632,9377.36
833.905,9388.0
834.179,9293.72
834.453,9248.4
834.727,9221.48
835.001,9237.38
835.274,9287.12
835.548,9266.34
835.822,9174.34
836.096,9240.78
836.369,9247.54
836.643,9176.32
836.917,9208.1
837.191,9223.88
837.464,9202.1
837.738,9286.24
838.012,9373.72
838.285,9309.52
838.559,9227.2
838.833,9171.58
839.106,9196.98
839.38,9245.28
839.654,9250.22
839.927,9167.96
840.201,9185.54
840.475,9237.06
840.748,9291.56
841.022,9623.08
841.295,9627.3
841.569,9567.34
841.843,9417.06
842.116,9197.58
842.39,9126.46
842.663,9064.86
842.937,9045.3
843.211,9058.68
843.484,9011.14
843.758,8959.66
844.031,8856.6
844.305,8837.06
844.578,8694.06
844.852,8720.18
845.125,8672.0
845.399,8500.6
845.672,8619.38
845.946,8624.34
846.219,8438.92
846.493,8356.02
846.766,8409.76
847.039,8355.3
847.313,8418.86
847.586,8357.1
847.86,8358.76
848.133,8318.06
848.407,8351.34
848.68,8252.18
848.953,8262.06
849.227,8231.94
849.5,8289.04
849.773,8249.54
850.047,8296.18
850.32,8375.76
850.593,8313.88
850.867,8255.18
851.14,8103.32
851.413,8102.84
851.687,8214.6
851.96,8290.9
852.233,8221.0
852.507,8196.66
852.78,8107.88
853.053,8120.1
853.326,8059.78
853.6,8129.42
853.873,8122.06
854.146,7986.76
854.419,7996.52
854.693,7994.06
854.966,7995.66
855.239,8023.38
855.512,8039.76
855.785,8008.98
856.059,7905.76
856.332,7780.54
856.605,7900.58
856.878,7910.32
857.151,7866.92
857.424,7957.88
857.698,7926.32
857.971,7910.82
858.244,7959.58
858.517,8064.8
858.79,8189.4
859.063,8048.64
859.336,7953.7
859.609,8011.24
859.882,8153.5
860.155,8190.46
860.428,8102.72
860.701,7974.3
860.974,8011.82
861.247,7889.64
861.52,7823.7
861.793,7802.56
862.066,7722.62
862.339,7621.9
862.612,7722.86
862.885,7684.04
863.158,7565.34
863.431,7558.56
863.704,7576.62
863.977,7548.62
864.25,7638.94
864.523,7696.32
864.796,7672.34
865.069,7665.32
865.342,7689.74
865.615,7553.38
865.888,7464.32
866.16,7487.04
866.433,7552.22
866.706,7448.62
866.979,7372.88
867.252,7361.18
867.525,7391.04
867.798,7407.54
868.07,7438.98
868.343,7376.36
868.616,7354.72
868.889,7410.58
869.162,7368.28
869.434,7337.72
869.707,7365.8
869.98,7412.66
870.253,7465.32
870.525,7474.16
870.798,7532.78
871.071,7526.38
871.344,7469.26
871.616,7445.16
871.889,7586.62
872.162,7713.78
872.434,7851.76
872.707,7915.24
872.98,7905.4
873.252,7913.94
873.525,7857.16
873.798,7771.4
874.07,7737.32
874.343,7620.16
874.615,7460.0
874.888,7398.62
875.161,7438.46
875.433,7392.28
875.706,7293.08
875.978,7226.42
876.251,7226.34
876.524,7118.72
876.796,7112.02
877.069,7147.78
877.341,7126.92
877.614,7066.7
877.886,7033.72
878.159,7047.86
878.431,7004.7
878.704,6989.44
878.976,6959.58
879.249,6957.74
879.521,7042.76
879.794,7106.72
880.066,6947.56
880.338,6952.46
880.611,6950.32
880.883,6927.08
881.156,6935.16
881.428,6912.76
881.7,6923.62
881.973,6930.1
882.245,6948.76
882.518,6972.8
882.79,6949.5
883.062,6962.18
883.335,6910.58
883.607,6868.84
883.879,6890.66
884.152,6877.28
884.424,6794.02
884.696,6795.2
884.968,6825.62
885.241,6856.14
885.513,6821.98
885.785,6905.46
886.058,6995.24
886.33,6915.58
886.602,6740.34
886.874,6664.26
887.146,6708.92
887.419,6652.46
887.691,6650.52
887.963,6706.92
888.235,6613.94
888.507,6621.34
888.78,6640.52
889.052,6600.78
889.324,6505.22
889.596,6527.4
889.868,6601.32
890.14,6622.16
890.412,6627.44
890.684,6586.2
890.957,6494.74
891.229,6492.68
891.501,6480.06
891.773,6559.56
892.045,6588.5
892.317,6589.24
892.589,6564.12
892.861,6489.92
893.133,6472.18
893.405,6430.18
893.677,6351.36
893.949,6351.18
894.221,6402.7
894.493,6412.38
894.765,6406.92
895.037,6395.34
895.309,6392.9
895.581,6399.52
895.853,6393.04
896.125,6326.6
896.397,6286.78
896.668,6321.44
896.94,6359.74
897.212,6401.74
897.484,6570.96
897.756,6877.42
898.028,7107.26
898.3,7279.74
898.571,7334.96
898.843,7323.52
899.115,7150.16
899.387,7007.38
899.659,6860.52
899.931,6686.88
900.202,6407.88
900.474,6206.94
900.746,6165.78
901.018,6101.78
901.289,6096.9
901.561,6091.14
901.833,6052.42
902.105,6049.9
902.376,6018.98
902.648,6040.32
902.92,6005.08
903.191,6027.24
903.463,6061.64
903.735,5994.54
904.006,5958.28
904.278,5992.5
904.55,6015.84
904.821,6001.78
905.093,6018.08
905.365,5964.7
905.636,5992.42
905.908,6060.84
906.179,6135.18
906.451,6226.8
906.722,6343.6
906.994,6500.4
907.266,6633.54
907.537,6650.82
907.809,6628.62
908.08,6644.22
908.352,6568.76
908.623,6493.7
908.895,6433.2
909.166,6266.04
909.438,6143.1
909.709,6060.24
909.981,5966.08
910.252,5909.66
910.523,5860.08
910.795,5809.36
911.066,5750.9
911.338,5677.68
911.609,5679.98
911.881,5693.96
912.152,5674.76
912.423,5670.94
912.695,5665.9
912.966,5661.06
913.237,5618.8
913.509,5609.02
913.78,5580.22
914.051,5546.82
914.323,5549.14
914.594,5549.2
914.865,5504.38
915.136,5482.08
915.408,5488.28
915.679,5469.96
915.95,5499.44
916.221,5518.28
916.493,5514.06
916.764,5457.6
917.035,5400.26
917.306,5459.02
917.578,5479.84
917.849,5416.2
918.12,5404.86
918.391,5388.48
918.662,5411.3
918.933,5403.54
919.204,5362.02
919.476,5313.06
919.747,5313.46
920.018,5316.18
920.289,5275.8
920.56,5321.56
920.831,5329.88
921.102,5257.34
921.373,5268.42
921.644,5259.18
921.915,5226.4
922.186,5247.4
922.457,5243.96
922.728,5227.92
922.999,5230.78
923.27,5225.26
923.541,5204.64
923.812,5185.98
924.083,5163.1
924.354,5186.96
924.625,5164.26
924.896,5165.56
925.167,5150.34
925.438,5134.18
925.709,5123.7
925.98,5105.58
926.251,5076.2
926.522,5073.24
926.792,5081.52
927.063,5072.8
927.334,5054.42
927.605,5012.52
927.876,5000.78
928.147,5021.92
928.417,5047.64
928.688,5014.12
928.959,5024.38
929.23,5008.6
929.501,4992.14
929.771,4984.48
930.042,4975.6
930.313,4941.16
930.584,4925.26
930.854,4918.62
931.125,4914.18
931.396,4917.38
931.666,4923.42
931.937,4904.32
932.208,4892.9
932.478,4871.4
932.749,4873.1
933.02,4862.72
933.29,4866.9
933.561,4875.64
933.832,4857.06
934.102,4853.36
934.373,4818.76
934.643,4799.68
934.914,4815.16
935.184,4812.02
935.455,4816.08
935.726,4764.68
935.996,4763.56
936.267,4765.56
936.537,4762.18
936.808,4759.44
937.078,4735.96
937.349,4715.48
937.619,4716.48
937.89,4716.2
938.16,4727.62
938.43,4737.04
938.701,4720.68
938.971,4691.46
939.242,4673.84
939.512,4674.22
939.782,4660.78
940.053,4644.28
940.323,4665.26
940.594,4672.1
940.864,4668.6
941.134,4655.32
941.405,4641.0
941.675,4641.5
941.945,4633.42
942.216,4609.56
942.486,4600.92
942.756,4597.48
943.026,4590.5
943.297,4595.04
943.567,4589.24
943.837,4568.46
944.107,4564.1
944.378,4573.54
944.648,4551.16
944.918,4550.0
945.188,4544.96
945.458,4533.84
945.729,4534.14
945.999,4517.98
946.269,4527.06
946.539,4525.96
946.809,4521.1
947.079,4487.74
947.349,4477.46
947.62,4473.16
947.89,4488.3
948.16,4491.9
948.43,4498.24
948.7,4492.44
948.97,4469.3
949.24,4457.64
949.51,4459.06
949.78,4460.94
950.05,4443.28
950.32,4426.38
950.59,4420.68
950.86,4418.86
951.13,4424.52
951.4,4429.7
951.67,4411.46
951.94,4402.66
952.21,4398.82
952.48,4384.88
952.75,4406.72
953.02,4395.1
953.289,4388.62
953.559,4389.32
953.829,4390.44
954.099,4371.44
954.369,4347.38
954.639,4339.04
954.909,4341.72
955.178,4337.38
955.448,4336.36
955.718,4326.38
955.988,4331.58
956.257,4340.32
956.527,4331.9
956.797,4330.12
957.067,4319.78
957.336,4315.14
957.606,4309.26
957.876,4311.12
958.146,4295.92
958.415,4280.7
958.685,4288.64
958.955,4293.84
959.224,4297.1
959.494,4287.74
959.764,4278.94
960.033,4279.94
960.303,4270.26
960.572,4262.7
960.842,4247.62
961.112,4247.06
961.381,4250.76
961.651,4249.48
961.92,4249.06
962.19,4249.24
962.459,4251.76
962.729,4245.56
962.998,4224.36
963.268,4210.18
963.537,4206.64
963.807,4205.4
964.076,4204.8
964.346,4202.72
964.615,4200.14
964.885,4205.72
965.154,4211.18
965.424,4213.52
965.693,4205.16
965.962,4196.56
966.232,4178.82
966.501,4167.28
966.771,4173.3
967.04,4179.58
967.309,4188.04
967.579,4178.6
967.848,4166.7
968.117,4155.32
968.387,4154.54
968.656,4151.82
968.925,4149.7
969.194,4150.0
969.464,4157.3
969.733,4151.5
970.002,4139.28
970.271,4132.9
970.541,4131.36
970.81,4134.84
971.079,4139.48
971.348,4131.2
971.617,4125.16
971.887,4125.4
972.156,4119.16
972.425,4115.06
972.694,4109.42
972.963,4115.74
973.232,4112.92
973.501,4112.88
973.77,4104.56
974.04,4088.3
974.309,4080.4
974.578,4089.78
974.847,4097.72
975.116,4094.06
975.385,4090.56
975.654,4090.0
975.923,4087.38
976.192,4092.74
976.461,4092.42
976.73,4078.1
976.999,4060.46
977.268,4060.96
977.537,4056.66
977.806,4062.04
978.074,4063.7
978.343,4063.2
978.612,4060.08
978.881,4053.1
979.15,4046.52
979.419,4042.84
979.688,4044.78
979.957,4041.84
980.225,4047.2
980.494,4042.92
980.763,4042.1
981.032,4043.08
981.301,4038.44
981.569,4036.1
981.838,4030.56
982.107,4027.1
982.376,4027.2
982.644,4018.3
982.913,4012.28
983.182,4008.98
983.451,4005.06
983.719,4013.94
983.988,4018.94
984.257,4017.76
984.525,4009.64
984.794,4001.76
985.063,4002.66
985.331,4003.52
985.6,3997.66
985.868,3999.44
986.137,4001.4
986.406,3995.26
986.674,3992.54
986.943,3990.18
987.211,3988.9
987.48,3987.4
987.748,3982.24
988.017,3985.64
988.285,3991.48
988.554,3989.9
988.822,3982.24
989.091,3972.86
989.359,3973.72
989.628,3972.74
989.896,3972.16
990.164,3970.54
990.433,3969.64
990.701,3971.78
990.97,3964.42
991.238,3958.02
991.506,3953.08
991.775,3952.14
992.043,3954.54
992.311,3955.26
992.58,3950.28
992.848,3953.98
993.116,3947.16
993.385,3949.52
993.653,3946.44
993.921,3942.64
994.19,3940.18
994.458,3936.26
994.726,3936.84
994.994,3938.88
995.262,3938.86
995.531,3940.26
995.799,3935.84
996.067,3935.56
996.335,3928.1
996.603,3927.42
996.872,3926.88
997.14,3924.42
997.408,3918.22
997.676,3918.68
997.944,3918.52
998.212,3921.98
998.48,3920.66
998.748,3918.82
999.016,3916.2
999.284,3910.64
999.552,3911.34
999.82,3909.28
1000.09,3911.36
1000.36,3909.56
1000.62,3911.44
1000.89,3908.8
1001.16,3904.36
1001.43,3904.2
1001.7,3905.32
1001.96,3903.66
1002.23,3903.06
1002.5,3898.46
1002.77,3894.92
1003.04,3898.1
1003.3,3897.98
1003.57,3899.74
1003.84,3897.28
1004.11,3894.44
1004.38,3889.6
1004.64,3888.84
1004.91,3891.4
1005.18,3888.16
1005.45,3884.86
1005.71,3880.88
1005.98,3881.1
1006.25,3880.96
1006.52,3881.02
1006.79,3878.58
1007.05,3876.42
1007.32,3875.74
1007.59,3874.54
1007.86,3876.16
1008.12,3879.1
1008.39,3876.54
1008.66,3874.74
1008.93,3870.72
1009.19,3868.8
1009.46,3868.42
1009.73,3870.48
1010.0,3864.86
1010.26,3866.32
1010.53,3866.1
1010.8,3861.86
1011.07,3865.08
1011.33,3862.08
1011.6,3860.98
1011.87,3858.5
1012.14,3857.34
1012.4,3855.86
1012.67,3857.06
1012.94,3855.68
1013.21,3855.46
1013.47,3855.76
1013.74,3857.06
1014.01,3856.38
1014.28,3853.98
1014.54,3853.92
1014.81,3854.98
1015.08,3853.54
1015.35,3853.24
1015.61,3853.46
1015.88,3852.08
1016.15,3850.72
1016.42,3850.88
1016.68,3853.68
1016.95,3854.16
1017.22,3851.5
1017.48,3850.38
1017.75,3847.62
1018.02,3844.44
1018.29,3844.82
1018.55,3843.92
1018.82,3845.82
1019.09,3844.0
1019.36,3842.68
1019.62,3842.92
1019.89,3841.2
1020.16,3842.76
1020.42,3841.62
1020.69,3841.06
1020.96,3844.38
1021.23,3844.16
1021.49,3846.38
1021.76,3847.54
1022.03,3848.5
1022.29,3847.96
1022.56,3850.68
1022.83,3848.04
1023.09,3851.2
1023.36,3850.42
1023.63,3848.62
1023.9,3848.56
1024.16,3847.16
1024.43,3843.58
1024.7,3841.74
1024.96,3841.36
1025.23,3836.42
1025.5,3834.96
1025.76,3833.36
1026.03,3831.8
1026.3,3828.92
1026.56,3827.92
1026.83,3829.06
1027.1,3829.26
1027.37,3825.88
1027.63,3825.36
1027.9,3825.98
1028.17,3822.28
1028.43,3820.1
1028.7,3817.12
1028.97,3818.0
1029.23,3818.2
1029.5,3816.34
1029.77,3815.52
1030.03,3814.54
1030.3,3813.34
1030.57,3813.5
1030.83,3812.44
1031.1,3812.04
1031.37,3812.92
1031.63,3811.24
1031.9,3812.0
1032.17,3811.78
1032.43,3808.68
1032.7,3811.62
1032.97,3812.2
1033.23,3812.14
1033.5,3812.74
1033.77,3815.6
1034.03,3815.64
1034.3,3815.38
1034.57,3814.3
1034.83,3817.26
1035.1,3815.8
1035.36,3818.18
1035.63,3817.58
1035.9,3817.7
1036.16,3815.82
1036.43,3814.56
1036.7,3812.98
1036.96,3811.72
1037.23,3811.2
1037.5,3808.9
1037.76,3806.96
1038.03,3805.12
1038.3,3803.5
1038.56,3802.34
1038.83,3801.46
1039.09,3801.82
1039.36,3799.48
1039.63,3800.24
1039.89,3798.12
1040.16,3799.64
1040.43,3797.92
1040.69,3797.68
1040.96,3796.32
1041.22,3797.22
1041.49,3796.1
1041.76,3796.08
1042.02,3794.66
1042.29,3796.2
1042.55,3794.98
1042.82,3795.46
1043.09,3794.0
1043.35,3794.14
1043.62,3793.28
1043.89,3794.08
1044.15,3792.9
1044.42,3794.0
1044.68,3792.0
1044.95,3792.72
1045.22,3792.14
1045.48,3791.32
1045.75,3791.1
1046.01,3790.24
1046.28,3791.26
1046.55,3790.08
1046.81,3790.94
1047.08,3791.38
1047.34,3791.32
1047.61,3789.72
1047.88,3789.26
1048.14,3790.24
1048.41,3789.44
1048.67,3789.04
1048.94,3789.68
1049.2,3788.84
1049.47,3789.02
1049.74,3787.94
1050.0,3787.76
1050.27,3787.32
1050.53,3787.1
1050.8,3788.58
1051.06,3789.0
1051.33,3788.1
1051.6,3787.68
1051.86,3788.5
1052.13,3787.54
1052.39,3788.38
1052.66,3786.96
1052.92,3787.24
1053.19,3787.38
1053.46,3786.88
1053.72,3787.54
1053.99,3787.18
1054.25,3787.68
1054.52,3786.58
1054.78,3786.42
1055.05,3787.14
1055.32,3786.52
1055.58,3787.66
1055.85,3785.2
1056.11,3785.32
1056.38,3784.66
1056.64,3785.04
1056.91,3784.96
1057.17,3786.12
1057.44,3785.28
1057.7,3785.38
1057.97,3784.96
1058.24,3785.48
1058.5,3784.46
1058.77,3784.62
1059.03,3783.94
1059.3,3785.02
1059.56,3784.66
1059.83,3784.96
1060.09,3784.66
1060.36,3784.3
1060.62,3784.88
1060.89,3784.0
1061.15,3784.84
1061.42,3784.64
1061.68,3783.16
1061.95,3784.08
1062.22,3784.12
1062.48,3784.18
1062.75,3782.8
1063.01,3783.42
1063.28,3783.18
1063.54,3783.48
1063.81,3783.74
1064.07,3783.38
1064.34,3783.22
1064.6,3783.16
1064.87,3782.1
1065.13,3782.46
1065.4,3782.94
1065.66,3783.28
1065.93,3781.78
1066.19,3782.26
1066.46,3781.68
1066.72,3782.54
1066.99,3782.14
1067.25,3781.76
1067.52,3781.64
1067.78,3781.38
1068.05,3780.66