File: spectra/VLFR_02-HDPE_bio_Raman_a6e1b635.csv
nm,Intensity
528.626,1870.5
528.795,1868.3
528.963,1870.3
529.132,1868.4
529.3,1868.5
529.469,1869.3
529.637,1868.7
529.806,1868.6
529.974,1868.0
530.143,1867.1
530.311,1868.4
530.48,1866.5
530.648,1868.9
530.816,1868.1
530.985,1869.5
531.153,1870.1
531.322,1868.6
531.49,1874.5
531.658,1888.5
531.827,2185.7
531.995,3369.0
532.164,3199.1
532.332,2018.1
532.5,1870.0
532.669,1868.6
532.837,1870.0
533.006,1869.4
533.174,1870.3
533.342,1868.8
533.511,1878.3
533.679,1925.4
533.847,2014.1
534.016,2102.7
534.184,2124.6
534.352,2126.5
534.521,2123.8
534.689,2127.0
534.857,2149.9
535.025,2151.6
535.194,2123.5
535.362,2121.1
535.53,2082.5
535.699,2080.3
535.867,2070.6
536.035,2062.6
536.203,2044.7
536.372,2050.8
536.54,2044.6
536.708,2044.2
536.876,2034.8
537.044,2040.0
537.213,2046.7
537.381,2048.4
537.549,2050.5
537.717,2046.9
537.885,2042.4
538.054,2044.6
538.222,2035.9
538.39,2043.3
538.558,2048.7
538.726,2042.8
538.894,2030.3
539.063,2030.2
539.231,2026.0
539.399,2027.0
539.567,2021.1
539.735,2033.0
539.903,2026.1
540.071,2027.8
540.239,2016.5
540.408,2025.7
540.576,2023.0
540.744,2031.8
540.912,2027.4
541.08,2034.9
541.248,2024.9
541.416,2032.7
541.584,2034.7
541.752,2034.5
541.92,2032.3
542.088,2034.2
542.256,2037.4
542.424,2045.5
542.592,2035.5
542.76,2043.5
542.928,2026.0
543.096,2039.2
543.264,2029.0
543.432,2037.7
543.6,2036.9
543.768,2038.2
543.936,2044.1
544.104,2044.6
544.272,2035.6
544.44,2039.1
544.608,2026.1
544.776,2038.4
544.944,2051.9
545.112,2041.9
545.28,2047.3
545.448,2042.2
545.616,2039.8
545.784,2063.6
545.951,2060.9
546.119,2065.0
546.287,2058.4
546.455,2056.3
546.623,2051.4
546.791,2054.7
546.959,2051.2
547.127,2050.1
547.294,2056.8
547.462,2039.2
547.63,2042.5
547.798,2046.0
547.966,2049.3
548.134,2045.3
548.301,2048.5
548.469,2046.9
548.637,2044.2
548.805,2044.7
548.972,2043.5
549.14,2048.4
549.308,2048.9
549.476,2053.1
549.644,2038.3
549.811,2046.8
549.979,2054.0
550.147,2058.1
550.315,2041.6
550.482,2055.6
550.65,2068.6
550.818,2060.1
550.985,2065.8
551.153,2058.4
551.321,2046.1
551.488,2060.7
551.656,2061.3
551.824,2067.8
551.991,2066.7
552.159,2060.9
552.327,2056.8
552.494,2055.8
552.662,2050.1
552.83,2047.7
552.997,2065.8
553.165,2072.0
553.333,2063.5
553.5,2063.8
553.668,2065.5
553.835,2057.0
554.003,2070.1
554.171,2065.6
554.338,2075.2
554.506,2061.2
554.673,2072.8
554.841,2064.3
555.008,2077.5
555.176,2066.2
555.343,2078.2
555.511,2076.5
555.679,2080.6
555.846,2078.2
556.014,2080.1
556.181,2080.4
556.349,2065.2
556.516,2074.7
556.684,2083.3
556.851,2077.9
557.018,2078.2
557.186,2080.3
557.353,2081.3
557.521,2086.6
557.688,2076.4
557.856,2103.1
558.023,2093.4
558.191,2096.9
558.358,2097.5
558.525,2092.7
558.693,2080.2
558.86,2085.7
559.028,2083.5
559.195,2088.7
559.362,2088.3
559.53,2085.1
559.697,2086.7
559.864,2096.5
560.032,2081.2
560.199,2084.5
560.366,2092.9
560.534,2100.8
560.701,2086.8
560.868,2096.7
561.036,2092.4
561.203,2099.2
561.37,2085.3
561.538,2083.6
561.705,2105.1
561.872,2118.7
562.039,2151.6
562.207,2191.0
562.374,2223.4
562.541,2206.4
562.708,2163.5
562.876,2136.3
563.043,2115.1
563.21,2111.7
563.377,2120.3
563.545,2138.8
563.712,2209.8
563.879,2363.1
564.046,2454.7
564.213,2314.6
564.38,2177.7
564.548,2171.3
564.715,2175.0
564.882,2165.9
565.049,2151.4
565.216,2137.9
565.383,2144.4
565.551,2142.4
565.718,2154.5
565.885,2242.7
566.052,2411.9
566.219,2488.5
566.386,2295.1
566.553,2166.8
566.72,2131.6
566.887,2136.0
567.054,2129.9
567.221,2146.1
567.388,2177.7
567.555,2177.0
567.722,2148.4
567.889,2118.7
568.057,2113.1
568.224,2118.7
568.391,2105.1
568.558,2109.8
568.725,2107.2
568.892,2109.0
569.058,2117.5
569.225,2129.2
569.392,2125.7
569.559,2125.4
569.726,2116.2
569.893,2115.3
570.06,2119.3
570.227,2126.8
570.394,2137.4
570.561,2134.5
570.728,2141.7
570.895,2140.2
571.062,2161.4
571.229,2231.1
571.395,2522.1
571.562,2768.1
571.729,2503.1
571.896,2259.7
572.063,2200.1
572.23,2172.0
572.397,2152.0
572.563,2150.1
572.73,2126.4
572.897,2138.6
573.064,2133.7
573.231,2121.5
573.397,2136.4
573.564,2146.7
573.731,2143.7
573.898,2153.6
574.064,2154.2
574.231,2145.7
574.398,2128.3
574.565,2132.1
574.731,2119.5
574.898,2133.2
575.065,2131.7
575.232,2180.3
575.398,2284.2
575.565,2369.2
575.732,2332.2
575.898,2296.7
576.065,2416.5
576.232,2534.9
576.398,2550.5
576.565,2478.1
576.732,2414.3
576.898,2395.8
577.065,2400.5
577.232,2349.6
577.398,2251.0
577.565,2213.6
577.731,2188.1
577.898,2179.3
578.065,2161.3
578.231,2159.9
578.398,2158.9
578.564,2165.1
578.731,2154.4
578.897,2158.0
579.064,2148.5
579.23,2154.1
579.397,2164.3
579.563,2169.1
579.73,2157.5
579.896,2162.8
580.063,2160.5
580.229,2194.1
580.396,2173.6
580.562,2174.1
580.729,2175.5
580.895,2180.5
581.062,2175.9
581.228,2176.1
581.395,2187.2
581.561,2187.4
581.728,2187.6
581.894,2184.8
582.06,2192.4
582.227,2194.3
582.393,2188.8
582.56,2186.9
582.726,2193.4
582.892,2189.2
583.059,2202.3
583.225,2188.9
583.391,2208.9
583.558,2215.4
583.724,2209.0
583.89,2216.6
584.057,2222.3
584.223,2220.0
584.389,2220.2
584.556,2217.1
584.722,2231.1
584.888,2224.3
585.054,2221.4
585.221,2228.0
585.387,2222.2
585.553,2239.9
585.719,2231.2
585.886,2241.7
586.052,2243.5
586.218,2242.7
586.384,2250.6
586.55,2258.8
586.717,2252.5
586.883,2258.0
587.049,2270.9
587.215,2271.6
587.381,2271.0
587.548,2300.2
587.714,2295.4
587.88,2293.8
588.046,2283.3
588.212,2294.4
588.378,2299.4
588.544,2288.3
588.71,2311.0
588.876,2291.2
589.043,2301.9
589.209,2291.0
589.375,2325.8
589.541,2309.7
589.707,2327.2
589.873,2338.4
590.039,2327.0
590.205,2334.1
590.371,2340.4
590.537,2343.4
590.703,2350.7
590.869,2372.4
591.035,2372.2
591.201,2385.2
591.367,2387.5
591.533,2388.1
591.699,2382.8
591.865,2383.6
592.031,2408.5
592.197,2413.6
592.363,2394.7
592.529,2409.9
592.694,2440.8
592.86,2427.3
593.026,2435.8
593.192,2431.7
593.358,2436.9
593.524,2444.5
593.69,2434.7
593.856,2445.2
594.021,2469.0
594.187,2427.1
594.353,2467.3
594.519,2474.6
594.685,2457.1
594.851,2470.0
595.016,2499.6
595.182,2503.9
595.348,2513.5
595.514,2509.2
595.68,2504.9
595.845,2546.3
596.011,2529.2
596.177,2545.5
596.342,2540.7
596.508,2551.5
596.674,2579.3
596.84,2586.4
597.005,2545.8
597.171,2588.2
597.337,2596.0
597.502,2589.6
597.668,2614.8
597.834,2597.6
597.999,2612.1
598.165,2613.2
598.331,2627.7
598.496,2617.1
598.662,2624.8
598.828,2657.8
598.993,2657.2
599.159,2664.1
599.324,2668.4
599.49,2682.6
599.656,2680.0
599.821,2645.1
599.987,2689.4
600.152,2698.8
600.318,2655.0
600.483,2681.5
600.649,2690.6
600.814,2702.2
600.98,2708.4
601.145,2691.1
601.311,2706.6
601.476,2711.7
601.642,2709.0
601.807,2711.3
601.973,2717.7
602.138,2703.7
602.304,2732.4
602.469,2710.9
602.635,2694.2
602.8,2691.2
602.965,2715.1
603.131,2714.2
603.296,2697.0
603.462,2696.2
603.627,2708.6
603.792,2718.8
603.958,2677.1
604.123,2695.3
604.288,2708.4
604.454,2683.5
604.619,2660.0
604.784,2679.3
604.95,2680.7
605.115,2674.3
605.28,2664.5
605.446,2655.6
605.611,2645.6
605.776,2644.0
605.941,2646.8
606.107,2632.7
606.272,2624.3
606.437,2634.2
606.602,2605.8
606.767,2579.2
606.933,2610.8
607.098,2626.5
607.263,2582.3
607.428,2619.1
607.593,2593.4
607.759,2559.3
607.924,2590.5
608.089,2590.4
608.254,2563.9
608.419,2564.9
608.584,2567.0
608.749,2569.1
608.915,2577.2
609.08,2542.4
609.245,2557.0
609.41,2549.2
609.575,2537.3
609.74,2532.7
609.905,2520.3
610.07,2531.8
610.235,2515.8
610.4,2527.2
610.565,2519.1
610.73,2519.2
610.895,2525.7
611.06,2520.9
611.225,2537.1
611.39,2505.2
611.555,2511.4
611.72,2497.5
611.885,2496.4
612.05,2491.2
612.215,2476.2
612.38,2505.4
612.545,2493.7
612.71,2481.0
612.875,2480.2
613.04,2487.0
613.204,2463.1
613.369,2465.2
613.534,2452.0
613.699,2470.8
613.864,2480.1
614.029,2451.5
614.194,2476.7
614.358,2460.7
614.523,2436.0
614.688,2449.1
614.853,2449.6
615.018,2462.5
615.182,2457.8
615.347,2439.4
615.512,2457.2
615.677,2445.2
615.841,2434.5
616.006,2441.8
616.171,2431.4
616.336,2418.2
616.5,2432.8
616.665,2425.0
616.83,2424.3
616.994,2444.2
617.159,2426.2
617.324,2455.0
617.489,2461.1
617.653,2442.4
617.818,2443.6
617.982,2475.3
618.147,2437.9
618.312,2431.7
618.476,2427.0
618.641,2450.5
618.805,2421.6
618.97,2431.5
619.135,2424.9
619.299,2434.9
619.464,2421.0
619.628,2438.0
619.793,2456.1
619.957,2428.8
620.122,2430.7
620.286,2439.0
620.451,2424.5
620.615,2447.6
620.78,2456.0
620.944,2425.4
621.109,2444.0
621.273,2459.9
621.438,2485.6
621.602,2494.3
621.767,2515.4
621.931,2539.3
622.095,2605.3
622.26,2586.1
622.424,2570.1
622.589,2511.0
622.753,2463.6
622.917,2463.5
623.082,2430.5
623.246,2403.4
623.41,2389.4
623.575,2380.3
623.739,2377.9
623.903,2373.9
624.068,2395.0
624.232,2379.4
624.396,2352.4
624.561,2364.5
624.725,2364.7
624.889,2355.9
625.053,2392.1
625.218,2372.8
625.382,2375.2
625.546,2393.4
625.71,2400.7
625.875,2423.9
626.039,2445.3
626.203,2505.3
626.367,2612.6
626.531,2864.7
626.695,3295.3
626.86,4040.0
627.024,4690.0
627.188,5226.0
627.352,5042.5
627.516,4571.4
627.68,4188.5
627.844,4001.1
628.008,4009.1
628.172,4235.1
628.337,4961.8
628.501,5387.6
628.665,4926.6
628.829,4044.2
628.993,3719.8
629.157,3600.9
629.321,3516.7
629.485,3367.7
629.649,3279.9
629.813,3125.6
629.977,3089.7
630.141,3043.5
630.305,3039.3
630.469,3013.2
630.633,2902.7
630.797,2745.5
630.96,2639.0
631.124,2506.8
631.288,2445.4
631.452,2391.8
631.616,2343.8
631.78,2342.1
631.944,2323.9
632.108,2293.4
632.272,2294.9
632.435,2309.3
632.599,2298.8
632.763,2286.1
632.927,2278.1
633.091,2277.5
633.254,2281.4
633.418,2261.3
633.582,2275.3
633.746,2249.0
633.91,2273.0
634.073,2259.4
634.237,2250.6
634.401,2241.0
634.564,2239.4
634.728,2250.6
634.892,2248.6
635.056,2243.0
635.219,2236.3
635.383,2221.4
635.547,2224.2
635.71,2242.8
635.874,2232.9
636.038,2236.6
636.201,2221.0
636.365,2220.3
636.528,2226.3
636.692,2223.8
636.856,2232.5
637.019,2204.7
637.183,2214.8
637.346,2210.9
637.51,2222.3
637.673,2215.0
637.837,2208.2
638.0,2204.4
638.164,2200.0
638.327,2217.7
638.491,2207.5
638.654,2201.4
638.818,2202.4
638.981,2212.4
639.145,2200.5
639.308,2215.6
639.472,2214.1
639.635,2197.8
639.799,2185.1
639.962,2180.1
640.125,2193.9
640.289,2195.6
640.452,2200.7
640.616,2201.6
640.779,2192.3
640.942,2189.6
641.106,2193.7
641.269,2204.1
641.432,2198.9
641.596,2199.3
641.759,2185.4
641.922,2184.3
642.085,2200.6
642.249,2209.9
642.412,2194.7
642.575,2197.8
642.738,2184.0
642.902,2198.8
643.065,2200.9
643.228,2192.6
643.391,2188.7
643.555,2185.3
643.718,2191.8
643.881,2174.7
644.044,2200.8
644.207,2188.7
644.37,2200.9
644.534,2220.3
644.697,2199.5
644.86,2191.3
645.023,2186.0
645.186,2179.0
645.349,2198.5
645.512,2195.0
645.675,2197.6
645.838,2179.1
646.001,2180.0
646.164,2182.9
646.327,2186.7
646.49,2186.1
646.653,2178.7
646.816,2199.7
646.979,2183.2
647.142,2176.3
647.305,2189.0
647.468,2176.3
647.631,2180.7
647.794,2182.2
647.957,2169.3
648.12,2181.3
648.283,2176.8
648.446,2185.6
648.609,2198.4
648.772,2176.2
648.935,2180.6
649.098,2168.2
649.26,2178.5
649.423,2167.6
649.586,2177.0
649.749,2164.9
649.912,2180.6
650.075,2186.7
650.237,2176.4
650.4,2169.4
650.563,2173.7
650.726,2189.1
650.888,2182.5
651.051,2192.5
651.214,2169.4
651.377,2160.5
651.539,2170.0
651.702,2160.6
651.865,2172.3
652.027,2161.3
652.19,2158.6
652.353,2167.5
652.515,2156.0
652.678,2161.5
652.841,2157.0
653.003,2153.8
653.166,2156.3
653.329,2159.5
653.491,2143.8
653.654,2154.7
653.816,2148.4
653.979,2148.7
654.142,2150.9
654.304,2153.1
654.467,2148.9
654.629,2131.5
654.792,2147.1
654.954,2158.5
655.117,2151.7
655.279,2158.6
655.442,2142.0
655.604,2151.4
655.767,2139.3
655.929,2133.8
656.091,2126.8
656.254,2110.5
656.416,2120.6
656.579,2128.3
656.741,2127.7
656.904,2117.2
657.066,2129.5
657.228,2141.9
657.391,2128.6
657.553,2122.7
657.715,2126.4
657.878,2118.8
658.04,2122.1
658.202,2131.3
658.365,2120.5
658.527,2117.3
658.689,2111.8
658.851,2103.4
659.014,2097.6
659.176,2130.9
659.338,2104.1
659.5,2103.1
659.663,2107.9
659.825,2105.0
659.987,2099.6
660.149,2096.0
660.311,2104.7
660.474,2099.8
660.636,2103.4
660.798,2099.2
660.96,2086.1
661.041,2096.7