File: spectra/VLFR_01-LDPE_bio_Raman_d6447f85.csv
nm,Intensity
528.65,1854.45
528.819,1855.3
528.987,1855.0
529.155,1854.6
529.324,1855.6
529.492,1855.0
529.66,1856.1
529.829,1855.8
529.997,1853.85
530.165,1854.55
530.334,1854.9
530.502,1854.1
530.67,1854.15
530.839,1855.4
531.007,1855.35
531.175,1856.2
531.344,1858.75
531.512,1861.35
531.68,1890.95
531.848,2278.75
532.017,3312.55
532.185,3008.9
532.353,1983.6
532.521,1858.85
532.69,1855.25
532.858,1856.45
533.026,1856.45
533.194,1854.95
533.363,1857.4
533.531,1869.7
533.699,1939.95
533.867,2062.7
534.036,2150.05
534.204,2158.2
534.372,2146.15
534.54,2135.15
534.708,2145.1
534.877,2136.85
535.045,2121.55
535.213,2137.65
535.381,2115.65
535.549,2108.65
535.717,2110.9
535.886,2114.7
536.054,2093.45
536.222,2090.6
536.39,2080.9
536.558,2071.7
536.726,2070.85
536.894,2073.2
537.062,2077.2
537.231,2092.45
537.399,2088.55
537.567,2075.7
537.735,2074.05
537.903,2075.95
538.071,2071.05
538.239,2069.2
538.407,2063.9
538.575,2072.75
538.743,2074.45
538.911,2071.95
539.079,2079.2
539.247,2068.85
539.415,2067.65
539.583,2054.05
539.751,2048.7
539.919,2050.55
540.087,2036.9
540.255,2042.5
540.423,2044.7
540.591,2040.5
540.759,2050.45
540.927,2050.2
541.095,2045.35
541.263,2052.75
541.431,2043.55
541.599,2045.45
541.767,2044.0
541.935,2046.9
542.103,2039.6
542.271,2039.25
542.439,2045.7
542.607,2056.75
542.775,2056.2
542.943,2057.05
543.111,2045.15
543.279,2048.95
543.446,2049.75
543.614,2046.05
543.782,2062.1
543.95,2089.4
544.118,2105.8
544.286,2076.7
544.454,2053.2
544.622,2049.05
544.789,2049.4
544.957,2040.4
545.125,2047.35
545.293,2053.05
545.461,2051.85
545.629,2058.75
545.796,2062.4
545.964,2082.15
546.132,2122.2
546.3,2220.5
546.468,2286.2
546.635,2220.1
546.803,2113.9
546.971,2075.0
547.139,2064.95
547.306,2054.2
547.474,2061.9
547.642,2053.3
547.81,2058.7
547.977,2057.25
548.145,2057.35
548.313,2055.9
548.481,2066.15
548.648,2058.0
548.816,2059.85
548.984,2066.95
549.151,2061.35
549.319,2065.0
549.487,2075.8
549.655,2076.9
549.822,2075.5
549.99,2081.9
550.158,2093.35
550.325,2101.2
550.493,2084.8
550.66,2067.55
550.828,2061.9
550.996,2063.7
551.163,2057.9
551.331,2064.8
551.499,2068.1
551.666,2067.2
551.834,2069.15
552.001,2076.0
552.169,2064.15
552.337,2057.35
552.504,2060.6
552.672,2062.25
552.839,2062.55
553.007,2060.2
553.174,2074.35
553.342,2073.95
553.509,2068.85
553.677,2074.4
553.844,2072.7
554.012,2072.95
554.179,2080.1
554.347,2076.1
554.514,2080.25
554.682,2082.85
554.849,2078.35
555.017,2087.6
555.184,2088.15
555.352,2078.2
555.519,2087.75
555.687,2081.45
555.854,2084.75
556.022,2094.85
556.189,2101.55
556.357,2099.5
556.524,2102.85
556.691,2101.6
556.859,2105.8
557.026,2105.6
557.194,2100.55
557.361,2100.05
557.528,2115.9
557.696,2108.55
557.863,2118.65
558.031,2116.75
558.198,2129.9
558.365,2125.8
558.533,2130.65
558.7,2133.7
558.867,2117.05
559.035,2118.1
559.202,2117.0
559.369,2106.2
559.537,2110.55
559.704,2119.55
559.871,2111.3
560.038,2116.7
560.206,2109.5
560.373,2099.8
560.54,2111.1
560.708,2111.0
560.875,2107.45
561.042,2117.85
561.209,2124.95
561.377,2134.8
561.544,2143.1
561.711,2172.3
561.878,2236.6
562.045,2567.25
562.213,3087.65
562.38,3179.1
562.547,2473.15
562.714,2212.3
562.881,2173.1
563.049,2165.55
563.216,2166.85
563.383,2170.25
563.55,2191.05
563.717,2245.8
563.884,2398.7
564.052,2456.25
564.219,2342.25
564.386,2252.2
564.553,2248.7
564.72,2245.4
564.887,2231.65
565.054,2213.45
565.221,2202.1
565.388,2198.2
565.556,2204.5
565.723,2248.65
565.89,2325.15
566.057,2499.35
566.224,2493.05
566.391,2371.5
566.558,2306.5
566.725,2250.85
566.892,2210.3
567.059,2203.15
567.226,2194.0
567.393,2204.35
567.56,2195.8
567.727,2175.75
567.894,2174.75
568.061,2177.45
568.228,2157.9
568.395,2166.75
568.562,2187.6
568.729,2179.6
568.896,2169.1
569.063,2179.55
569.23,2188.6
569.396,2190.55
569.563,2191.45
569.73,2186.25
569.897,2195.85
570.064,2191.75
570.231,2214.6
570.398,2212.4
570.565,2240.25
570.732,2234.3
570.898,2253.6
571.065,2260.0
571.232,2374.75
571.399,2613.6
571.566,2814.55
571.733,2611.1
571.9,2411.0
572.066,2355.15
572.233,2305.1
572.4,2287.15
572.567,2270.7
572.734,2259.95
572.9,2256.4
573.067,2253.8
573.234,2251.7
573.401,2242.7
573.567,2265.15
573.734,2262.5
573.901,2278.5
574.068,2280.45
574.234,2253.5
574.401,2248.0
574.568,2247.9
574.734,2238.9
574.901,2250.8
575.068,2257.6
575.235,2293.2
575.401,2412.6
575.568,2474.25
575.735,2486.75
575.901,2517.9
576.068,2657.25
576.235,2809.8
576.401,2787.25
576.568,2668.35
576.734,2653.95
576.901,2628.9
577.068,2595.8
577.234,2537.25
577.401,2435.8
577.567,2382.4
577.734,2351.9
577.901,2359.9
578.067,2339.1
578.234,2338.5
578.4,2354.3
578.567,2334.15
578.733,2365.0
578.9,2383.8
579.066,2364.15
579.233,2380.5
579.399,2385.95
579.566,2389.8
579.732,2413.55
579.899,2407.8
580.065,2409.25
580.232,2422.85
580.398,2454.35
580.565,2440.55
580.731,2430.1
580.898,2484.05
581.064,2456.95
581.231,2494.25
581.397,2505.85
581.563,2493.0
581.73,2501.6
581.896,2513.4
582.063,2539.05
582.229,2510.65
582.395,2531.45
582.562,2555.3
582.728,2535.0
582.895,2545.75
583.061,2575.8
583.227,2583.9
583.394,2583.75
583.56,2555.65
583.726,2587.95
583.893,2608.75
584.059,2620.55
584.225,2617.65
584.391,2653.45
584.558,2654.5
584.724,2655.05
584.89,2646.35
585.057,2636.4
585.223,2674.15
585.389,2692.45
585.555,2697.05
585.722,2712.2
585.888,2716.7
586.054,2703.55
586.22,2737.3
586.386,2770.25
586.553,2784.95
586.719,2779.3
586.885,2792.95
587.051,2815.5
587.217,2809.5
587.384,2834.2
587.55,2885.5
587.716,2827.7
587.882,2850.35
588.048,2864.05
588.214,2894.5
588.38,2894.4
588.546,2870.15
588.713,2878.4
588.879,2878.4
589.045,2886.0
589.211,2909.9
589.377,2902.3
589.543,2886.95
589.709,2932.3
589.875,2915.65
590.041,2926.2
590.207,2915.0
590.373,2914.4
590.539,2895.55
590.705,2899.7
590.871,2897.15
591.037,2914.95
591.203,2900.9
591.369,2874.2
591.535,2910.35
591.701,2878.45
591.867,2917.9
592.033,2916.0
592.199,2872.75
592.365,2882.85
592.531,2887.85
592.697,2903.6
592.863,2889.85
593.029,2885.2
593.195,2901.85
593.361,2901.55
593.526,2881.35
593.692,2864.4
593.858,2877.0
594.024,2889.9
594.19,2889.8
594.356,2885.15
594.522,2916.1
594.687,2911.5
594.853,2940.3
595.019,2929.25
595.185,2898.45
595.351,2890.4
595.516,2938.15
595.682,2921.2
595.848,2925.95
596.014,2964.05
596.18,2949.8
596.345,2924.15
596.511,2953.35
596.677,2981.0
596.843,2941.65
597.008,2957.9
597.174,2960.35
597.34,2952.15
597.505,2962.2
597.671,2918.6
597.837,2958.45
598.002,3008.7
598.168,2968.3
598.334,2956.7
598.499,2960.35
598.665,2938.9
598.831,2996.65
598.996,2947.25
599.162,2937.35
599.328,2986.75
599.493,2988.25
599.659,2957.8
599.824,2961.15
599.99,2971.05
600.156,2968.25
600.321,2983.65
600.487,2973.35
600.652,2963.6
600.818,2968.0
600.983,2944.4
601.149,2980.2
601.314,2969.9
601.48,2963.6
601.645,2977.0
601.811,2955.95
601.976,2955.95
602.142,2965.15
602.307,2946.9
602.473,2942.85
602.638,2932.6
602.804,2929.55
602.969,2933.3
603.135,2934.65
603.3,2884.45
603.466,2922.35
603.631,2893.0
603.796,2914.95
603.962,2884.7
604.127,2885.3
604.293,2877.25
604.458,2850.0
604.623,2858.1
604.789,2821.8
604.954,2810.7
605.119,2802.85
605.285,2819.95
605.45,2803.85
605.615,2789.55
605.781,2765.55
605.946,2767.35
606.111,2755.25
606.277,2763.55
606.442,2755.85
606.607,2726.65
606.772,2721.85
606.938,2733.05
607.103,2711.95
607.268,2727.0
607.433,2693.7
607.599,2696.25
607.764,2666.25
607.929,2675.55
608.094,2679.6
608.259,2655.55
608.425,2670.45
608.59,2632.55
608.755,2636.3
608.92,2650.55
609.085,2629.85
609.25,2625.5
609.415,2624.8
609.581,2613.35
609.746,2599.3
609.911,2616.8
610.076,2594.45
610.241,2612.7
610.406,2593.1
610.571,2597.95
610.736,2577.05
610.901,2619.4
611.066,2593.25
611.231,2560.5
611.396,2582.0
611.561,2588.8
611.727,2590.55
611.892,2571.75
612.057,2541.3
612.222,2545.3
612.386,2552.9
612.551,2544.2
612.716,2536.8
612.881,2527.35
613.046,2545.35
613.211,2520.75
613.376,2510.35
613.541,2517.2
613.706,2524.75
613.871,2532.55
614.036,2524.9
614.201,2493.15
614.366,2512.4
614.531,2517.6
614.695,2518.6
614.86,2498.5
615.025,2496.35
615.19,2506.95
615.355,2526.2
615.52,2487.6
615.684,2485.5
615.849,2499.95
616.014,2488.85
616.179,2492.55
616.344,2486.35
616.508,2497.05
616.673,2489.0
616.838,2515.7
617.003,2495.5
617.168,2489.5
617.332,2497.95
617.497,2522.85
617.662,2493.3
617.826,2510.0
617.991,2506.15
618.156,2492.85
618.32,2503.65
618.485,2494.95
618.65,2490.95
618.814,2484.1
618.979,2501.3
619.144,2496.8
619.308,2501.0
619.473,2512.75
619.638,2491.5
619.802,2522.6
619.967,2514.5
620.131,2498.9
620.296,2487.25
620.461,2502.35
620.625,2511.2
620.79,2522.2
620.954,2515.3
621.119,2532.0
621.283,2546.1
621.448,2574.9
621.612,2590.85
621.777,2616.7
621.941,2650.2
622.106,2670.7
622.27,2661.6
622.435,2661.85
622.599,2640.6
622.764,2578.9
622.928,2532.65
623.093,2524.6
623.257,2523.2
623.422,2507.25
623.586,2489.3
623.75,2492.55
623.915,2486.5
624.079,2483.95
624.244,2475.95
624.408,2497.15
624.572,2466.05
624.737,2489.1
624.901,2502.4
625.065,2498.3
625.23,2499.6
625.394,2516.1
625.558,2536.1
625.723,2543.65
625.887,2550.0
626.051,2595.25
626.215,2663.65
626.38,2787.25
626.544,2992.2
626.708,3559.8
626.872,4268.0
627.037,5312.6
627.201,5874.8
627.365,5591.55
627.529,5214.25
627.693,4732.0
627.858,4553.1
628.022,4540.25
628.186,4796.85
628.35,5420.3
628.514,5863.85
628.678,5491.4
628.843,4913.55
629.007,4710.3
629.171,4594.8
629.335,4446.0
629.499,4210.15
629.663,4053.1
629.827,3908.65
629.991,3853.9
630.155,3741.65
630.319,3816.85
630.483,3724.8
630.647,3576.1
630.812,3409.1
630.976,3150.6
631.14,2968.15
631.304,2834.65
631.468,2784.6
631.632,2699.4
631.796,2651.35
631.959,2615.5
632.123,2609.5
632.287,2572.35
632.451,2573.0
632.615,2568.0
632.779,2556.3
632.943,2534.45
633.107,2505.75
633.271,2512.95
633.435,2550.9
633.599,2517.3
633.763,2503.45
633.926,2505.7
634.09,2517.0
634.254,2520.95
634.418,2502.5
634.582,2476.55
634.746,2498.3
634.909,2496.25
635.073,2518.25
635.237,2498.25
635.401,2472.9
635.564,2475.65
635.728,2494.45
635.892,2500.9
636.056,2471.05
636.219,2498.45
636.383,2516.6
636.547,2480.75
636.711,2471.35
636.874,2485.2
637.038,2499.8
637.202,2464.45
637.365,2498.0
637.529,2480.2
637.693,2474.2
637.856,2478.95
638.02,2492.6
638.184,2468.2
638.347,2490.6
638.511,2486.35
638.674,2477.9
638.838,2474.0
639.002,2465.7
639.165,2479.55
639.329,2472.25
639.492,2455.8
639.656,2463.85
639.819,2453.5
639.983,2473.55
640.146,2462.8
640.31,2465.3
640.473,2432.1
640.637,2445.3
640.8,2446.85
640.964,2448.2
641.127,2443.45
641.291,2463.7
641.454,2451.6
641.618,2419.15
641.781,2451.5
641.944,2434.55
642.108,2440.15
642.271,2436.35
642.435,2441.3
642.598,2418.75
642.761,2422.7
642.925,2449.85
643.088,2440.2
643.251,2427.4
643.415,2432.05
643.578,2440.95
643.741,2431.3
643.905,2453.3
644.068,2428.45
644.231,2436.5
644.394,2446.25
644.558,2420.05
644.721,2417.3
644.884,2403.15
645.047,2437.8
645.211,2435.05
645.374,2417.4
645.537,2441.95
645.7,2416.05
645.863,2417.45
646.027,2418.25
646.19,2425.4
646.353,2401.1
646.516,2411.3
646.679,2422.3
646.842,2421.6
647.005,2403.6
647.169,2405.2
647.332,2415.95
647.495,2412.1
647.658,2401.9
647.821,2428.3
647.984,2394.9
648.147,2386.2
648.31,2404.95
648.473,2398.15
648.636,2406.0
648.799,2409.6
648.962,2393.85
649.125,2404.4
649.288,2414.7
649.451,2406.9
649.614,2423.75
649.777,2404.5
649.94,2408.6
650.103,2407.05
650.266,2416.2
650.429,2389.0
650.592,2373.95
650.755,2397.8
650.918,2394.9
651.08,2356.8
651.243,2392.75
651.406,2366.75
651.569,2359.8
651.732,2367.45
651.895,2359.35
652.058,2359.4
652.22,2356.45
652.383,2358.9
652.546,2330.45
652.709,2329.15
652.872,2336.9
653.034,2339.75
653.197,2331.65
653.36,2324.7
653.523,2308.3
653.685,2337.5
653.848,2342.8
654.011,2341.3
654.173,2314.6
654.336,2302.55
654.499,2334.15
654.662,2304.4
654.824,2320.5
654.987,2309.1
655.149,2294.95
655.312,2292.8
655.475,2301.65
655.637,2308.8
655.8,2294.3
655.963,2300.4
656.125,2308.3
656.288,2294.05
656.45,2280.6
656.613,2286.15
656.775,2277.8
656.938,2270.45
657.1,2244.25
657.263,2277.05
657.425,2271.0
657.588,2265.7
657.75,2258.2
657.913,2259.7
658.075,2262.5
658.238,2242.45
658.4,2248.4
658.563,2220.95
658.725,2242.85
658.888,2233.0
659.05,2232.85
659.212,2220.15
659.375,2224.8
659.537,2228.3
659.7,2213.25
659.862,2214.7
660.024,2231.8
660.187,2216.6
660.349,2192.15
660.511,2211.0
660.674,2192.15
660.836,2198.55
660.998,2181.75
661.079,2175.1