File: spectra/VLFR_06-PET_bio_Raman_13cd97dc.csv
nm,Intensity
526.508,831.5
526.645,829.7
526.782,829.5
526.919,829.7
527.055,830.5
527.192,831.2
527.329,829.0
527.465,829.1
527.602,828.7
527.739,829.5
527.875,830.5
528.012,830.6
528.149,831.0
528.285,831.1
528.422,830.3
528.558,830.1
528.695,830.8
528.832,829.8
528.968,830.1
529.105,829.3
529.241,831.4
529.378,830.5
529.514,830.4
529.651,828.9
529.787,830.8
529.924,829.9
530.061,830.7
530.197,830.7
530.334,829.2
530.47,830.0
530.606,829.2
530.743,829.6
530.879,830.0
531.016,829.5
531.152,830.4
531.289,829.0
531.425,830.4
531.562,828.7
531.698,830.2
531.834,831.2
531.971,831.7
532.107,855.6
532.244,866.2
532.38,836.9
532.516,830.4
532.653,830.5
532.789,830.2
532.925,830.0
533.062,830.9
533.198,829.7
533.334,830.9
533.471,832.0
533.607,832.8
533.743,859.5
533.879,1003.3
534.016,1238.9
534.152,1352.9
534.288,1327.9
534.424,1282.9
534.561,1254.0
534.697,1223.0
534.833,1193.2
534.969,1148.9
535.106,1121.9
535.242,1097.4
535.378,1080.3
535.514,1056.7
535.65,1039.9
535.786,1026.6
535.923,1008.1
536.059,998.6
536.195,986.6
536.331,982.9
536.467,974.8
536.603,965.5
536.739,959.9
536.876,958.9
537.012,954.4
537.148,960.6
537.284,953.0
537.42,957.2
537.556,954.3
537.692,949.8
537.828,948.1
537.964,952.1
538.1,952.3
538.236,956.5
538.372,956.0
538.508,954.8
538.644,960.2
538.78,965.6
538.916,958.9
539.052,956.0
539.188,957.6
539.324,957.1
539.46,967.9
539.596,964.4
539.732,963.2
539.868,970.3
540.004,977.8
540.14,970.2
540.275,961.9
540.411,962.2
540.547,959.7
540.683,955.9
540.819,958.1
540.955,953.6
541.091,955.6
541.227,951.7
541.362,953.4
541.498,951.4
541.634,956.8
541.77,956.2
541.906,957.8
542.041,955.5
542.177,957.3
542.313,958.1
542.449,959.3
542.585,951.9
542.72,957.8
542.856,960.2
542.992,955.6
543.128,961.8
543.263,957.9
543.399,961.6
543.535,961.2
543.67,959.6
543.806,961.4
543.942,963.5
544.078,968.0
544.213,961.8
544.349,961.8
544.485,966.2
544.62,970.1
544.756,969.5
544.892,965.7
545.027,967.3
545.163,966.9
545.298,970.5
545.434,970.5
545.57,972.6
545.705,970.7
545.841,970.1
545.976,972.2
546.112,967.8
546.248,970.6
546.383,974.4
546.519,972.6
546.654,972.5
546.79,975.0
546.925,979.3
547.061,977.5
547.196,974.7
547.332,977.3
547.467,981.5
547.603,973.5
547.738,979.5
547.874,977.9
548.009,979.0
548.145,978.3
548.28,984.2
548.416,981.0
548.551,978.8
548.686,978.4
548.822,982.8
548.957,982.9
549.093,985.9
549.228,981.3
549.363,989.9
549.499,984.4
549.634,985.8
549.77,989.2
549.905,988.0
550.04,986.6
550.176,988.4
550.311,987.4
550.446,993.7
550.582,1021.4
550.717,1060.4
550.852,1033.6
550.988,1000.8
551.123,996.5
551.258,993.6
551.394,995.9
551.529,996.0
551.664,995.8
551.799,1000.0
551.935,989.2
552.07,1001.5
552.205,997.5
552.34,999.2
552.476,1006.2
552.611,1000.0
552.746,1014.0
552.881,1027.3
553.016,1021.5
553.152,1018.0
553.287,1002.8
553.422,1007.6
553.557,1004.9
553.692,1009.8
553.827,1005.5
553.963,1011.6
554.098,1014.2
554.233,1010.1
554.368,1014.6
554.503,1009.8
554.638,1011.9
554.773,1012.3
554.908,1013.8
555.043,1011.8
555.179,1014.6
555.314,1020.1
555.449,1026.1
555.584,1036.2
555.719,1040.5
555.854,1034.2
555.989,1033.9
556.124,1039.5
556.259,1040.7
556.394,1044.8
556.529,1046.8
556.664,1047.7
556.799,1048.5
556.934,1045.4
557.069,1050.5
557.204,1062.1
557.339,1077.5
557.474,1100.2
557.609,1109.7
557.744,1104.0
557.879,1086.6
558.014,1064.9
558.149,1056.3
558.284,1056.4
558.419,1065.0
558.553,1065.5
558.688,1054.8
558.823,1057.2
558.958,1051.8
559.093,1050.5
559.228,1044.8
559.363,1039.9
559.498,1041.4
559.632,1040.6
559.767,1038.3
559.902,1042.7
560.037,1046.9
560.172,1042.4
560.307,1038.0
560.441,1051.5
560.576,1044.9
560.711,1047.3
560.846,1049.3
560.981,1052.1
561.115,1058.7
561.25,1052.8
561.385,1053.6
561.52,1050.1
561.654,1057.6
561.789,1054.0
561.924,1053.2
562.059,1058.6
562.193,1065.9
562.328,1062.7
562.463,1064.8
562.598,1063.9
562.732,1072.4
562.867,1073.3
563.002,1071.8
563.136,1076.1
563.271,1072.6
563.406,1076.5
563.54,1078.7
563.675,1074.9
563.81,1075.8
563.944,1077.2
564.079,1070.2
564.213,1080.3
564.348,1080.3
564.483,1082.2
564.617,1081.3
564.752,1090.7
564.887,1090.9
565.021,1104.0
565.156,1106.9
565.29,1120.1
565.425,1118.9
565.559,1131.2
565.694,1134.9
565.828,1142.6
565.963,1138.4
566.098,1138.5
566.232,1121.8
566.367,1111.9
566.501,1104.6
566.636,1101.5
566.77,1099.0
566.905,1099.1
567.039,1103.5
567.174,1094.0
567.308,1099.1
567.443,1106.5
567.577,1120.2
567.711,1124.5
567.846,1127.5
567.98,1120.0
568.115,1106.5
568.249,1106.7
568.384,1104.3
568.518,1100.0
568.652,1112.4
568.787,1109.7
568.921,1108.3
569.056,1115.4
569.19,1111.9
569.324,1114.5
569.459,1121.5
569.593,1123.9
569.727,1122.9
569.862,1125.5
569.996,1121.4
570.131,1138.4
570.265,1140.3
570.399,1155.9
570.534,1161.8
570.668,1169.7
570.802,1187.8
570.936,1194.8
571.071,1211.8
571.205,1237.2
571.339,1242.8
571.474,1233.8
571.608,1224.2
571.742,1207.4
571.876,1185.3
572.011,1192.8
572.145,1178.6
572.279,1173.2
572.413,1158.0
572.548,1155.6
572.682,1152.3
572.816,1147.7
572.95,1147.2
573.084,1146.0
573.219,1146.8
573.353,1161.1
573.487,1153.3
573.621,1148.5
573.755,1153.2
573.889,1154.1
574.024,1163.5
574.158,1169.9
574.292,1164.7
574.426,1169.1
574.56,1159.6
574.694,1164.6
574.828,1167.8
574.963,1166.3
575.097,1164.5
575.231,1167.4
575.365,1186.1
575.499,1183.7
575.633,1174.9
575.767,1163.7
575.901,1170.0
576.035,1168.7
576.169,1180.6
576.303,1189.5
576.437,1190.8
576.571,1184.2
576.706,1193.3
576.84,1194.3
576.974,1191.6
577.108,1190.0
577.242,1191.3
577.376,1180.9
577.51,1181.7
577.644,1182.7
577.778,1188.0
577.912,1188.5
578.046,1185.8
578.179,1187.4
578.313,1187.9
578.447,1190.3
578.581,1194.2
578.715,1190.4
578.849,1197.3
578.983,1183.4
579.117,1185.6
579.251,1191.7
579.385,1201.0
579.519,1197.0
579.653,1191.6
579.787,1195.0
579.921,1196.9
580.054,1193.7
580.188,1204.7
580.322,1206.1
580.456,1202.2
580.59,1198.2
580.724,1214.5
580.858,1208.5
580.991,1207.8
581.125,1207.8
581.259,1216.5
581.393,1218.1
581.527,1221.9
581.661,1242.5
581.794,1275.1
581.928,1355.6
582.062,1493.1
582.196,1642.5
582.33,1577.8
582.463,1368.8
582.597,1267.3
582.731,1247.0
582.865,1236.3
582.998,1227.7
583.132,1226.5
583.266,1227.3
583.4,1223.8
583.533,1224.7
583.667,1232.6
583.801,1233.0
583.935,1230.8
584.068,1229.4
584.202,1234.5
584.336,1236.6
584.469,1243.6
584.603,1237.0
584.737,1235.4
584.87,1241.3
585.004,1248.1
585.138,1246.5
585.271,1255.1
585.405,1274.3
585.539,1324.2
585.672,1363.2
585.806,1424.1
585.94,1464.0
586.073,1470.2
586.207,1444.9
586.34,1425.2
586.474,1381.3
586.608,1338.7
586.741,1305.3
586.875,1284.4
587.008,1273.8
587.142,1261.2
587.276,1263.3
587.409,1260.2
587.543,1258.6
587.676,1253.1
587.81,1261.9
587.943,1252.9
588.077,1251.9
588.21,1255.0
588.344,1255.6
588.478,1252.9
588.611,1250.9
588.745,1242.9
588.878,1260.5
589.012,1256.8
589.145,1253.7
589.279,1259.0
589.412,1249.0
589.546,1255.9
589.679,1251.1
589.812,1257.3
589.946,1269.9
590.079,1252.1
590.213,1258.8
590.346,1268.6
590.48,1261.7
590.613,1265.5
590.747,1260.3
590.88,1261.8
591.013,1262.0
591.147,1266.9
591.28,1260.6
591.414,1266.2
591.547,1261.9
591.68,1258.0
591.814,1266.9
591.947,1270.8
592.081,1260.1
592.214,1261.7
592.347,1270.6
592.481,1271.2
592.614,1257.0
592.747,1261.9
592.881,1267.3
593.014,1267.2
593.147,1263.5
593.281,1268.5
593.414,1261.3
593.547,1264.5
593.681,1266.5
593.814,1266.2
593.947,1273.1
594.081,1270.8
594.214,1269.9
594.347,1270.8
594.48,1273.0
594.614,1271.3
594.747,1274.1
594.88,1277.3
595.014,1278.8
595.147,1281.7
595.28,1275.6
595.413,1272.6
595.547,1271.2
595.68,1275.6
595.813,1276.9
595.946,1278.2
596.079,1278.0
596.213,1284.1
596.346,1287.6
596.479,1281.0
596.612,1282.4
596.745,1277.3
596.879,1290.7
597.012,1287.8
597.145,1289.6
597.278,1283.2
597.411,1288.8
597.545,1280.9
597.678,1280.4
597.811,1282.5
597.944,1289.3
598.077,1287.9
598.21,1297.0
598.343,1291.8
598.476,1294.3
598.61,1298.8
598.743,1294.3
598.876,1300.6
599.009,1291.5
599.142,1292.1
599.275,1295.3
599.408,1289.6
599.541,1292.9
599.674,1301.8
599.807,1294.1
599.941,1290.9
600.074,1284.3
600.207,1292.1
600.34,1291.7
600.473,1298.3
600.606,1285.0
600.739,1290.0
600.872,1294.9
601.005,1286.4
601.138,1285.7
601.271,1293.6
601.404,1284.9
601.537,1295.0
601.67,1292.6
601.803,1292.4
601.936,1287.8
602.069,1295.5
602.202,1295.4
602.335,1285.4
602.468,1282.9
602.601,1291.8
602.734,1293.9
602.867,1302.7
603.0,1294.8
603.133,1301.7
603.266,1299.4
603.399,1297.5
603.532,1291.8
603.664,1296.7
603.797,1299.1
603.93,1295.4
604.063,1303.0
604.196,1300.2
604.329,1290.4
604.462,1301.2
604.595,1298.1
604.728,1294.8
604.861,1298.0
604.994,1296.2
605.126,1286.1
605.259,1288.2
605.392,1287.9
605.525,1285.5
605.658,1284.4
605.791,1293.1
605.924,1281.9
606.056,1285.5
606.189,1288.3
606.322,1281.7
606.455,1282.4
606.588,1279.7
606.721,1281.5
606.853,1281.0
606.986,1290.0
607.119,1278.0
607.252,1283.7
607.385,1293.4
607.517,1283.2
607.65,1290.1
607.783,1283.8
607.916,1292.4
608.049,1292.1
608.181,1290.2
608.314,1298.4
608.447,1300.4
608.58,1300.3
608.712,1288.3
608.845,1297.7
608.978,1293.1
609.111,1298.7
609.243,1292.9
609.376,1295.9
609.509,1293.8
609.641,1286.9
609.774,1293.9
609.907,1291.6
610.04,1294.8
610.172,1288.8
610.305,1296.5
610.438,1293.5
610.57,1298.9
610.703,1290.4
610.836,1296.5
610.968,1289.3
611.101,1292.6
611.234,1301.0
611.366,1296.6
611.499,1294.0
611.632,1298.5
611.764,1292.7
611.897,1295.9
612.03,1301.8
612.162,1293.1
612.295,1294.9
612.428,1297.7
612.56,1304.7
612.693,1307.6
612.825,1309.8
612.958,1308.4
613.091,1306.8
613.223,1314.1
613.356,1314.8
613.488,1311.7
613.621,1315.9
613.754,1309.1
613.886,1311.9
614.019,1311.7
614.151,1307.8
614.284,1311.5
614.416,1312.8
614.549,1314.4
614.681,1309.9
614.814,1312.2
614.947,1318.9
615.079,1314.7
615.212,1312.5
615.344,1307.9
615.477,1308.5
615.609,1304.9
615.742,1303.6
615.874,1314.7
616.007,1311.2
616.139,1310.1
616.272,1309.4
616.404,1319.9
616.537,1308.3
616.669,1318.9
616.802,1313.3
616.934,1312.5
617.067,1311.0
617.199,1311.6
617.332,1310.1
617.464,1321.0
617.596,1319.1
617.729,1320.1
617.861,1321.1
617.994,1321.1
618.126,1315.3
618.259,1323.2
618.391,1323.9
618.524,1309.6
618.656,1323.9
618.788,1329.9
618.921,1321.8
619.053,1317.7
619.186,1319.2
619.318,1320.0
619.45,1313.7
619.583,1317.5
619.715,1319.3
619.848,1323.5
619.98,1323.3
620.112,1316.0
620.245,1314.2
620.377,1319.1
620.509,1316.7
620.642,1321.3
620.774,1324.3
620.907,1321.1
621.039,1312.6
621.171,1320.3
621.304,1331.3
621.436,1322.3
621.568,1324.2
621.701,1322.2
621.833,1325.6
621.965,1318.8
622.097,1314.6
622.23,1322.9
622.362,1326.3
622.494,1330.5
622.627,1334.7
622.759,1340.5
622.891,1326.8
623.024,1320.9
623.156,1333.1
623.288,1336.6
623.42,1326.9
623.553,1340.4
623.685,1346.0
623.817,1338.4
623.949,1337.5
624.082,1346.2
624.214,1338.0
624.346,1340.1
624.479,1342.7
624.611,1344.8
624.743,1351.1
624.875,1339.9
625.007,1346.2
625.14,1346.3
625.272,1344.7
625.404,1343.2
625.536,1345.9
625.669,1343.6
625.801,1344.8
625.933,1345.9
626.065,1344.2
626.197,1348.7
626.33,1343.4
626.462,1346.6
626.594,1346.7
626.726,1345.9
626.858,1349.1
626.99,1350.6
627.123,1351.8
627.255,1356.3
627.387,1349.1
627.519,1349.7
627.651,1356.4
627.783,1345.6
627.916,1362.0
628.048,1353.0
628.18,1362.3
628.312,1363.4
628.444,1361.8
628.576,1368.4
628.708,1372.8
628.84,1367.4
628.973,1375.8
629.105,1364.1
629.237,1372.6
629.369,1385.9
629.501,1379.9
629.633,1371.9
629.765,1381.1
629.897,1374.4
630.029,1377.9
630.161,1378.3
630.294,1380.5
630.426,1378.2
630.558,1371.6
630.69,1381.6
630.822,1380.3
630.954,1397.7
631.086,1397.2
631.218,1411.8
631.35,1421.9
631.482,1430.9
631.614,1432.8
631.746,1447.2
631.878,1450.7
632.01,1453.8
632.142,1440.7
632.274,1427.2
632.406,1423.2
632.538,1418.8
632.67,1419.3
632.802,1420.2
632.934,1412.2
633.066,1403.4
633.198,1407.0
633.33,1411.5
633.462,1421.2
633.594,1409.4
633.726,1409.7
633.858,1404.9
633.99,1398.6
634.122,1403.0
634.254,1403.5
634.386,1391.6
634.518,1408.4
634.65,1395.6
634.782,1400.3
634.914,1403.8
635.046,1402.5
635.178,1403.7
635.31,1408.2
635.442,1405.0
635.574,1417.1
635.706,1412.6
635.838,1424.8
635.97,1437.3
636.102,1443.1
636.234,1451.8
636.365,1468.5
636.497,1482.9
636.629,1491.9
636.761,1484.6
636.893,1468.9
637.025,1451.8
637.157,1439.3
637.289,1425.3
637.421,1434.4
637.553,1422.2
637.685,1430.9
637.816,1422.4
637.948,1410.6
638.08,1417.4
638.212,1418.8
638.344,1424.0
638.476,1416.1
638.608,1420.6
638.74,1419.9
638.871,1425.6
639.003,1422.2
639.135,1430.9
639.267,1424.7
639.399,1418.7
639.531,1430.0
639.662,1424.2
639.794,1429.1
639.926,1426.6
640.058,1424.8
640.19,1434.1
640.322,1435.3
640.453,1424.5
640.585,1430.9
640.717,1431.3
640.849,1434.0
640.981,1433.2
641.113,1433.4
641.244,1428.1
641.376,1422.6
641.508,1435.7
641.64,1447.9
641.772,1445.3
641.903,1452.0
642.035,1439.5
642.167,1440.9
642.299,1442.3
642.43,1441.5
642.562,1437.1
642.694,1442.3
642.826,1439.0
642.958,1431.1
643.089,1431.8
643.221,1422.9
643.353,1438.8
643.485,1432.0
643.616,1442.7
643.748,1434.2
643.88,1434.5
644.012,1431.2
644.143,1439.2
644.275,1433.4
644.407,1428.4
644.538,1428.2
644.67,1432.5
644.802,1430.7
644.934,1434.9
645.065,1435.5
645.197,1430.2
645.329,1428.0
645.461,1429.2
645.592,1427.2
645.724,1432.4
645.856,1434.8
645.987,1432.3
646.119,1436.7
646.251,1438.6
646.382,1434.8
646.514,1431.0
646.646,1439.9
646.777,1435.7
646.909,1437.2
647.041,1433.8
647.172,1435.6
647.304,1437.0
647.436,1439.9
647.567,1452.3
647.699,1438.2
647.831,1432.9
647.962,1427.7
648.094,1440.7
648.226,1433.4
648.357,1425.2
648.489,1436.5
648.621,1437.8
648.752,1435.8
648.884,1431.8
649.016,1432.1
649.147,1421.4
649.279,1433.1
649.411,1435.4
649.542,1431.7
649.674,1440.7
649.805,1432.7
649.937,1429.4
650.069,1429.5
650.2,1432.5
650.332,1430.1
650.463,1427.1
650.595,1422.6
650.727,1421.4
650.858,1437.8
650.99,1435.0
651.121,1426.0
651.253,1428.4
651.385,1424.7
651.516,1431.9
651.648,1430.0
651.779,1424.2
651.911,1424.9
652.043,1420.5
652.174,1425.9
652.306,1433.4
652.437,1426.4
652.569,1423.5
652.7,1430.8
652.832,1429.1
652.963,1426.1
653.095,1442.4
653.227,1427.7
653.358,1431.3
653.49,1428.6
653.621,1433.4
653.753,1427.8
653.884,1421.4
654.016,1433.2
654.147,1431.3
654.279,1424.4
654.41,1424.2
654.542,1423.8
654.674,1423.2
654.805,1425.3
654.937,1417.8
655.068,1425.7
655.2,1425.6
655.331,1416.2
655.463,1420.9
655.594,1424.2
655.726,1422.6
655.857,1420.2
655.989,1420.9
656.12,1417.6
656.252,1410.2
656.383,1418.2
656.515,1422.0
656.646,1424.5
656.778,1418.2
656.909,1420.7
657.041,1424.2
657.172,1427.0
657.304,1413.8
657.435,1419.3
657.567,1417.5
657.698,1415.8
657.829,1418.5
657.961,1412.7
658.092,1412.2
658.224,1413.6
658.355,1413.2
658.487,1419.6
658.618,1419.2
658.75,1407.8
658.881,1412.1
659.013,1416.7
659.144,1411.7
659.275,1422.4
659.407,1414.3
659.538,1410.2
659.67,1411.2
659.801,1411.1
659.933,1404.2
660.064,1412.8
660.196,1408.3
660.327,1411.4
660.458,1398.7
660.59,1414.2
660.721,1401.4
660.853,1399.3
660.984,1393.8
661.116,1398.5
661.247,1405.9
661.378,1395.6
661.51,1393.0
661.641,1396.9
661.773,1398.5
661.904,1391.9
662.035,1391.1
662.167,1383.8
662.298,1380.1
662.43,1390.3
662.561,1395.6
662.692,1379.3
662.824,1391.0
662.955,1380.2
663.087,1379.9