File: spectra/VLFR_02-HDPE_bio_Raman_3e764038.csv
nm,Intensity
528.65,1848.95
528.819,1849.25
528.987,1851.25
529.155,1851.5
529.324,1849.9
529.492,1849.25
529.66,1850.05
529.829,1849.45
529.997,1848.45
530.165,1851.55
530.334,1850.5
530.502,1851.25
530.67,1851.45
530.839,1851.65
531.007,1851.65
531.175,1852.85
531.344,1855.75
531.512,1860.05
531.68,1889.55
531.848,2530.3
532.017,5142.35
532.185,4543.65
532.353,2185.6
532.521,1858.5
532.69,1856.4
532.858,1855.35
533.026,1857.2
533.194,1859.65
533.363,1877.75
533.531,1999.2
533.699,2813.45
533.867,4534.05
534.036,5883.05
534.204,6205.15
534.372,6272.1
534.54,6463.0
534.708,6502.85
534.877,6620.6
535.045,6651.0
535.213,6793.25
535.381,6769.2
535.549,6781.2
535.717,6815.85
535.886,6658.7
536.054,6547.7
536.222,6556.9
536.39,6598.9
536.558,6664.8
536.726,6799.35
536.894,6833.5
537.062,6703.85
537.231,6662.7
537.399,6814.35
537.567,6882.2
537.735,6922.6
537.903,6788.05
538.071,6834.6
538.239,6805.55
538.407,6932.0
538.575,6888.0
538.743,6815.7
538.911,6876.95
539.079,7054.15
539.247,7047.95
539.415,7131.55
539.583,7090.15
539.751,7071.0
539.919,7115.55
540.087,7142.7
540.255,7110.45
540.423,7176.45
540.591,7212.15
540.759,7109.45
540.927,7081.5
541.095,7154.65
541.263,7115.95
541.431,7208.45
541.599,7181.5
541.767,7232.1
541.935,7182.75
542.103,7326.45
542.271,7360.45
542.439,7345.9
542.607,7441.4
542.775,7346.1
542.943,7305.05
543.111,7311.95
543.279,7435.3
543.446,7482.45
543.614,7348.6
543.782,7530.6
543.95,7356.4
544.118,7382.5
544.286,7476.7
544.454,7464.6
544.622,7523.25
544.789,7487.9
544.957,7561.4
545.125,7516.55
545.293,7583.45
545.461,7554.8
545.629,7365.5
545.796,7554.4
545.964,7712.85
546.132,7692.4
546.3,7655.65
546.468,7660.95
546.635,7669.7
546.803,7681.1
546.971,7714.75
547.139,7753.4
547.306,7706.65
547.474,7691.45
547.642,7842.05
547.81,7834.85
547.977,7725.3
548.145,7883.0
548.313,7901.95
548.481,7953.9
548.648,7910.75
548.816,7934.25
548.984,7939.9
549.151,7827.1
549.319,7940.15
549.487,7880.65
549.655,7881.1
549.822,7838.5
549.99,7897.7
550.158,8098.0
550.325,7893.15
550.493,7960.65
550.66,8113.65
550.828,8063.95
550.996,8101.3
551.163,8221.25
551.331,8158.85
551.499,8384.8
551.666,8254.85
551.834,8220.75
552.001,8292.45
552.169,8233.0
552.337,8274.9
552.504,8051.15
552.672,8299.8
552.839,8332.85
553.007,8344.7
553.174,8189.25
553.342,8364.75
553.509,8202.0
553.677,8341.2
553.844,8428.1
554.012,8286.35
554.179,8410.35
554.347,8437.0
554.514,8409.9
554.682,8439.6
554.849,8427.85
555.017,8624.9
555.184,8418.0
555.352,8426.0
555.519,8631.15
555.687,8526.9
555.854,8481.45
556.022,8630.0
556.189,8465.65
556.357,8508.25
556.524,8589.7
556.691,8636.4
556.859,8575.75
557.026,8548.65
557.194,8816.7
557.361,8595.15
557.528,8597.5
557.696,8662.0
557.863,8697.65
558.031,8718.65
558.198,8841.3
558.365,8804.6
558.533,8731.9
558.7,8917.15
558.867,8764.65
559.035,8865.85
559.202,8846.1
559.369,8911.95
559.537,8953.35
559.704,8980.95
559.871,8858.35
560.038,8930.0
560.206,8850.7
560.373,8982.35
560.54,9022.2
560.708,8980.75
560.875,9200.0
561.042,9051.75
561.209,9132.0
561.377,9128.15
561.544,9340.65
561.711,9269.65
561.878,9230.7
562.045,9401.3
562.213,9459.55
562.38,9524.1
562.547,9422.95
562.714,9283.35
562.881,9274.85
563.049,9340.15
563.216,9294.0
563.383,9324.5
563.55,9440.45
563.717,9498.6
563.884,10187.4
564.052,10587.0
564.219,9937.35
564.386,9700.05
564.553,9543.35
564.72,9803.65
564.887,9606.25
565.054,9591.85
565.221,9610.7
565.388,9758.15
565.556,9791.5
565.723,9934.75
565.89,10106.3
566.057,10759.4
566.224,11005.7
566.391,10595.0
566.558,10193.8
566.725,9890.3
566.892,10171.7
567.059,10180.7
567.226,10172.3
567.393,10008.9
567.56,10022.0
567.727,10023.0
567.894,9809.7
568.061,9938.3
568.228,9864.8
568.395,9801.0
568.562,9961.15
568.729,9977.0
568.896,9959.75
569.063,9916.35
569.23,9930.1
569.396,9921.4
569.563,10277.8
569.73,10216.8
569.897,9933.65
570.064,9948.8
570.231,10186.5
570.398,10183.5
570.565,10254.2
570.732,10319.5
570.898,10188.0
571.065,10357.3
571.232,10849.5
571.399,11861.8
571.566,12359.7
571.733,11438.7
571.9,10636.9
572.066,10568.8
572.233,10463.1
572.4,10317.7
572.567,10359.0
572.734,10276.7
572.9,10250.0
573.067,10308.1
573.234,10529.5
573.401,10586.7
573.567,10380.3
573.734,10461.9
573.901,10488.7
574.068,10376.1
574.234,10401.2
574.401,10291.8
574.568,10196.8
574.734,10351.6
574.901,10627.3
575.068,10426.5
575.235,10585.0
575.401,10616.2
575.568,11070.5
575.735,11124.4
575.901,11130.5
576.068,11414.0
576.235,11967.7
576.401,12069.5
576.568,11723.0
576.734,11827.2
576.901,11490.5
577.068,11489.3
577.234,11392.2
577.401,11115.8
577.567,11014.5
577.734,11015.5
577.901,10725.5
578.067,10782.4
578.234,10792.7
578.4,10757.4
578.567,11021.9
578.733,11097.6
578.9,11263.5
579.066,11145.3
579.233,10993.5
579.399,10954.1
579.566,10828.7
579.732,10969.1
579.899,10740.2
580.065,10855.2
580.232,10839.3
580.398,10922.5
580.565,10888.3
580.731,10768.6
580.898,11016.3
581.064,11240.6
581.231,10775.3
581.397,10984.2
581.563,11187.3
581.73,11058.3
581.896,11009.3
582.063,10907.2
582.229,10818.2
582.395,10950.5
582.562,10897.4
582.728,10849.9
582.895,10903.6
583.061,10768.0
583.227,10869.4
583.394,10651.7
583.56,10715.0
583.726,11000.6
583.893,10799.2
584.059,10813.3
584.225,10706.1
584.391,10802.0
584.558,10687.4
584.724,10640.6
584.89,10837.9
585.057,10721.3
585.223,10547.5
585.389,10585.0
585.555,10710.8
585.722,10723.7
585.888,10626.8
586.054,10723.8
586.22,10491.5
586.386,10750.3
586.553,10703.3
586.719,10591.1
586.885,10667.9
587.051,10989.7
587.217,10719.8
587.384,10685.5
587.55,10754.7
587.716,10705.7
587.882,10653.7
588.048,10702.0
588.214,11222.5
588.38,10834.0
588.546,10607.4
588.713,10806.2
588.879,10930.7
589.045,10649.8
589.211,10807.9
589.377,10771.4
589.543,10734.9
589.709,10634.1
589.875,10940.8
590.041,10743.5
590.207,10661.8
590.373,10535.8
590.539,10717.0
590.705,10790.0
590.871,10695.3
591.037,10860.2
591.203,10946.9
591.369,10878.9
591.535,11006.5
591.701,10772.8
591.867,11001.3
592.033,10720.0
592.199,11038.4
592.365,10818.8
592.531,11173.5
592.697,10757.7
592.863,10958.2
593.029,11069.6
593.195,10615.9
593.361,10953.0
593.526,10871.3
593.692,10850.1
593.858,10876.0
594.024,10931.5
594.19,10884.8
594.356,10954.9
594.522,10979.7
594.687,10981.8
594.853,11013.3
595.019,11058.4
595.185,10774.2
595.351,10960.8
595.516,11314.5
595.682,11053.4
595.848,11045.6
596.014,11139.3
596.18,11216.7
596.345,11189.8
596.511,11060.7
596.677,11103.3
596.843,11213.3
597.008,10971.4
597.174,11302.5
597.34,11227.2
597.505,11190.2
597.671,11127.0
597.837,11088.3
598.002,11178.2
598.168,11110.7
598.334,11103.1
598.499,11371.8
598.665,11183.7
598.831,11136.1
598.996,11316.5
599.162,11465.1
599.328,11307.1
599.493,11248.8
599.659,11194.5
599.824,11339.0
599.99,11459.4
600.156,11296.0
600.321,11181.5
600.487,11252.3
600.652,11355.2
600.818,11463.3
600.983,11284.3
601.149,11376.8
601.314,11386.3
601.48,11311.0
601.645,11334.5
601.811,11473.7
601.976,11272.3
602.142,11202.3
602.307,11365.8
602.473,11354.5
602.638,11509.3
602.804,11252.0
602.969,11254.3
603.135,11217.0
603.3,11426.3
603.466,11346.7
603.631,11444.3
603.796,11011.0
603.962,11272.0
604.127,11369.5
604.293,11268.3
604.458,11182.8
604.623,11231.0
604.789,11293.4
604.954,11364.6
605.119,11159.6
605.285,11076.5
605.45,11185.0
605.615,11024.8
605.781,11202.2
605.946,11226.5
606.111,11324.8
606.277,11327.4
606.442,11208.1
606.607,11125.0
606.772,11248.8
606.938,11243.4
607.103,11273.2
607.268,11205.3
607.433,11196.6
607.599,11007.4
607.764,11193.6
607.929,11137.4
608.094,11212.0
608.259,11117.0
608.425,10843.1
608.59,11305.1
608.755,11136.3
608.92,11183.4
609.085,11075.2
609.25,10982.8
609.415,11088.0
609.581,11346.8
609.746,10656.5
609.911,11272.8
610.076,11193.4
610.241,11118.4
610.406,10969.3
610.571,10965.8
610.736,11187.5
610.901,11284.5
611.066,11204.4
611.231,11209.8
611.396,11157.5
611.561,11030.8
611.727,10940.8
611.892,10999.6
612.057,11218.2
612.222,10923.7
612.386,11072.5
612.551,11074.2
612.716,11131.4
612.881,11065.3
613.046,10803.0
613.211,10877.7
613.376,11235.3
613.541,10945.5
613.706,10978.5
613.871,10858.2
614.036,11056.6
614.201,11090.0
614.366,10971.7
614.531,11037.3
614.695,11232.3
614.86,11075.6
615.025,10927.6
615.19,11031.3
615.355,11056.1
615.52,11032.3
615.684,11036.3
615.849,11011.3
616.014,10773.9
616.179,10885.6
616.344,11167.8
616.508,10956.3
616.673,10988.3
616.838,11053.5
617.003,11001.8
617.168,10896.8
617.332,11092.9
617.497,11030.2
617.662,10982.0
617.826,11258.0
617.991,11296.5
618.156,10923.1
618.32,11166.5
618.485,10976.4
618.65,10987.3
618.814,11321.8
618.979,11193.3
619.144,11026.1
619.308,11120.7
619.473,11434.3
619.638,11438.2
619.802,11000.4
619.967,11302.6
620.131,11282.5
620.296,11284.4
620.461,11230.0
620.625,10929.1
620.79,11117.3
620.954,11325.1
621.119,11399.8
621.283,11369.5
621.448,11375.5
621.612,11465.3
621.777,11518.3
621.941,11828.6
622.106,11992.0
622.27,11830.0
622.435,11611.8
622.599,11666.1
622.764,11378.8
622.928,11426.3
623.093,11165.5
623.257,11067.6
623.422,11424.0
623.586,11177.9
623.75,10981.5
623.915,11089.6
624.079,11094.7
624.244,11111.8
624.408,11250.1
624.572,11031.8
624.737,11078.1
624.901,10990.7
625.065,11157.0
625.23,11174.3
625.394,11187.2
625.558,11044.0
625.723,11090.0
625.887,11334.4
626.051,11491.2
626.215,11564.0
626.38,11757.2
626.544,12636.0
626.708,14304.8
626.872,16642.4
627.037,19275.6
627.201,21120.3
627.365,20306.1
627.529,18788.8
627.693,17718.8
627.858,16876.8
628.022,16314.3
628.186,17709.9
628.35,19863.6
628.514,21812.3
628.678,20245.7
628.843,17998.8
629.007,16867.2
629.171,16561.6
629.335,16008.5
629.499,15424.5
629.663,14870.2
629.827,14585.9
629.991,14043.8
630.155,14022.7
630.319,13635.4
630.483,13725.7
630.647,13366.8
630.812,12940.2
630.976,12370.0
631.14,11761.8
631.304,11594.8
631.468,11397.6
631.632,11047.9
631.796,11380.1
631.959,11097.1
632.123,11035.6
632.287,10990.4
632.451,11057.8
632.615,11181.3
632.779,10778.5
632.943,10902.3
633.107,11105.0
633.271,10806.4
633.435,11076.1
633.599,10822.3
633.763,10870.3
633.926,11018.8
634.09,10918.8
634.254,10822.2
634.418,10571.3
634.582,10799.8
634.746,10874.0
634.909,10761.9
635.073,10884.4
635.237,10597.8
635.401,10693.9
635.564,10547.5
635.728,10409.5
635.892,10496.6
636.056,10683.2
636.219,10638.1
636.383,10254.8
636.547,10790.8
636.711,10526.5
636.874,10515.6
637.038,10730.5
637.202,10377.2
637.365,10570.0
637.529,10357.1
637.693,10346.9
637.856,10455.0
638.02,10599.3
638.184,10395.7
638.347,10574.9
638.511,10369.7
638.674,10449.8
638.838,10549.0
639.002,10325.8
639.165,10251.3
639.329,10429.5
639.492,10442.0
639.656,9949.4
639.819,10277.1
639.983,10109.0
640.146,10158.1
640.31,10267.4
640.473,10411.1
640.637,10267.9
640.8,10236.8
640.964,10141.7
641.127,10050.9
641.291,10142.7
641.454,10012.0
641.618,9935.75
641.781,10312.7
641.944,10054.5
642.108,10165.5
642.271,10116.0
642.435,10118.7
642.598,10108.5
642.761,10169.7
642.925,10160.5
643.088,9871.0
643.251,9986.4
643.415,9858.1
643.578,9899.7
643.741,9986.85
643.905,10046.8
644.068,9812.8
644.231,10047.0
644.394,10021.9
644.558,9996.7
644.721,9786.65
644.884,9937.4
645.047,9952.75
645.211,9905.35
645.374,9758.8
645.537,10040.7
645.7,9590.25
645.863,9867.45
646.027,9663.35
646.19,9627.95
646.353,9909.8
646.516,9764.95
646.679,9836.0
646.842,9574.95
647.005,9637.15
647.169,9916.65
647.332,9967.25
647.495,9589.55
647.658,9664.7
647.821,9673.2
647.984,9511.75
648.147,9618.5
648.31,9724.25
648.473,9690.55
648.636,9385.05
648.799,9457.85
648.962,9685.75
649.125,9533.05
649.288,9509.8
649.451,9349.55
649.614,9324.3
649.777,9309.75
649.94,9632.3
650.103,9145.6
650.266,9264.45
650.429,9343.1
650.592,9265.1
650.755,9347.95
650.918,9267.3
651.08,9277.3
651.243,9392.4
651.406,9108.0
651.569,9165.45
651.732,9042.75
651.895,9190.55
652.058,9264.8
652.22,9267.85
652.383,9112.75
652.546,9112.95
652.709,8697.4
652.872,8852.05
653.034,8858.65
653.197,8946.4
653.36,8823.95
653.523,8716.05
653.685,8944.2
653.848,8982.7
654.011,8718.35
654.173,8534.4
654.336,8793.35
654.499,8605.7
654.662,8533.35
654.824,8662.85
654.987,8550.5
655.149,8626.0
655.312,8488.15
655.475,8702.6
655.637,8871.95
655.8,8665.8
655.963,8604.45
656.125,8361.95
656.288,8519.7
656.45,8575.0
656.613,8346.25
656.775,8280.65
656.938,8579.35
657.1,8454.5
657.263,8288.1
657.425,8423.85
657.588,8242.35
657.75,8274.65
657.913,8207.05
658.075,8343.8
658.238,7832.15
658.4,7951.55
658.563,8114.35
658.725,8247.0
658.888,8172.55
659.05,7998.35
659.212,8038.9
659.375,7989.35
659.537,7780.3
659.7,7828.95
659.862,7845.7
660.024,8108.0
660.187,7704.55
660.349,7988.3
660.511,7869.2
660.674,7650.9
660.836,7886.6
660.998,7943.2
661.079,7882.55