File: spectra/VLFR_02-HDPE_bio_Raman_0655be09.csv
nm,Intensity
528.635,1836.2
528.803,1838.1
528.972,1836.8
529.14,1836.5
529.308,1837.2
529.477,1836.6
529.645,1838.8
529.814,1836.0
529.982,1838.2
530.151,1837.5
530.319,1837.0
530.487,1838.5
530.656,1838.5
530.824,1836.8
530.993,1839.1
531.161,1839.3
531.329,1840.6
531.498,1847.8
531.666,1883.4
531.835,2397.9
532.003,4351.9
532.171,4144.3
532.34,1977.8
532.508,1840.2
532.676,1839.0
532.845,1837.5
533.013,1838.6
533.181,1839.1
533.35,1840.1
533.518,1860.5
533.686,1964.3
533.854,2166.3
534.023,2262.9
534.191,2291.2
534.359,2278.8
534.528,2286.9
534.696,2311.5
534.864,2338.4
535.032,2318.0
535.201,2253.0
535.369,2186.4
535.537,2121.3
535.705,2086.2
535.874,2066.1
536.042,2046.6
536.21,2039.9
536.378,2028.6
536.546,2018.7
536.715,2003.5
536.883,2013.4
537.051,2014.6
537.219,2002.9
537.387,2000.0
537.556,2010.1
537.724,2000.2
537.892,1997.1
538.06,1984.5
538.228,1990.4
538.396,1987.0
538.565,1975.1
538.733,1969.1
538.901,1965.4
539.069,1959.0
539.237,1957.0
539.405,1949.5
539.573,1943.4
539.741,1944.9
539.909,1937.7
540.077,1941.6
540.246,1937.1
540.414,1942.8
540.582,1943.3
540.75,1931.6
540.918,1938.5
541.086,1930.1
541.254,1928.2
541.422,1929.9
541.59,1931.6
541.758,1932.7
541.926,1937.3
542.094,1932.1
542.262,1928.6
542.43,1929.8
542.598,1929.5
542.766,1923.4
542.934,1928.4
543.102,1931.5
543.27,1923.0
543.438,1927.0
543.606,1927.2
543.774,1926.7
543.942,1926.2
544.11,1927.2
544.278,1931.9
544.445,1919.3
544.613,1927.2
544.781,1923.6
544.949,1917.8
545.117,1920.5
545.285,1923.0
545.453,1916.4
545.621,1924.2
545.789,1921.0
545.957,1920.8
546.124,1919.8
546.292,1918.2
546.46,1924.3
546.628,1924.8
546.796,1916.6
546.964,1924.9
547.131,1923.3
547.299,1921.6
547.467,1925.6
547.635,1925.2
547.803,1926.4
547.97,1924.2
548.138,1918.8
548.306,1927.6
548.474,1917.5
548.642,1924.7
548.809,1925.4
548.977,1914.3
549.145,1922.9
549.313,1919.7
549.48,1917.2
549.648,1912.8
549.816,1925.1
549.983,1916.9
550.151,1917.8
550.319,1925.3
550.487,1931.6
550.654,1921.8
550.822,1918.9
550.99,1918.1
551.157,1924.5
551.325,1923.4
551.493,1926.0
551.66,1920.5
551.828,1925.4
551.996,1924.2
552.163,1924.7
552.331,1927.2
552.499,1924.6
552.666,1927.5
552.834,1924.1
553.001,1927.0
553.169,1938.0
553.337,1947.6
553.504,1948.0
553.672,1948.9
553.839,1952.4
554.007,1946.6
554.174,1948.7
554.342,1952.5
554.509,1958.4
554.677,1957.5
554.845,1954.5
555.012,1957.2
555.18,1960.2
555.347,1957.0
555.515,1961.1
555.682,1967.5
555.85,1969.2
556.017,1970.1
556.185,1972.3
556.352,1965.2
556.52,1978.1
556.687,1972.6
556.854,1980.5
557.022,1984.5
557.189,1994.7
557.357,2009.9
557.524,2000.3
557.692,2015.6
557.859,2019.1
558.026,2013.2
558.194,2032.5
558.361,2016.5
558.529,2023.8
558.696,2020.3
558.863,2000.2
559.031,2004.9
559.198,2005.8
559.365,2005.1
559.533,2000.6
559.7,2007.3
559.867,1995.3
560.035,1995.5
560.202,1994.0
560.369,1996.5
560.537,1991.2
560.704,1989.1
560.871,1983.6
561.039,1986.6
561.206,1987.4
561.373,1995.2
561.54,1994.9
561.708,1996.4
561.875,1997.7
562.042,1998.7
562.209,2010.4
562.377,2000.3
562.544,2023.1
562.711,2020.1
562.878,2034.1
563.046,2037.0
563.213,2043.9
563.38,2069.6
563.547,2118.4
563.714,2377.4
563.881,2938.4
564.049,3254.6
564.216,2666.6
564.383,2251.9
564.55,2240.9
564.717,2203.9
564.884,2178.4
565.052,2148.0
565.219,2103.0
565.386,2112.7
565.553,2137.7
565.72,2239.3
565.887,2575.2
566.054,3265.2
566.221,3468.3
566.388,2658.4
566.555,2175.9
566.722,2095.4
566.889,2073.0
567.056,2072.1
567.224,2132.2
567.391,2227.3
567.558,2191.8
567.725,2069.5
567.892,2026.0
568.059,2020.8
568.226,2026.1
568.393,2017.8
568.56,2019.1
568.727,2014.8
568.893,2016.0
569.06,2019.1
569.227,2016.9
569.394,2023.5
569.561,2018.3
569.728,2023.0
569.895,2032.1
570.062,2036.5
570.229,2047.4
570.396,2071.5
570.563,2102.9
570.73,2116.9
570.897,2131.9
571.063,2188.2
571.23,2482.2
571.397,3438.0
571.564,4074.8
571.731,3052.5
571.898,2362.4
572.064,2207.9
572.231,2161.7
572.398,2105.0
572.565,2063.2
572.732,2042.9
572.899,2031.8
573.065,2022.1
573.232,2013.7
573.399,2027.4
573.566,2028.7
573.732,2074.2
573.899,2130.0
574.066,2105.2
574.233,2035.7
574.399,2010.6
574.566,2014.7
574.733,2004.2
574.9,2020.4
575.066,2057.0
575.233,2253.4
575.4,2724.7
575.566,3022.3
575.733,2658.7
575.9,2592.8
576.066,2947.7
576.233,3417.7
576.4,3290.6
576.566,2909.3
576.733,2845.3
576.899,2853.6
577.066,2804.8
577.233,2644.5
577.399,2420.4
577.566,2204.7
577.732,2141.6
577.899,2083.1
578.066,2054.6
578.232,2039.9
578.399,2028.2
578.565,2018.9
578.732,2010.3
578.898,2008.2
579.065,2014.5
579.231,1990.2
579.398,2000.2
579.564,1999.8
579.731,1990.9
579.897,1996.8
580.064,1996.1
580.23,1996.1
580.397,1990.4
580.563,1993.8
580.73,1989.3
580.896,1991.8
581.063,1988.2
581.229,1989.2
581.396,1979.0
581.562,1974.1
581.728,1981.2
581.895,1970.0
582.061,1982.0
582.228,1977.1
582.394,1968.1
582.56,1980.5
582.727,1980.6
582.893,1980.9
583.059,1974.8
583.226,1964.0
583.392,1969.4
583.558,1967.6
583.725,1969.4
583.891,1971.0
584.057,1971.6
584.224,1967.7
584.39,1967.4
584.556,1967.4
584.722,1965.0
584.889,1963.8
585.055,1966.1
585.221,1970.6
585.387,1970.0
585.554,1963.6
585.72,1962.8
585.886,1965.6
586.052,1968.7
586.219,1964.7
586.385,1972.0
586.551,1973.5
586.717,1974.5
586.883,1969.8
587.049,1965.3
587.216,1970.8
587.382,1969.7
587.548,1965.8
587.714,1967.3
587.88,1976.6
588.046,1974.2
588.212,1975.4
588.379,1966.8
588.545,1980.6
588.711,1976.9
588.877,1973.6
589.043,1972.4
589.209,1976.4
589.375,1980.1
589.541,1983.5
589.707,1965.7
589.873,1973.9
590.039,1974.8
590.205,1978.1
590.371,1982.8
590.537,1977.1
590.703,1971.7
590.869,1982.0
591.035,1971.9
591.201,1979.8
591.367,1982.3
591.533,1984.9
591.699,1979.1
591.865,1980.6
592.031,1982.4
592.197,1977.4
592.363,1981.1
592.529,1989.5
592.695,1989.6
592.86,1987.4
593.026,1986.4
593.192,1991.6
593.358,1994.4
593.524,1985.5
593.69,1991.4
593.856,1983.3
594.022,1988.6
594.187,1978.7
594.353,1991.8
594.519,1990.3
594.685,1996.0
594.851,1992.3
595.016,1986.3
595.182,1994.5
595.348,1992.2
595.514,1997.0
595.679,1997.3
595.845,1999.8
596.011,2003.0
596.177,2011.9
596.342,2001.5
596.508,2007.4
596.674,2008.0
596.84,2001.9
597.005,2000.3
597.171,2017.8
597.337,2005.4
597.502,2010.3
597.668,2003.8
597.834,2014.3
597.999,2016.6
598.165,2021.1
598.331,2020.4
598.496,2017.9
598.662,2016.8
598.827,2017.2
598.993,2025.4
599.159,2034.0
599.324,2030.9
599.49,2042.2
599.655,2033.6
599.821,2035.3
599.987,2034.0
600.152,2038.0
600.318,2034.3
600.483,2024.3
600.649,2028.0
600.814,2031.9
600.98,2041.8
601.145,2040.8
601.311,2044.2
601.476,2040.5
601.642,2058.1
601.807,2066.7
601.973,2082.1
602.138,2086.9
602.303,2071.3
602.469,2052.9
602.634,2045.3
602.8,2040.7
602.965,2047.8
603.13,2045.2
603.296,2036.7
603.461,2037.5
603.627,2049.9
603.792,2044.9
603.957,2038.8
604.123,2037.6
604.288,2037.5
604.453,2041.9
604.619,2031.4
604.784,2035.6
604.949,2026.1
605.115,2037.3
605.28,2025.9
605.445,2026.4
605.61,2033.6
605.776,2023.8
605.941,2023.5
606.106,2019.8
606.272,2009.8
606.437,2018.8
606.602,2023.6
606.767,2018.1
606.932,2018.0
607.098,2014.0
607.263,2006.1
607.428,2006.0
607.593,2012.5
607.758,2012.5
607.923,1999.1
608.089,2003.0
608.254,2012.2
608.419,2009.2
608.584,2011.4
608.749,2016.6
608.914,2011.4
609.079,2005.6
609.244,2010.2
609.41,2019.5
609.575,2001.3
609.74,2004.6
609.905,2009.8
610.07,2008.9
610.235,2012.6
610.4,2011.4
610.565,2018.5
610.73,2032.0
610.895,2040.1
611.06,2047.3
611.225,2034.5
611.39,2020.3
611.555,2013.3
611.72,2012.8
611.885,2005.8
612.05,2014.8
612.215,1997.5
612.38,2007.3
612.545,2004.5
612.709,2001.4
612.874,1999.9
613.039,2005.7
613.204,2005.2
613.369,2003.1
613.534,1995.7
613.699,2004.2
613.864,2004.0
614.028,2000.4
614.193,2000.2
614.358,2004.9
614.523,1999.9
614.688,2010.6
614.853,2006.8
615.017,2008.8
615.182,2014.0
615.347,2021.5
615.512,2013.4
615.676,2019.4
615.841,2024.0
616.006,2023.0
616.171,2040.8
616.335,2043.5
616.5,2035.3
616.665,2072.0
616.829,2078.3
616.994,2099.9
617.159,2111.1
617.324,2111.6
617.488,2109.0
617.653,2120.5
617.818,2115.8
617.982,2133.9
618.147,2121.2
618.311,2113.6
618.476,2119.5
618.641,2098.5
618.805,2098.3
618.97,2110.9
619.134,2120.0
619.299,2144.3
619.463,2152.3
619.628,2157.6
619.793,2162.6
619.957,2151.2
620.122,2135.3
620.286,2152.7
620.451,2163.8
620.615,2176.5
620.78,2200.5
620.944,2221.2
621.109,2237.2
621.273,2308.9
621.438,2365.4
621.602,2458.6
621.766,2500.3
621.931,2626.8
622.095,2698.4
622.26,2734.8
622.424,2695.9
622.588,2567.5
622.753,2417.9
622.917,2316.0
623.082,2265.0
623.246,2211.2
623.41,2182.2
623.575,2161.9
623.739,2167.8
623.903,2173.6
624.068,2153.1
624.232,2157.1
624.396,2165.4
624.56,2158.7
624.725,2164.6
624.889,2168.6
625.053,2192.7
625.218,2205.6
625.382,2228.6
625.546,2264.9
625.71,2294.2
625.874,2376.1
626.039,2456.6
626.203,2622.4
626.367,3051.8
626.531,3803.9
626.695,5216.6
626.86,7322.6
627.024,9791.0
627.188,10776.2
627.352,10073.4
627.516,8693.2
627.68,7392.4
627.844,7045.0
628.008,6939.8
628.172,7600.9
628.337,9966.6
628.501,11102.3
628.665,9268.8
628.829,7224.5
628.993,6638.0
629.157,6285.1
629.321,6013.3
629.485,5545.4
629.649,5126.8
629.813,4705.4
629.977,4631.6
630.141,4474.6
630.305,4369.6
630.469,4309.9
630.633,4016.3
630.797,3553.0
630.961,3159.5
631.124,2745.0
631.288,2540.2
631.452,2389.6
631.616,2316.1
631.78,2270.4
631.944,2234.6
632.108,2196.4
632.272,2178.0
632.436,2172.3
632.599,2148.1
632.763,2150.2
632.927,2130.6
633.091,2121.1
633.255,2122.3
633.418,2109.7
633.582,2110.5
633.746,2076.4
633.91,2077.0
634.074,2062.3
634.237,2066.9
634.401,2061.6
634.565,2042.9
634.728,2041.7
634.892,2046.1
635.056,2030.0
635.22,2020.6
635.383,2020.5
635.547,2023.7
635.711,2005.9
635.874,2019.0
636.038,2015.3
636.202,2008.0
636.365,2024.3
636.529,2011.9
636.692,2000.3
636.856,1988.9
637.02,1983.7
637.183,1974.1
637.347,1965.7
637.51,1963.8
637.674,1958.9
637.837,1965.5
638.001,1962.9
638.164,1956.5
638.328,1962.8
638.491,1958.8
638.655,1940.4
638.818,1948.4
638.982,1960.3
639.145,1948.6
639.309,1943.2
639.472,1948.6
639.636,1950.9
639.799,1943.1
639.963,1941.8
640.126,1944.8
640.289,1937.8
640.453,1940.1
640.616,1937.9
640.78,1931.5
640.943,1936.9
641.106,1939.4
641.27,1941.9
641.433,1935.4
641.596,1934.4
641.76,1934.2
641.923,1934.6
642.086,1934.3
642.249,1935.6
642.413,1934.2
642.576,1936.5
642.739,1942.3
642.903,1935.3
643.066,1935.6
643.229,1927.3
643.392,1931.2
643.555,1935.3
643.719,1933.8
643.882,1931.7
644.045,1927.1
644.208,1932.8
644.371,1931.3
644.534,1931.3
644.698,1928.5
644.861,1931.9
645.024,1929.6
645.187,1929.1
645.35,1928.8
645.513,1933.8
645.676,1932.0
645.839,1930.6
646.002,1927.5
646.165,1927.0
646.329,1922.9
646.492,1928.4
646.655,1926.8
646.818,1921.7
646.981,1926.0
647.144,1935.3
647.307,1927.5
647.47,1930.7
647.633,1919.9
647.796,1924.3
647.958,1929.0
648.121,1930.4
648.284,1925.5
648.447,1922.6
648.61,1927.5
648.773,1925.8
648.936,1927.0
649.099,1924.5
649.262,1920.7
649.425,1919.8
649.587,1916.5
649.75,1928.6
649.913,1919.5
650.076,1924.6
650.239,1920.5
650.402,1923.3
650.564,1926.0
650.727,1919.4
650.89,1922.2
651.053,1919.7
651.215,1926.7
651.378,1920.5
651.541,1929.9
651.704,1919.3
651.866,1920.2
652.029,1924.3
652.192,1920.8
652.354,1920.5
652.517,1918.6
652.68,1919.7
652.842,1916.9
653.005,1920.6
653.168,1921.5
653.33,1912.7
653.493,1921.1
653.656,1914.2
653.818,1914.3
653.981,1918.8
654.143,1913.5
654.306,1907.9
654.468,1918.2
654.631,1918.0
654.794,1911.8
654.956,1916.3
655.119,1915.0
655.281,1911.9
655.444,1917.7
655.606,1911.5
655.769,1913.8
655.931,1912.2
656.093,1912.5
656.256,1910.9
656.418,1911.9
656.581,1911.2
656.743,1915.0
656.906,1909.2
657.068,1913.5
657.23,1913.3
657.393,1910.5
657.555,1914.2
657.718,1912.9
657.88,1905.9
658.042,1912.5
658.205,1911.5
658.367,1909.7
658.529,1907.4
658.691,1906.6
658.854,1906.8
659.016,1920.8
659.178,1910.9
659.341,1914.8
659.503,1916.2
659.665,1909.6
659.827,1915.0
659.989,1926.2
660.152,1922.1
660.314,1918.5
660.476,1911.4
660.638,1919.7
660.8,1918.0
660.963,1910.8
661.044,1908.6