File: spectra/VLFR_08-PLA_nobio_Raman_bcd6559c.csv
nm,Intensity
526.5,827.5
526.637,827.9
526.774,829.0
526.91,828.2
527.047,828.7
527.184,828.8
527.32,829.3
527.457,828.6
527.594,828.2
527.73,829.1
527.867,828.5
528.004,828.2
528.14,828.2
528.277,827.7
528.414,827.2
528.55,828.1
528.687,827.4
528.823,828.9
528.96,829.7
529.096,828.5
529.233,829.0
529.37,829.3
529.506,828.6
529.643,829.9
529.779,827.8
529.916,827.7
530.052,828.7
530.189,828.0
530.325,829.4
530.462,828.5
530.598,827.7
530.735,829.2
530.871,827.1
531.008,829.4
531.144,827.7
531.28,829.1
531.417,828.8
531.553,829.1
531.69,828.5
531.826,828.7
531.962,835.5
532.099,871.3
532.235,882.4
532.372,840.2
532.508,829.0
532.644,827.3
532.781,828.5
532.917,827.9
533.053,827.9
533.19,829.1
533.326,828.3
533.462,828.8
533.599,829.3
533.735,842.0
533.871,900.2
534.007,987.1
534.144,1015.7
534.28,1007.7
534.416,993.8
534.552,981.6
534.689,973.6
534.825,967.7
534.961,952.8
535.097,950.9
535.234,943.8
535.37,939.3
535.506,934.0
535.642,934.8
535.778,927.1
535.914,923.0
536.051,918.4
536.187,913.8
536.323,915.3
536.459,921.3
536.595,922.5
536.731,922.7
536.867,920.4
537.003,916.0
537.14,908.7
537.276,905.7
537.412,907.4
537.548,906.6
537.684,907.2
537.82,908.1
537.956,904.6
538.092,905.3
538.228,904.9
538.364,901.0
538.5,896.6
538.636,892.7
538.772,896.1
538.908,896.2
539.044,895.3
539.18,893.1
539.316,892.9
539.452,890.7
539.588,891.9
539.724,887.8
539.86,885.8
539.996,885.1
540.132,887.8
540.268,887.7
540.403,896.1
540.539,902.1
540.675,906.0
540.811,901.8
540.947,900.6
541.083,905.2
541.219,902.8
541.355,901.9
541.49,900.2
541.626,901.1
541.762,893.5
541.898,888.0
542.034,892.0
542.17,891.4
542.305,891.4
542.441,888.8
542.577,887.1
542.713,890.8
542.848,890.7
542.984,893.8
543.12,896.8
543.256,904.4
543.391,912.2
543.527,918.1
543.663,926.3
543.799,927.3
543.934,925.9
544.07,924.8
544.206,916.7
544.341,906.9
544.477,900.0
544.613,895.3
544.748,890.4
544.884,887.8
545.02,890.0
545.155,890.1
545.291,889.9
545.427,885.9
545.562,887.8
545.698,886.2
545.833,885.7
545.969,887.1
546.105,886.1
546.24,886.2
546.376,884.8
546.511,884.0
546.647,884.8
546.782,887.4
546.918,886.1
547.053,891.7
547.189,888.1
547.325,888.9
547.46,887.6
547.596,887.2
547.731,885.0
547.867,891.6
548.002,887.7
548.137,887.3
548.273,889.3
548.408,888.2
548.544,889.3
548.679,890.8
548.815,890.1
548.95,888.1
549.086,892.4
549.221,892.6
549.356,890.5
549.492,892.0
549.627,889.0
549.763,891.8
549.898,887.8
550.033,891.5
550.169,890.4
550.304,893.4
550.439,892.3
550.575,890.8
550.71,893.5
550.845,892.9
550.981,895.2
551.116,895.7
551.251,893.7
551.387,897.5
551.522,900.5
551.657,899.0
551.793,895.7
551.928,900.4
552.063,899.3
552.198,901.5
552.334,899.8
552.469,901.5
552.604,902.0
552.739,901.8
552.874,906.3
553.01,905.2
553.145,904.7
553.28,899.5
553.415,899.3
553.55,897.4
553.686,902.0
553.821,908.0
553.956,910.2
554.091,909.6
554.226,903.2
554.361,903.6
554.497,902.3
554.632,894.8
554.767,898.2
554.902,900.5
555.037,897.7
555.172,896.0
555.307,896.4
555.442,894.5
555.577,891.7
555.712,889.7
555.848,891.6
555.983,891.9
556.118,888.6
556.253,891.8
556.388,894.3
556.523,890.2
556.658,891.0
556.793,896.6
556.928,895.4
557.063,897.3
557.198,899.7
557.333,904.4
557.468,909.8
557.603,919.7
557.738,943.8
557.873,972.7
558.008,1015.4
558.142,1041.2
558.277,1010.2
558.412,957.6
558.547,926.9
558.682,914.6
558.817,911.3
558.952,911.7
559.087,904.8
559.222,909.1
559.357,905.8
559.492,903.8
559.626,901.6
559.761,905.6
559.896,902.7
560.031,903.7
560.166,901.6
560.301,899.9
560.435,895.7
560.57,898.4
560.705,900.7
560.84,901.0
560.975,900.5
561.109,898.7
561.244,897.1
561.379,895.5
561.514,899.9
561.649,900.5
561.783,896.4
561.918,900.5
562.053,894.7
562.188,897.3
562.322,896.7
562.457,900.3
562.592,899.6
562.726,901.3
562.861,905.4
562.996,912.7
563.131,915.2
563.265,925.1
563.4,940.3
563.535,940.6
563.669,934.3
563.804,925.0
563.939,918.8
564.073,914.0
564.208,908.5
564.342,905.0
564.477,910.5
564.612,912.5
564.746,917.9
564.881,929.8
565.015,931.0
565.15,928.9
565.285,928.0
565.419,924.8
565.554,929.0
565.688,927.7
565.823,933.0
565.957,942.8
566.092,950.0
566.227,959.6
566.361,950.6
566.496,936.7
566.63,923.4
566.765,914.6
566.899,906.3
567.034,905.2
567.168,904.0
567.303,904.2
567.437,905.8
567.572,907.0
567.706,907.2
567.84,917.9
567.975,918.7
568.109,912.7
568.244,913.2
568.378,912.4
568.513,909.7
568.647,909.3
568.781,910.7
568.916,911.6
569.05,916.4
569.185,912.5
569.319,912.4
569.453,914.5
569.588,906.0
569.722,911.8
569.857,909.8
569.991,908.6
570.125,906.7
570.26,911.8
570.394,910.6
570.528,911.8
570.663,909.6
570.797,909.8
570.931,913.8
571.065,909.2
571.2,912.2
571.334,919.6
571.468,929.7
571.603,939.5
571.737,939.4
571.871,932.2
572.005,926.5
572.14,926.6
572.274,924.0
572.408,922.6
572.542,923.5
572.677,920.7
572.811,919.3
572.945,923.8
573.079,918.2
573.213,926.8
573.348,923.6
573.482,925.2
573.616,928.6
573.75,927.2
573.884,932.8
574.018,926.7
574.153,919.5
574.287,924.3
574.421,930.4
574.555,939.6
574.689,931.4
574.823,925.0
574.957,917.0
575.092,916.6
575.226,914.1
575.36,912.9
575.494,913.7
575.628,914.8
575.762,913.0
575.896,917.4
576.03,918.3
576.164,920.2
576.298,930.0
576.432,950.5
576.566,970.2
576.7,984.4
576.834,981.2
576.968,985.5
577.103,972.9
577.237,948.7
577.371,932.2
577.505,926.5
577.639,921.1
577.773,921.5
577.907,913.8
578.04,919.5
578.174,916.7
578.308,914.0
578.442,916.3
578.576,913.4
578.71,915.3
578.844,915.1
578.978,914.4
579.112,913.8
579.246,910.7
579.38,913.2
579.514,914.0
579.648,915.8
579.782,912.4
579.916,915.0
580.049,914.1
580.183,913.2
580.317,909.7
580.451,912.8
580.585,914.8
580.719,916.5
580.853,914.1
580.986,913.4
581.12,916.7
581.254,911.8
581.388,915.3
581.522,913.6
581.656,914.0
581.789,911.1
581.923,913.8
582.057,914.5
582.191,915.7
582.325,913.8
582.458,912.3
582.592,919.1
582.726,915.9
582.86,916.8
582.993,915.9
583.127,915.2
583.261,918.5
583.395,919.9
583.528,918.1
583.662,915.2
583.796,918.5
583.93,918.1
584.063,920.1
584.197,917.1
584.331,916.1
584.464,919.3
584.598,917.4
584.732,920.5
584.865,913.9
584.999,917.1
585.133,919.4
585.266,918.3
585.4,919.3
585.534,918.0
585.667,920.8
585.801,918.3
585.935,918.2
586.068,921.8
586.202,921.5
586.336,921.8
586.469,931.0
586.603,938.3
586.736,947.8
586.87,961.6
587.004,964.5
587.137,970.1
587.271,977.0
587.404,986.2
587.538,983.8
587.671,985.0
587.805,975.5
587.938,957.0
588.072,943.3
588.206,934.9
588.339,924.9
588.473,923.5
588.606,921.9
588.74,921.9
588.873,917.5
589.007,919.3
589.14,915.2
589.274,918.6
589.407,918.1
589.541,917.0
589.674,918.4
589.808,919.3
589.941,914.5
590.074,914.6
590.208,913.9
590.341,919.4
590.475,916.4
590.608,918.0
590.742,913.6
590.875,916.7
591.009,920.8
591.142,914.2
591.275,917.7
591.409,915.4
591.542,920.3
591.676,914.3
591.809,917.8
591.942,918.0
592.076,917.3
592.209,919.0
592.342,922.2
592.476,917.5
592.609,914.7
592.743,916.7
592.876,914.7
593.009,920.8
593.143,915.7
593.276,915.2
593.409,912.8
593.543,913.9
593.676,911.9
593.809,920.3
593.942,918.6
594.076,919.6
594.209,917.0
594.342,915.9
594.476,915.5
594.609,914.3
594.742,919.3
594.875,917.4
595.009,919.0
595.142,917.5
595.275,919.1
595.408,916.0
595.542,917.2
595.675,917.1
595.808,917.3
595.941,918.5
596.075,916.3
596.208,917.8
596.341,915.9
596.474,917.3
596.607,919.6
596.741,917.8
596.874,917.1
597.007,918.3
597.14,913.1
597.273,916.9
597.406,916.4
597.54,914.6
597.673,921.1
597.806,917.3
597.939,917.9
598.072,919.8
598.205,918.6
598.338,919.0
598.472,922.2
598.605,916.6
598.738,917.2
598.871,917.2
599.004,918.0
599.137,916.5
599.27,922.2
599.403,922.1
599.536,914.4
599.67,921.9
599.803,917.3
599.936,921.0
600.069,918.7
600.202,920.2
600.335,920.4
600.468,916.5
600.601,918.0
600.734,917.0
600.867,918.8
601.0,916.0
601.133,917.7
601.266,918.2
601.399,918.7
601.532,918.0
601.665,920.9
601.798,916.5
601.931,916.5
602.064,916.1
602.197,915.4
602.33,918.7
602.463,918.4
602.596,918.1
602.729,919.2
602.862,919.4
602.995,917.4
603.128,917.8
603.261,921.6
603.394,920.6
603.527,919.2
603.66,916.8
603.793,918.8
603.925,917.9
604.058,915.9
604.191,917.9
604.324,917.4
604.457,915.4
604.59,917.4
604.723,913.9
604.856,914.8
604.989,913.9
605.122,915.7
605.254,919.6
605.387,911.2
605.52,913.5
605.653,913.5
605.786,912.8
605.919,913.6
606.052,912.4
606.184,915.5
606.317,914.3
606.45,915.7
606.583,911.4
606.716,914.7
606.849,917.0
606.981,915.9
607.114,916.8
607.247,914.7
607.38,912.7
607.513,915.2
607.645,918.5
607.778,913.8
607.911,912.5
608.044,917.0
608.177,917.7
608.309,911.8
608.442,915.5
608.575,912.1
608.708,917.1
608.84,917.5
608.973,916.3
609.106,915.9
609.239,915.6
609.371,911.9
609.504,912.7
609.637,915.5
609.769,915.1
609.902,916.0
610.035,914.6
610.168,913.5
610.3,913.0
610.433,915.2
610.566,917.3
610.698,916.0
610.831,915.6
610.964,913.6
611.096,913.7
611.229,914.3
611.362,914.9
611.494,913.0
611.627,914.8
611.76,914.9
611.892,912.5
612.025,915.3
612.158,915.2
612.29,914.1
612.423,916.6
612.556,916.1
612.688,919.1
612.821,916.7
612.953,918.7
613.086,918.2
613.219,917.3
613.351,914.6
613.484,919.0
613.616,917.5
613.749,915.6
613.882,919.7
614.014,918.4
614.147,918.3
614.279,916.4
614.412,916.1
614.544,918.5
614.677,917.6
614.809,918.9
614.942,920.1
615.075,915.0
615.207,914.0
615.34,916.4
615.472,918.1
615.605,917.5
615.737,913.5
615.87,918.9
616.002,918.2
616.135,918.7
616.267,916.4
616.4,917.3
616.532,917.7
616.665,916.2
616.797,916.2
616.93,921.8
617.062,915.0
617.195,914.7
617.327,915.5
617.46,917.1
617.592,918.1
617.725,919.1
617.857,911.3
617.989,915.5
618.122,914.0
618.254,916.1
618.387,916.7
618.519,919.1
618.652,917.4
618.784,912.9
618.917,917.8
619.049,915.5
619.181,913.3
619.314,916.9
619.446,911.8
619.579,917.2
619.711,915.9
619.843,920.1
619.976,916.4
620.108,916.0
620.241,914.6
620.373,915.4
620.505,916.4
620.638,918.7
620.77,912.0
620.902,912.6
621.035,915.8
621.167,912.8
621.299,918.8
621.432,912.6
621.564,915.5
621.696,912.0
621.829,917.2
621.961,917.3
622.093,914.2
622.226,918.8
622.358,919.8
622.49,924.0
622.623,926.2
622.755,925.6
622.887,929.3
623.02,932.3
623.152,926.7
623.284,926.6
623.416,927.6
623.549,922.6
623.681,925.4
623.813,925.9
623.946,924.5
624.078,920.9
624.21,918.0
624.342,918.4
624.475,921.0
624.607,919.7
624.739,916.8
624.871,916.6
625.004,917.4
625.136,916.3
625.268,916.5
625.4,914.3
625.533,913.4
625.665,917.7
625.797,917.2
625.929,915.5
626.061,914.0
626.194,914.9
626.326,916.9
626.458,916.8
626.59,916.3
626.722,917.7
626.855,914.6
626.987,918.3
627.119,914.9
627.251,919.7
627.383,915.8
627.516,917.1
627.648,919.3
627.78,921.6
627.912,925.3
628.044,936.8
628.176,952.6
628.308,971.4
628.441,984.8
628.573,996.6
628.705,994.4
628.837,983.4
628.969,975.4
629.101,974.9
629.233,975.8
629.366,974.7
629.498,976.5
629.63,972.5
629.762,975.9
629.894,983.7
630.026,979.1
630.158,981.5
630.29,1000.3
630.422,1010.3
630.554,1033.9
630.687,1081.2
630.819,1163.6
630.951,1295.6
631.083,1399.8
631.215,1397.4
631.347,1335.6
631.479,1237.4
631.611,1166.2
631.743,1106.4
631.875,1071.6
632.007,1052.6
632.139,1039.3
632.271,1023.3
632.403,1016.3
632.535,1010.8
632.667,1011.9
632.799,1022.7
632.931,1053.1
633.063,1077.0
633.195,1099.5
633.328,1106.4
633.46,1096.5
633.592,1087.5
633.724,1065.1
633.856,1042.0
633.988,1018.9
634.12,1000.2
634.252,982.1
634.384,960.9
634.516,952.3
634.647,939.0
634.779,932.0
634.911,927.4
635.043,923.4
635.175,920.2
635.307,918.8
635.439,916.2
635.571,914.9
635.703,915.0
635.835,914.4
635.967,917.2
636.099,913.8
636.231,912.8
636.363,914.0
636.495,915.1
636.627,913.0
636.759,910.6
636.891,911.2
637.023,906.5
637.155,909.5
637.286,907.3
637.418,910.4
637.55,908.2
637.682,908.0
637.814,908.7
637.946,905.6
638.078,906.1
638.21,909.1
638.342,906.2
638.474,908.2
638.605,908.3
638.737,908.9
638.869,905.3
639.001,907.2
639.133,903.2
639.265,906.9
639.397,907.4
639.529,908.5
639.66,904.7
639.792,911.5
639.924,907.9
640.056,909.1
640.188,906.5
640.32,905.6
640.452,904.5
640.583,909.6
640.715,907.0
640.847,904.8
640.979,907.6
641.111,908.2
641.243,906.3
641.374,908.1
641.506,910.6
641.638,907.9
641.77,907.1
641.902,906.7
642.033,908.8
642.165,908.2
642.297,908.8
642.429,908.9
642.561,909.8
642.692,905.1
642.824,903.8
642.956,905.3
643.088,905.3
643.22,906.6
643.351,906.3
643.483,903.5
643.615,902.2
643.747,901.1
643.878,901.3
644.01,900.3
644.142,903.2
644.274,901.6
644.405,900.4
644.537,904.1
644.669,899.4
644.801,901.5
644.932,900.4
645.064,900.8
645.196,900.8
645.328,897.5
645.459,898.1
645.591,899.6
645.723,897.3
645.854,899.2
645.986,899.1
646.118,899.9
646.25,897.2
646.381,897.3
646.513,899.4
646.645,897.9
646.776,898.3
646.908,899.6
647.04,892.0
647.172,900.5
647.303,897.0
647.435,898.5
647.567,899.3
647.698,893.2
647.83,894.7
647.962,894.8
648.093,898.8
648.225,895.5
648.357,898.2
648.488,896.7
648.62,895.2
648.752,895.7
648.883,897.9
649.015,894.3
649.147,894.1
649.278,896.5
649.41,896.0
649.542,896.0
649.673,895.6
649.805,896.9
649.937,894.4
650.068,893.1
650.2,892.4
650.331,892.7
650.463,895.2
650.595,898.0
650.726,894.2
650.858,895.5
650.99,890.0
651.121,895.6
651.253,892.8
651.384,895.2
651.516,893.3
651.648,896.4
651.779,894.3
651.911,895.4
652.042,896.7
652.174,895.0
652.306,889.6
652.437,893.3
652.569,895.2
652.7,897.7
652.832,895.6
652.963,893.3
653.095,893.3
653.227,893.2
653.358,890.4
653.49,894.1
653.621,893.3
653.753,894.7
653.884,894.8
654.016,889.7
654.148,890.1
654.279,895.8
654.411,893.6
654.542,891.1
654.674,893.0
654.805,890.7
654.937,892.7
655.068,893.9
655.2,893.6
655.331,897.0
655.463,893.3
655.595,892.5
655.726,891.4
655.858,893.7
655.989,892.1
656.121,891.2
656.252,892.8
656.384,888.7
656.515,894.0
656.647,891.8
656.778,893.6
656.91,892.7
657.041,887.7
657.173,891.4
657.304,894.2
657.436,890.5
657.567,897.4
657.699,892.5
657.83,893.2
657.962,893.8
658.093,890.0
658.225,892.5
658.356,891.6
658.488,889.9
658.619,888.5
658.751,890.7
658.882,890.5
659.013,892.4
659.145,887.3
659.276,890.5
659.408,890.3
659.539,891.3
659.671,891.5
659.802,891.4
659.934,889.1
660.065,888.9
660.197,891.0
660.328,892.4
660.459,889.3
660.591,890.2
660.722,887.2
660.854,893.0
660.985,888.7
661.117,889.5
661.248,887.3
661.38,891.3
661.511,886.1
661.642,888.0
661.774,885.8
661.905,886.6
662.037,888.9
662.168,887.2
662.299,888.2
662.431,885.9
662.562,886.9
662.694,888.2
662.825,886.6
662.957,887.0
663.088,886.6