File: spectra/VLFR_01-LDPE_bio_Raman_c1713c6a.csv
nm,Intensity
528.626,1868.5
528.795,1868.2
528.963,1867.6
529.132,1868.4
529.3,1869.5
529.469,1870.7
529.637,1868.0
529.806,1868.5
529.974,1868.0
530.143,1868.4
530.311,1868.1
530.48,1867.4
530.648,1867.6
530.816,1869.4
530.985,1868.4
531.153,1870.7
531.322,1869.8
531.49,1873.4
531.658,1890.4
531.827,2155.3
531.995,3313.3
532.164,3161.6
532.332,2126.4
532.5,1870.7
532.669,1868.7
532.837,1868.9
533.006,1872.2
533.174,1867.9
533.342,1870.6
533.511,1885.4
533.679,1977.5
533.847,2182.1
534.016,2325.6
534.184,2350.0
534.352,2327.7
534.521,2324.7
534.689,2310.2
534.857,2311.4
535.025,2288.3
535.194,2264.1
535.362,2236.4
535.53,2210.9
535.699,2182.5
535.867,2184.8
536.035,2159.0
536.203,2146.2
536.372,2150.4
536.54,2138.1
536.708,2136.2
536.876,2118.5
537.044,2136.5
537.213,2124.9
537.381,2141.4
537.549,2138.9
537.717,2135.7
537.885,2130.2
538.054,2133.4
538.222,2116.4
538.39,2113.7
538.558,2109.0
538.726,2110.4
538.894,2098.9
539.063,2100.4
539.231,2097.5
539.399,2099.5
539.567,2082.1
539.735,2085.0
539.903,2085.7
540.071,2086.5
540.239,2087.6
540.408,2082.0
540.576,2089.2
540.744,2085.5
540.912,2076.6
541.08,2090.4
541.248,2075.2
541.416,2077.4
541.584,2085.5
541.752,2084.6
541.92,2085.7
542.088,2077.6
542.256,2083.7
542.424,2089.4
542.592,2089.5
542.76,2100.7
542.928,2100.1
543.096,2087.2
543.264,2083.9
543.432,2089.9
543.6,2099.8
543.768,2092.5
543.936,2090.6
544.104,2093.7
544.272,2086.4
544.44,2086.4
544.608,2092.3
544.776,2089.1
544.944,2105.7
545.112,2092.6
545.28,2107.9
545.448,2097.4
545.616,2092.2
545.784,2099.2
545.951,2094.6
546.119,2101.2
546.287,2098.8
546.455,2104.4
546.623,2105.0
546.791,2119.3
546.959,2115.6
547.127,2120.0
547.294,2119.6
547.462,2126.1
547.63,2122.3
547.798,2123.4
547.966,2117.2
548.134,2121.5
548.301,2134.5
548.469,2140.5
548.637,2126.9
548.805,2125.1
548.972,2127.8
549.14,2135.5
549.308,2131.1
549.476,2128.3
549.644,2123.2
549.811,2125.2
549.979,2146.1
550.147,2134.8
550.315,2149.6
550.482,2141.3
550.65,2141.7
550.818,2139.5
550.985,2138.2
551.153,2157.4
551.321,2146.7
551.488,2157.9
551.656,2158.8
551.824,2149.0
551.991,2167.3
552.159,2171.9
552.327,2161.1
552.494,2163.4
552.662,2161.7
552.83,2162.0
552.997,2174.0
553.165,2176.4
553.333,2188.5
553.5,2207.1
553.668,2183.3
553.835,2190.7
554.003,2189.8
554.171,2198.5
554.338,2180.9
554.506,2207.6
554.673,2190.9
554.841,2194.7
555.008,2220.4
555.176,2204.2
555.343,2208.0
555.511,2206.1
555.679,2207.5
555.846,2210.6
556.014,2221.9
556.181,2226.4
556.349,2226.0
556.516,2215.5
556.684,2229.3
556.851,2242.6
557.018,2246.5
557.186,2256.3
557.353,2240.9
557.521,2261.0
557.688,2263.8
557.856,2279.6
558.023,2291.1
558.191,2295.4
558.358,2287.9
558.525,2279.9
558.693,2277.2
558.86,2296.3
559.028,2262.0
559.195,2255.4
559.362,2257.0
559.53,2265.4
559.697,2244.4
559.864,2256.0
560.032,2249.5
560.199,2250.8
560.366,2249.1
560.534,2271.5
560.701,2259.0
560.868,2252.8
561.036,2276.6
561.203,2280.7
561.37,2287.8
561.538,2267.6
561.705,2281.6
561.872,2289.5
562.039,2298.9
562.207,2322.4
562.374,2312.9
562.541,2303.2
562.708,2342.2
562.876,2333.5
563.043,2340.4
563.21,2372.2
563.377,2380.7
563.545,2415.0
563.712,2544.0
563.879,2769.7
564.046,2986.7
564.213,2810.2
564.38,2593.9
564.548,2543.0
564.715,2548.5
564.882,2527.0
565.049,2492.7
565.216,2464.8
565.383,2476.3
565.551,2480.9
565.718,2523.4
565.885,2669.3
566.052,2929.7
566.219,2982.0
566.386,2717.3
566.553,2533.5
566.72,2491.4
566.887,2494.6
567.054,2455.4
567.221,2517.2
567.388,2509.8
567.555,2533.4
567.722,2494.7
567.889,2460.0
568.057,2489.9
568.224,2475.3
568.391,2487.2
568.558,2493.3
568.725,2489.1
568.892,2502.9
569.058,2514.8
569.225,2514.3
569.392,2535.4
569.559,2558.0
569.726,2557.1
569.893,2556.4
570.06,2562.9
570.227,2583.0
570.394,2612.5
570.561,2637.6
570.728,2639.6
570.895,2656.9
571.062,2732.0
571.229,2878.3
571.395,3359.6
571.562,3716.1
571.729,3363.9
571.896,2987.2
572.063,2911.6
572.23,2830.8
572.397,2770.1
572.563,2770.6
572.73,2747.1
572.897,2718.5
573.064,2733.6
573.231,2753.0
573.397,2748.9
573.564,2761.3
573.731,2756.8
573.898,2833.7
574.064,2838.7
574.231,2813.1
574.398,2790.3
574.565,2774.5
574.731,2826.3
574.898,2823.6
575.065,2842.4
575.232,2881.9
575.398,3060.1
575.565,3234.4
575.732,3260.5
575.898,3389.3
576.065,3604.8
576.232,3867.6
576.398,3934.2
576.565,3755.3
576.732,3712.9
576.898,3662.2
577.065,3660.7
577.232,3521.2
577.398,3405.3
577.565,3301.4
577.731,3244.7
577.898,3246.5
578.065,3218.9
578.231,3275.4
578.398,3267.8
578.564,3304.8
578.731,3322.5
578.897,3364.4
579.064,3408.1
579.23,3455.5
579.397,3498.3
579.563,3493.5
579.73,3527.5
579.896,3617.7
580.063,3621.3
580.229,3631.4
580.396,3654.5
580.562,3781.7
580.729,3801.4
580.895,3820.4
581.062,3871.1
581.228,3919.6
581.395,3944.0
581.561,3990.9
581.728,4022.6
581.894,3992.3
582.06,4087.9
582.227,4139.9
582.393,4226.1
582.56,4235.2
582.726,4229.7
582.892,4326.7
583.059,4405.8
583.225,4343.1
583.391,4525.2
583.558,4594.2
583.724,4614.2
583.89,4603.8
584.057,4738.7
584.223,4793.9
584.389,4817.2
584.556,4795.7
584.722,4982.7
584.888,5013.5
585.054,5022.2
585.221,5096.8
585.387,5231.2
585.553,5310.3
585.719,5276.1
585.886,5446.5
586.052,5403.4
586.218,5517.7
586.384,5556.2
586.55,5690.7
586.717,5820.4
586.883,5893.1
587.049,5960.5
587.215,6082.7
587.381,6177.9
587.548,6293.7
587.714,6354.8
587.88,6507.4
588.046,6641.8
588.212,6569.9
588.378,6802.3
588.544,6816.0
588.71,6909.8
588.876,7079.3
589.043,7031.1
589.209,7223.7
589.375,7288.8
589.541,7471.7
589.707,7318.1
589.873,7549.8
590.039,7623.9
590.205,7581.2
590.371,7677.0
590.537,7832.7
590.703,7819.8
590.869,8011.9
591.035,8029.4
591.201,8075.0
591.367,8236.5
591.533,8163.8
591.699,8119.8
591.865,8273.4
592.031,8211.5
592.197,8329.9
592.363,8384.5
592.529,8386.3
592.694,8538.8
592.86,8444.9
593.026,8409.2
593.192,8490.2
593.358,8413.7
593.524,8399.0
593.69,8377.0
593.856,8418.5
594.021,8482.3
594.187,8389.1
594.353,8384.7
594.519,8528.7
594.685,8250.5
594.851,8331.5
595.016,8505.9
595.182,8475.6
595.348,8370.1
595.514,8472.1
595.68,8511.4
595.845,8566.2
596.011,8648.5
596.177,8485.0
596.342,8526.8
596.508,8661.8
596.674,8625.3
596.84,8646.2
597.005,8682.9
597.171,8687.1
597.337,8703.2
597.502,8521.2
597.668,8852.5
597.834,8759.6
597.999,8533.0
598.165,8705.4
598.331,8802.1
598.496,8779.9
598.662,8808.4
598.828,8812.9
598.993,9006.4
599.159,8843.6
599.324,8884.6
599.49,8916.7
599.656,9013.7
599.821,8982.1
599.987,9011.9
600.152,8938.4
600.318,8853.3
600.483,8918.0
600.649,8803.6
600.814,8912.9
600.98,8989.8
601.145,8829.9
601.311,8885.7
601.476,8879.7
601.642,8827.2
601.807,8857.8
601.973,8860.4
602.138,8476.0
602.304,8757.0
602.469,8630.1
602.635,8451.9
602.8,8254.9
602.965,8596.6
603.131,8307.9
603.296,8367.9
603.462,8133.8
603.627,8149.7
603.792,8178.5
603.958,8002.3
604.123,7905.0
604.288,8027.6
604.454,7929.8
604.619,7590.5
604.784,7620.0
604.95,7841.6
605.115,7402.6
605.28,7355.9
605.446,7438.2
605.611,7272.8
605.776,7132.4
605.941,7154.3
606.107,7127.2
606.272,7092.4
606.437,6936.7
606.602,6859.7
606.767,6681.6
606.933,6704.4
607.098,6799.6
607.263,6697.8
607.428,6448.2
607.593,6464.5
607.759,6380.5
607.924,6405.5
608.089,6332.0
608.254,6227.2
608.419,6266.9
608.584,6130.3
608.749,6133.8
608.915,6158.2
609.08,5991.0
609.245,6017.9
609.41,5878.9
609.575,5893.2
609.74,5883.5
609.905,5818.7
610.07,5777.9
610.235,5759.9
610.4,5738.6
610.565,5676.0
610.73,5682.3
610.895,5640.3
611.06,5498.6
611.225,5491.6
611.39,5535.0
611.555,5488.1
611.72,5345.7
611.885,5372.4
612.05,5411.8
612.215,5309.5
612.38,5326.3
612.545,5290.7
612.71,5267.9
612.875,5271.2
613.04,5184.7
613.204,5088.7
613.369,5101.7
613.534,5067.9
613.699,5129.6
613.864,5022.2
614.029,4960.0
614.194,4991.9
614.358,5050.1
614.523,4881.7
614.688,4973.4
614.853,4896.9
615.018,4863.6
615.182,4843.5
615.347,4884.9
615.512,4809.7
615.677,4764.7
615.841,4748.1
616.006,4743.5
616.171,4636.9
616.336,4635.5
616.5,4647.7
616.665,4666.9
616.83,4512.3
616.994,4543.5
617.159,4585.8
617.324,4603.2
617.489,4603.1
617.653,4519.3
617.818,4525.3
617.982,4496.2
618.147,4493.5
618.312,4522.5
618.476,4424.5
618.641,4441.4
618.805,4426.6
618.97,4414.6
619.135,4336.2
619.299,4408.1
619.464,4386.8
619.628,4358.8
619.793,4345.5
619.957,4300.0
620.122,4302.1
620.286,4368.6
620.451,4264.1
620.615,4282.4
620.78,4303.6
620.944,4253.1
621.109,4211.5
621.273,4311.6
621.438,4374.4
621.602,4340.5
621.767,4342.6
621.931,4414.3
622.095,4507.4
622.26,4415.2
622.424,4459.3
622.589,4338.7
622.753,4292.1
622.917,4185.9
623.082,4193.4
623.246,4117.8
623.41,4124.3
623.575,4079.4
623.739,4056.9
623.903,4042.3
624.068,4073.8
624.232,4089.0
624.396,4013.3
624.561,4021.5
624.725,3934.8
624.889,4034.6
625.053,3978.1
625.218,4004.9
625.382,4111.2
625.546,4028.5
625.71,4054.6
625.875,4038.0
626.039,4111.9
626.203,4183.2
626.367,4368.7
626.531,4760.5
626.695,5488.8
626.86,6688.2
627.024,7997.8
627.188,8918.5
627.352,8980.3
627.516,8160.3
627.68,7356.6
627.844,7173.7
628.008,7057.7
628.172,7289.9
628.337,8464.1
628.501,9084.8
628.665,8625.6
628.829,7633.9
628.993,7288.0
629.157,6916.2
629.321,6820.8
629.485,6453.4
629.649,6320.1
629.813,6039.6
629.977,5910.6
630.141,5711.8
630.305,5644.0
630.469,5699.5
630.633,5540.8
630.797,5256.8
630.96,4915.1
631.124,4557.0
631.288,4339.2
631.452,4252.2
631.616,4247.4
631.78,4261.0
631.944,4113.9
632.108,4009.7
632.272,4081.3
632.435,4024.5
632.599,4043.0
632.763,3980.4
632.927,4021.5
633.091,4000.0
633.254,4012.6
633.418,3984.7
633.582,3974.9
633.746,4036.0
633.91,4062.2
634.073,4058.2
634.237,3968.2
634.401,3967.1
634.564,3962.1
634.728,3987.3
634.892,4029.4
635.056,4027.5
635.219,4050.7
635.383,4043.3
635.547,4041.7
635.71,3978.4
635.874,4000.1
636.038,4051.5
636.201,4074.0
636.365,4043.3
636.528,4050.1
636.692,4084.7
636.856,4073.6
637.019,4132.9
637.183,4095.5
637.346,4086.0
637.51,4201.5
637.673,4136.8
637.837,4094.6
638.0,4171.7
638.164,4203.1
638.327,4203.7
638.491,4201.9
638.654,4231.7
638.818,4210.0
638.981,4209.2
639.145,4249.6
639.308,4292.0
639.472,4266.7
639.635,4127.5
639.799,4184.6
639.962,4198.5
640.125,4341.1
640.289,4291.1
640.452,4327.1
640.616,4319.4
640.779,4318.1
640.942,4241.6
641.106,4371.5
641.269,4357.2
641.432,4388.9
641.596,4356.9
641.759,4237.1
641.922,4347.5
642.085,4370.9
642.249,4429.6
642.412,4387.5
642.575,4403.8
642.738,4437.1
642.902,4447.6
643.065,4456.1
643.228,4377.6
643.391,4452.3
643.555,4430.4
643.718,4455.6
643.881,4388.7
644.044,4506.8
644.207,4489.9
644.37,4493.4
644.534,4521.6
644.697,4537.1
644.86,4448.1
645.023,4470.0
645.186,4491.7
645.349,4443.8
645.512,4425.8
645.675,4380.8
645.838,4459.6
646.001,4368.5
646.164,4423.9
646.327,4447.3
646.49,4423.6
646.653,4331.3
646.816,4410.6
646.979,4375.4
647.142,4382.5
647.305,4362.5
647.468,4205.3
647.631,4377.1
647.794,4250.3
647.957,4321.7
648.12,4354.0
648.283,4321.0
648.446,4271.5
648.609,4296.8
648.772,4305.7
648.935,4259.9
649.098,4226.0
649.26,4265.7
649.423,4188.1
649.586,4218.0
649.749,4213.5
649.912,4185.7
650.075,4213.7
650.237,4147.7
650.4,4101.2
650.563,4153.2
650.726,4165.9
650.888,4068.4
651.051,4152.7
651.214,4124.5
651.377,4121.7
651.539,4074.4
651.702,4071.5
651.865,4143.5
652.027,4040.7
652.19,4098.7
652.353,3989.4
652.515,4095.3
652.678,4003.7
652.841,3964.8
653.003,3966.7
653.166,3975.4
653.329,3859.2
653.491,3982.5
653.654,3949.8
653.816,4013.9
653.979,3867.5
654.142,3917.8
654.304,3893.7
654.467,3879.8
654.629,3810.2
654.792,3911.1
654.954,3819.8
655.117,3915.0
655.279,3860.1
655.442,3775.7
655.604,3774.9
655.767,3854.7
655.929,3879.7
656.091,3787.7
656.254,3755.0
656.416,3755.6
656.579,3753.7
656.741,3675.2
656.904,3668.8
657.066,3735.4
657.228,3698.0
657.391,3632.5
657.553,3568.7
657.715,3578.0
657.878,3584.7
658.04,3566.4
658.202,3599.2
658.365,3454.4
658.527,3466.3
658.689,3456.2
658.851,3430.0
659.014,3383.3
659.176,3543.8
659.338,3445.7
659.5,3316.7
659.663,3309.4
659.825,3397.7
659.987,3340.0
660.149,3336.6
660.311,3274.0
660.474,3246.5
660.636,3281.7
660.798,3211.7
660.96,3195.6
661.041,3207.3