File: spectra/VLFR_02-HDPE_nobio_Raman_5177bd72.csv
cm-1,Intensity
-123.878,1853.65
-117.855,1853.0
-111.836,1853.2
-105.821,1853.6
-99.8104,1853.45
-93.8036,1853.3
-87.8007,1853.85
-81.8019,1853.45
-75.807,1853.0
-69.8161,1853.9
-63.8293,1853.95
-57.8464,1852.95
-51.8675,1853.3
-45.8926,1854.8
-39.9216,1854.2
-33.9547,1854.0
-27.9917,1856.4
-22.0326,1857.6
-16.0776,1872.55
-10.1265,2127.6
-4.17932,2933.2
1.76388,2731.65
7.70313,1925.65
13.6384,1856.05
19.5698,1856.2
25.4972,1853.45
31.4207,1854.2
37.3403,1858.15
43.256,1859.45
49.1677,1886.85
55.0755,2046.55
60.9794,2342.95
66.8794,2520.05
72.7754,2573.7
78.6676,2606.5
84.5559,2627.0
90.4402,2640.9
96.3207,2660.25
102.197,2709.1
108.07,2705.3
113.939,2709.1
119.804,2706.2
125.665,2735.2
131.522,2640.8
137.375,2679.95
143.225,2701.1
149.07,2695.6
154.912,2707.5
160.75,2669.45
166.584,2669.85
172.414,2687.05
178.241,2683.35
184.063,2690.55
189.882,2713.45
195.697,2698.2
201.508,2733.15
207.315,2718.35
213.119,2711.2
218.918,2695.2
224.714,2700.3
230.506,2675.1
236.294,2700.3
242.078,2686.2
247.859,2693.8
253.636,2685.65
259.409,2671.7
265.178,2668.75
270.943,2681.65
276.705,2692.0
282.463,2675.0
288.217,2648.7
293.967,2649.15
299.713,2662.65
305.456,2668.0
311.195,2652.55
316.93,2661.25
322.662,2628.85
328.389,2658.0
334.113,2654.3
339.834,2659.6
345.55,2659.9
351.263,2631.8
356.972,2620.7
362.677,2656.75
368.379,2648.45
374.077,2642.7
379.771,2633.75
385.461,2631.7
391.148,2618.65
396.831,2592.8
402.51,2633.0
408.186,2618.4
413.858,2603.3
419.526,2605.85
425.19,2600.55
430.851,2594.85
436.508,2591.85
442.162,2614.35
447.811,2563.1
453.458,2581.6
459.1,2557.55
464.739,2559.45
470.374,2577.2
476.005,2576.2
481.633,2563.6
487.257,2545.4
492.878,2569.05
498.494,2566.9
504.107,2565.9
509.717,2562.05
515.323,2574.45
520.925,2534.6
526.524,2538.7
532.119,2560.0
537.71,2551.5
543.298,2541.45
548.882,2535.9
554.462,2543.25
560.039,2542.25
565.613,2549.5
571.182,2538.65
576.748,2532.75
582.311,2547.75
587.87,2547.35
593.425,2541.45
598.977,2535.1
604.525,2520.7
610.069,2537.7
615.61,2514.5
621.148,2533.15
626.682,2535.5
632.212,2525.15
637.739,2546.5
643.262,2542.3
648.781,2559.8
654.297,2534.9
659.81,2551.75
665.319,2538.05
670.824,2546.35
676.326,2551.15
681.824,2548.8
687.319,2529.75
692.81,2511.85
698.298,2537.8
703.782,2516.3
709.262,2529.0
714.739,2525.7
720.213,2509.6
725.683,2508.25
731.15,2528.6
736.613,2508.9
742.072,2535.3
747.528,2521.2
752.981,2505.4
758.43,2520.8
763.875,2521.25
769.317,2525.95
774.756,2515.1
780.191,2513.2
785.623,2515.55
791.051,2499.9
796.475,2513.2
801.897,2490.2
807.314,2499.1
812.729,2510.05
818.139,2509.45
823.547,2506.7
828.951,2512.7
834.351,2500.35
839.748,2507.75
845.142,2515.15
850.532,2499.2
855.918,2496.4
861.302,2503.45
866.681,2524.4
872.058,2508.65
877.431,2516.85
882.8,2508.75
888.166,2518.85
893.529,2498.55
898.888,2509.05
904.244,2507.1
909.596,2522.85
914.945,2511.8
920.291,2522.6
925.633,2494.65
930.972,2525.9
936.308,2513.2
941.64,2514.8
946.968,2505.65
952.294,2532.85
957.615,2526.95
962.934,2524.4
968.249,2523.75
973.561,2522.45
978.869,2523.75
984.174,2528.55
989.476,2543.85
994.774,2540.95
1000.07,2538.5
1005.36,2562.25
1010.65,2549.25
1015.93,2556.25
1021.22,2559.85
1026.49,2583.25
1031.77,2573.95
1037.04,2567.65
1042.31,2579.15
1047.57,2615.7
1052.83,2652.5
1058.09,2793.1
1063.35,2816.25
1068.6,2738.05
1073.85,2658.75
1079.09,2654.2
1084.33,2653.6
1089.57,2664.65
1094.81,2667.9
1100.04,2653.4
1105.27,2665.55
1110.49,2675.85
1115.71,2674.9
1120.93,2766.05
1126.15,2906.7
1131.36,2938.15
1136.57,2801.5
1141.77,2720.35
1146.98,2718.15
1152.18,2702.65
1157.37,2696.2
1162.56,2723.0
1167.75,2753.15
1172.94,2772.0
1178.12,2749.3
1183.3,2746.6
1188.48,2756.25
1193.65,2769.15
1198.82,2771.6
1203.99,2764.25
1209.15,2804.1
1214.31,2796.1
1219.46,2796.15
1224.62,2816.85
1229.77,2831.35
1234.92,2851.75
1240.06,2857.45
1245.2,2863.9
1250.34,2878.05
1255.47,2899.85
1260.6,2895.65
1265.73,2891.6
1270.85,2917.7
1275.97,2971.55
1281.09,2985.4
1286.21,3036.45
1291.32,3283.4
1296.43,3433.7
1301.53,3224.25
1306.63,3120.05
1311.73,3081.55
1316.83,3043.05
1321.92,3109.25
1327.01,3095.35
1332.1,3109.3
1337.18,3104.45
1342.26,3135.85
1347.34,3131.3
1352.41,3120.75
1357.48,3147.65
1362.55,3188.45
1367.61,3206.4
1372.67,3225.55
1377.73,3213.5
1382.78,3217.2
1387.84,3243.95
1392.88,3250.0
1397.93,3333.9
1402.97,3282.35
1408.01,3328.15
1413.05,3413.35
1418.08,3466.95
1423.11,3534.7
1428.14,3551.65
1433.16,3674.7
1438.18,3815.8
1443.2,3844.85
1448.21,3795.8
1453.22,3754.05
1458.23,3747.8
1463.23,3836.65
1468.23,3850.9
1473.23,3745.3
1478.23,3765.3
1483.22,3779.15
1488.21,3704.25
1493.2,3753.6
1498.18,3779.1
1503.16,3758.35
1508.14,3843.35
1513.11,3967.35
1518.08,3863.65
1523.05,3948.75
1528.01,3951.7
1532.97,4001.2
1537.93,3993.15
1542.89,4113.8
1547.84,4090.15
1552.79,4164.05
1557.73,4188.8
1562.68,4199.65
1567.62,4262.1
1572.56,4243.6
1577.49,4304.25
1582.42,4370.9
1587.35,4309.45
1592.27,4410.75
1597.19,4414.75
1602.11,4476.45
1607.03,4468.45
1611.94,4491.3
1616.85,4531.2
1621.76,4517.35
1626.66,4567.35
1631.56,4677.4
1636.46,4667.3
1641.36,4673.0
1646.25,4753.2
1651.14,4730.95
1656.02,4766.6
1660.9,4754.8
1665.78,4825.85
1670.66,4894.35
1675.54,4883.15
1680.41,5012.05
1685.27,4922.65
1690.14,4992.35
1695.0,4988.65
1699.86,5018.9
1704.71,5127.5
1709.57,5075.25
1714.42,5076.7
1719.26,5143.5
1724.11,5206.95
1728.95,5245.9
1733.79,5207.65
1738.62,5268.5
1743.46,5214.85
1748.28,5356.3
1753.11,5363.75
1757.93,5465.15
1762.75,5463.1
1767.57,5475.35
1772.39,5560.0
1777.2,5564.8
1782.01,5652.45
1786.81,5639.95
1791.62,5760.7
1796.41,5717.3
1801.21,5651.4
1806.01,5869.25
1810.8,5849.3
1815.59,5793.65
1820.37,5825.95
1825.15,5832.0
1829.93,5940.9
1834.71,5922.1
1839.48,5979.15
1844.25,6028.65
1849.02,5999.1
1853.79,6032.85
1858.55,6059.9
1863.31,6256.1
1868.06,6182.35
1872.82,6296.25
1877.57,6272.35
1882.31,6326.7
1887.06,6246.85
1891.8,6297.3
1896.54,6297.4
1901.28,6506.0
1906.01,6551.95
1910.74,6493.65
1915.47,6514.0
1920.19,6564.85
1924.91,6499.7
1929.63,6584.9
1934.35,6582.9
1939.06,6639.7
1943.77,6599.05
1948.48,6614.5
1953.19,6700.8
1957.89,6671.1
1962.59,6736.7
1967.28,6735.25
1971.98,6836.45
1976.67,6804.4
1981.35,6777.3
1986.04,6929.9
1990.72,7030.9
1995.4,6918.45
2000.08,6908.3
2004.75,7111.3
2009.42,7113.6
2014.09,7199.3
2018.75,7057.55
2023.42,7250.3
2028.08,7119.55
2032.73,7275.7
2037.39,7312.0
2042.04,7270.8
2046.69,7273.05
2051.33,7297.0
2055.97,7285.85
2060.61,7318.6
2065.25,7437.6
2069.88,7429.75
2074.52,7370.4
2079.15,7394.75
2083.77,7374.3
2088.39,7503.85
2093.01,7502.45
2097.63,7486.45
2102.25,7491.25
2106.86,7644.5
2111.47,7547.2
2116.08,7610.05
2120.68,7501.3
2125.28,7626.65
2129.88,7572.75
2134.47,7697.85
2139.07,7641.65
2143.66,7467.85
2148.24,7504.35
2152.83,7506.15
2157.41,7588.95
2161.99,7496.35
2166.57,7528.25
2171.14,7414.65
2175.71,7498.4
2180.28,7499.65
2184.84,7360.4
2189.41,7466.4
2193.97,7402.3
2198.52,7274.45
2203.08,7326.75
2207.63,7238.7
2212.18,7359.75
2216.73,7151.6
2221.27,7071.2
2225.81,7205.15
2230.35,7013.0
2234.89,7187.9
2239.42,7056.1
2243.95,6929.35
2248.48,6967.25
2253.0,6935.7
2257.52,6894.2
2262.04,6881.8
2266.56,6775.8
2271.07,6744.25
2275.58,6517.35
2280.09,6676.35
2284.6,6628.55
2289.1,6609.05
2293.6,6515.45
2298.1,6505.3
2302.6,6484.65
2307.09,6341.2
2311.58,6426.1
2316.07,6337.05
2320.55,6357.05
2325.03,6243.75
2329.51,6210.45
2333.99,6199.15
2338.46,6164.5
2342.93,6084.2
2347.4,6059.2
2351.87,6039.5
2356.33,5991.85
2360.79,5922.2
2365.25,5927.85
2369.71,5928.75
2374.16,5823.75
2378.61,5770.6
2383.06,5820.95
2387.5,5769.4
2391.94,5698.45
2396.38,5679.9
2400.82,5700.25
2405.26,5703.85
2409.69,5608.0
2414.12,5617.55
2418.54,5490.1
2422.97,5598.45
2427.39,5480.15
2431.81,5508.9
2436.22,5413.5
2440.64,5435.1
2445.05,5410.0
2449.46,5423.7
2453.86,5276.3
2458.27,5265.05
2462.67,5240.0
2467.06,5223.55
2471.46,5229.65
2475.85,5188.8
2480.24,5190.25
2484.63,5135.7
2489.02,5138.4
2493.4,5039.75
2497.78,5058.25
2502.16,5047.2
2506.53,5047.65
2510.9,4993.7
2515.27,5006.25
2519.64,4965.25
2524.0,4970.55
2528.37,4929.8
2532.73,4906.9
2537.08,4834.6
2541.44,4878.1
2545.79,4854.7
2550.14,4796.6
2554.48,4758.85
2558.83,4732.2
2563.17,4725.75
2567.51,4768.55
2571.85,4735.2
2576.18,4700.7
2580.51,4637.0
2584.84,4713.0
2589.17,4649.4
2593.49,4627.9
2597.81,4679.05
2602.13,4571.3
2606.45,4564.6
2610.76,4617.4
2615.07,4551.8
2619.38,4590.8
2623.69,4588.3
2627.99,4510.3
2632.29,4498.65
2636.59,4558.3
2640.89,4500.95
2645.18,4490.1
2649.47,4520.8
2653.76,4498.0
2658.05,4480.0
2662.33,4399.5
2666.61,4383.85
2670.89,4410.45
2675.17,4449.4
2679.44,4421.6
2683.71,4358.6
2687.98,4367.1
2692.25,4356.55
2696.51,4362.45
2700.77,4351.55
2705.03,4428.2
2709.29,4360.7
2713.54,4410.75
2717.79,4445.1
2722.04,4356.6
2726.29,4388.3
2730.53,4360.9
2734.77,4289.95
2739.01,4288.0
2743.25,4299.0
2747.48,4209.6
2751.71,4255.0
2755.94,4218.4
2760.17,4217.9
2764.39,4214.05
2768.61,4205.55
2772.83,4239.5
2777.05,4190.0
2781.27,4170.2
2785.48,4136.45
2789.69,4219.7
2793.89,4219.6
2798.1,4183.3
2802.3,4162.35
2806.5,4160.25
2810.7,4162.75
2814.89,4173.65
2819.09,4197.75
2823.28,4220.0
2827.46,4300.4
2831.65,4389.15
2835.83,4671.3
2840.01,5164.65
2844.19,5602.35
2848.37,5627.8
2852.54,5524.3
2856.71,5418.15
2860.88,5288.1
2865.05,5143.65
2869.21,5086.5
2873.37,5258.35
2877.53,5823.55
2881.69,6187.85
2885.84,5891.05
2889.99,5362.5
2894.14,5146.9
2898.29,5039.5
2902.43,4898.05
2906.58,4820.15
2910.72,4745.55
2914.85,4668.4
2918.99,4587.55
2923.12,4565.4
2927.25,4585.45
2931.38,4514.15
2935.5,4546.15
2939.63,4426.25
2943.75,4311.0
2947.87,4144.35
2951.98,4171.95
2956.1,4241.95
2960.21,4114.8
2964.32,4070.25
2968.42,4072.45
2972.53,4078.5
2976.63,4126.65
2980.73,4135.0
2984.83,4113.5
2988.92,4095.8
2993.01,4076.7
2997.1,4112.35
3001.19,4076.65
3005.28,4064.7
3009.36,4104.2
3013.44,4106.95
3017.52,4141.7
3021.6,4092.7
3025.67,4072.55
3029.74,4036.85
3033.81,4022.75
3037.88,4042.25
3041.94,4137.5
3046.01,4102.2
3050.07,4036.65
3054.12,4056.5
3058.18,3998.95
3062.23,4025.65
3066.28,4042.75
3070.33,4025.4
3074.38,4035.45
3078.42,4028.6
3082.46,4022.25
3086.5,4042.6
3090.54,4032.95
3094.57,4049.05
3098.6,4016.75
3102.63,4038.8
3106.66,4071.8
3110.69,4024.85
3114.71,4011.8
3118.73,4082.5
3122.75,4051.6
3126.77,4064.35
3130.78,3988.7
3134.79,4044.8
3138.8,4030.75
3142.81,3984.3
3146.81,4108.7
3150.82,4060.5
3154.82,3987.75
3158.81,4009.65
3162.81,4070.8
3166.8,3971.05
3170.79,4040.55
3174.78,4060.85
3178.77,4003.5
3182.75,4015.8
3186.74,3986.6
3190.72,4020.85
3194.69,3964.25
3198.67,4041.4
3202.64,3990.95
3206.61,4042.45
3210.58,4074.9
3214.55,3988.9
3218.51,4005.1
3222.47,4056.75
3226.43,4088.5
3230.39,4040.65
3234.35,4017.8
3238.3,4044.25
3242.25,4049.9
3246.2,3996.65
3250.15,4028.75
3254.09,4004.05
3258.03,4043.7
3261.97,4087.9
3265.91,4016.75
3269.84,4059.55
3273.78,4003.0
3277.71,3979.5
3281.64,4007.9
3285.56,4063.3
3289.49,4011.25
3293.41,4060.2
3297.33,4057.35
3301.25,4006.95
3305.16,4107.9
3309.07,4020.5
3312.99,3990.0
3316.89,4013.65
3320.8,4012.9
3324.7,3946.7
3328.61,3983.35
3332.51,3990.65
3336.4,4018.45
3340.3,3962.2
3344.19,4009.9
3348.08,3965.5
3351.97,3975.5
3355.86,3929.3
3359.74,3947.6
3363.63,3982.7
3367.51,3894.3
3371.39,3890.55
3375.26,3972.4
3379.13,4037.8
3383.01,3899.15
3386.88,3906.55
3390.74,3936.65
3394.61,3935.65
3398.47,3932.95
3402.33,3933.45
3406.19,3886.4
3410.05,3897.85
3413.9,3901.9
3417.75,3911.3
3421.6,3915.5
3425.45,3929.85
3429.3,3836.85
3433.14,3856.85
3436.98,3908.2
3440.82,3839.15
3444.66,3932.35
3448.49,3844.55
3452.32,3838.2
3456.15,3830.35
3459.98,3883.25
3463.81,3795.2
3467.63,3784.55
3471.46,3823.95
3475.28,3845.35
3479.09,3805.15
3482.91,3756.0
3486.72,3774.4
3490.53,3768.9
3494.34,3745.9
3498.15,3756.7
3501.96,3753.2
3505.76,3757.0
3509.56,3714.0
3513.36,3607.0
3517.15,3679.85
3520.95,3669.1
3524.74,3659.15
3528.53,3604.55
3532.32,3623.0
3536.11,3662.8
3539.89,3625.4
3543.67,3628.35
3547.45,3623.15
3551.23,3528.1
3555.0,3573.65
3558.78,3562.45
3562.55,3549.7
3566.32,3540.2
3570.09,3513.45
3573.85,3476.0
3577.61,3480.4
3581.37,3544.2
3585.13,3441.6
3588.89,3466.45
3592.64,3450.5
3596.4,3406.2
3600.15,3396.45
3603.9,3402.05
3607.64,3378.5
3611.39,3383.3
3615.13,3342.55
3618.87,3324.8
3622.61,3327.4
3626.34,3285.0
3630.08,3244.2
3633.81,3274.1
3637.54,3238.65
3641.27,3184.2
3644.99,3162.95
3648.72,3224.45
3652.44,3246.55
3656.16,3200.15
3659.87,3167.55
3663.59,3156.75
3665.45,3177.65