File: spectra/VLFR_01-LDPE_bio_Raman_453aed00.csv
nm,Intensity
528.626,1870.9
528.795,1869.7
528.963,1869.6
529.132,1870.7
529.3,1870.6
529.469,1869.0
529.637,1869.2
529.806,1870.2
529.974,1870.0
530.143,1869.7
530.311,1869.6
530.48,1870.7
530.648,1872.1
530.816,1869.9
530.985,1872.2
531.153,1871.2
531.322,1874.7
531.49,1876.5
531.658,1898.3
531.827,2305.1
531.995,3790.2
532.164,4006.5
532.332,2109.3
532.5,1876.6
532.669,1873.2
532.837,1870.8
533.006,1871.0
533.174,1870.4
533.342,1873.9
533.511,1884.8
533.679,1958.4
533.847,2116.3
534.016,2220.7
534.184,2246.5
534.352,2233.3
534.521,2198.9
534.689,2206.5
534.857,2191.5
535.025,2180.6
535.194,2170.7
535.362,2147.9
535.53,2127.2
535.699,2117.7
535.867,2110.1
536.035,2089.6
536.203,2090.3
536.372,2085.3
536.54,2096.4
536.708,2083.7
536.876,2066.5
537.044,2064.4
537.213,2074.3
537.381,2082.8
537.549,2076.0
537.717,2089.4
537.885,2086.2
538.054,2073.7
538.222,2069.2
538.39,2068.6
538.558,2052.3
538.726,2064.1
538.894,2059.5
539.063,2042.1
539.231,2056.9
539.399,2054.2
539.567,2049.7
539.735,2043.7
539.903,2038.0
540.071,2048.3
540.239,2037.2
540.408,2039.1
540.576,2040.1
540.744,2043.1
540.912,2047.3
541.08,2039.7
541.248,2033.9
541.416,2028.8
541.584,2041.1
541.752,2039.3
541.92,2040.9
542.088,2035.3
542.256,2036.2
542.424,2034.6
542.592,2030.8
542.76,2037.0
542.928,2027.6
543.096,2032.7
543.264,2030.4
543.432,2029.3
543.6,2035.7
543.768,2033.5
543.936,2036.2
544.104,2032.1
544.272,2041.3
544.44,2028.1
544.608,2029.8
544.776,2029.4
544.944,2027.6
545.112,2033.5
545.28,2030.2
545.448,2030.3
545.616,2030.7
545.784,2033.4
545.951,2035.8
546.119,2028.9
546.287,2020.1
546.455,2021.2
546.623,2029.5
546.791,2033.3
546.959,2036.3
547.127,2036.0
547.294,2029.6
547.462,2030.2
547.63,2019.2
547.798,2027.0
547.966,2026.4
548.134,2018.6
548.301,2019.7
548.469,2027.6
548.637,2025.0
548.805,2011.7
548.972,2032.1
549.14,2023.4
549.308,2027.0
549.476,2019.0
549.644,2020.6
549.811,2022.0
549.979,2025.2
550.147,2019.2
550.315,2021.9
550.482,2026.5
550.65,2021.5
550.818,2028.6
550.985,2023.4
551.153,2025.6
551.321,2021.0
551.488,2026.6
551.656,2031.2
551.824,2031.7
551.991,2031.0
552.159,2033.6
552.327,2033.1
552.494,2030.7
552.662,2027.3
552.83,2033.0
552.997,2037.2
553.165,2040.8
553.333,2046.8
553.5,2043.3
553.668,2045.9
553.835,2049.6
554.003,2054.0
554.171,2061.0
554.338,2050.1
554.506,2060.6
554.673,2048.3
554.841,2055.2
555.008,2060.8
555.176,2062.3
555.343,2058.4
555.511,2068.4
555.679,2068.3
555.846,2074.3
556.014,2068.5
556.181,2069.7
556.349,2081.2
556.516,2076.4
556.684,2091.7
556.851,2098.4
557.018,2078.6
557.186,2088.0
557.353,2098.3
557.521,2103.4
557.688,2108.6
557.856,2112.9
558.023,2125.7
558.191,2128.8
558.358,2113.1
558.525,2135.2
558.693,2114.1
558.86,2129.8
559.028,2109.5
559.195,2104.7
559.362,2097.6
559.53,2097.5
559.697,2095.9
559.864,2098.7
560.032,2097.8
560.199,2101.3
560.366,2090.2
560.534,2102.1
560.701,2098.0
560.868,2110.5
561.036,2097.8
561.203,2100.3
561.37,2108.3
561.538,2111.0
561.705,2110.7
561.872,2116.1
562.039,2125.5
562.207,2132.6
562.374,2132.6
562.541,2132.4
562.708,2142.1
562.876,2160.7
563.043,2159.3
563.21,2156.9
563.377,2184.1
563.545,2197.7
563.712,2280.6
563.879,2483.2
564.046,2631.6
564.213,2487.9
564.38,2300.7
564.548,2291.8
564.715,2264.8
564.882,2247.6
565.049,2225.7
565.216,2232.2
565.383,2206.9
565.551,2234.6
565.718,2258.3
565.885,2377.6
566.052,2568.9
566.219,2599.6
566.386,2378.5
566.553,2245.9
566.72,2218.5
566.887,2200.9
567.054,2194.1
567.221,2228.8
567.388,2221.9
567.555,2235.5
567.722,2199.9
567.889,2191.9
568.057,2192.8
568.224,2184.8
568.391,2191.6
568.558,2180.2
568.725,2195.2
568.892,2192.3
569.058,2198.2
569.225,2214.7
569.392,2197.9
569.559,2216.5
569.726,2224.1
569.893,2218.1
570.06,2233.0
570.227,2249.8
570.394,2261.6
570.561,2280.2
570.728,2299.2
570.895,2300.0
571.062,2330.7
571.229,2455.7
571.395,2794.7
571.562,3069.7
571.729,2809.5
571.896,2554.7
572.063,2466.6
572.23,2429.2
572.397,2402.0
572.563,2371.6
572.73,2353.8
572.897,2348.1
573.064,2352.7
573.231,2376.2
573.397,2359.7
573.564,2374.6
573.731,2382.8
573.898,2416.6
574.064,2431.1
574.231,2413.5
574.398,2391.8
574.565,2390.4
574.731,2421.0
574.898,2413.1
575.065,2453.4
575.232,2488.3
575.398,2624.2
575.565,2773.9
575.732,2790.7
575.898,2835.8
576.065,3037.8
576.232,3264.0
576.398,3281.0
576.565,3172.0
576.732,3102.4
576.898,3100.8
577.065,3084.2
577.232,3019.4
577.398,2884.1
577.565,2813.4
577.731,2801.8
577.898,2786.0
578.065,2799.4
578.231,2787.7
578.398,2807.1
578.564,2838.3
578.731,2884.4
578.897,2907.3
579.064,2908.2
579.23,2961.8
579.397,2951.9
579.563,3006.9
579.73,3032.4
579.896,3065.1
580.063,3094.4
580.229,3070.3
580.396,3161.5
580.562,3153.8
580.729,3192.8
580.895,3180.5
581.062,3249.6
581.228,3259.6
581.395,3281.7
581.561,3307.3
581.728,3350.6
581.894,3363.9
582.06,3345.0
582.227,3366.2
582.393,3414.6
582.56,3438.1
582.726,3429.8
582.892,3461.9
583.059,3482.8
583.225,3529.9
583.391,3554.3
583.558,3594.1
583.724,3534.1
583.89,3570.3
584.057,3638.0
584.223,3627.2
584.389,3622.4
584.556,3651.3
584.722,3679.6
584.888,3731.3
585.054,3725.4
585.221,3728.1
585.387,3747.5
585.553,3809.7
585.719,3797.8
585.886,3801.7
586.052,3862.4
586.218,3825.1
586.384,3934.8
586.55,3881.6
586.717,3963.4
586.883,3973.0
587.049,3914.3
587.215,3999.8
587.381,4135.9
587.548,4107.6
587.714,4087.8
587.88,4186.1
588.046,4206.9
588.212,4166.5
588.378,4278.9
588.544,4311.4
588.71,4327.0
588.876,4325.9
589.043,4328.2
589.209,4481.1
589.375,4430.7
589.541,4454.7
589.707,4468.2
589.873,4533.2
590.039,4571.8
590.205,4632.0
590.371,4571.3
590.537,4619.4
590.703,4689.5
590.869,4670.4
591.035,4770.7
591.201,4707.8
591.367,4828.9
591.533,4828.0
591.699,4929.6
591.865,4901.9
592.031,4956.5
592.197,4867.6
592.363,5088.4
592.529,5030.8
592.694,5036.1
592.86,5043.4
593.026,5091.2
593.192,5060.4
593.358,5044.7
593.524,5063.9
593.69,5129.6
593.856,5114.8
594.021,5176.6
594.187,5187.3
594.353,5211.8
594.519,5134.7
594.685,5262.1
594.851,5236.9
595.016,5223.4
595.182,5276.7
595.348,5445.5
595.514,5294.7
595.68,5422.1
595.845,5434.8
596.011,5475.0
596.177,5507.3
596.342,5466.4
596.508,5579.1
596.674,5597.8
596.84,5757.4
597.005,5698.6
597.171,5694.8
597.337,5750.8
597.502,5753.7
597.668,5768.9
597.834,5859.9
597.999,5781.3
598.165,5915.3
598.331,5985.9
598.496,5987.1
598.662,6038.8
598.828,6050.9
598.993,6134.2
599.159,6057.5
599.324,6066.3
599.49,6269.7
599.656,6116.1
599.821,6203.2
599.987,6242.0
600.152,6151.2
600.318,6200.6
600.483,6271.3
600.649,6256.6
600.814,6329.2
600.98,6369.7
601.145,6291.0
601.311,6262.7
601.476,6251.4
601.642,6333.9
601.807,6324.5
601.973,6229.0
602.138,6266.7
602.304,6200.4
602.469,6219.1
602.635,6021.5
602.8,6196.9
602.965,6113.5
603.131,5968.6
603.296,6080.4
603.462,6147.7
603.627,6006.9
603.792,5909.8
603.958,5956.0
604.123,5901.1
604.288,5831.7
604.454,5681.0
604.619,5678.6
604.784,5890.8
604.95,5716.4
605.115,5601.9
605.28,5588.8
605.446,5482.6
605.611,5551.0
605.776,5436.7
605.941,5352.2
606.107,5237.4
606.272,5326.1
606.437,5257.5
606.602,5230.4
606.767,5264.1
606.933,5115.7
607.098,5011.3
607.263,5022.1
607.428,5074.5
607.593,5017.6
607.759,4944.6
607.924,4901.0
608.089,4837.1
608.254,4826.8
608.419,4875.2
608.584,4792.7
608.749,4729.0
608.915,4784.0
609.08,4754.4
609.245,4653.9
609.41,4653.2
609.575,4662.1
609.74,4669.2
609.905,4561.1
610.07,4510.8
610.235,4524.8
610.4,4546.1
610.565,4496.8
610.73,4438.5
610.895,4460.4
611.06,4426.5
611.225,4419.7
611.39,4371.4
611.555,4420.2
611.72,4368.0
611.885,4330.1
612.05,4322.4
612.215,4246.0
612.38,4271.6
612.545,4264.5
612.71,4209.3
612.875,4187.6
613.04,4142.1
613.204,4199.0
613.369,4164.5
613.534,4171.2
613.699,4087.1
613.864,4206.6
614.029,4158.7
614.194,4109.4
614.358,4115.1
614.523,4041.1
614.688,3992.8
614.853,4040.0
615.018,4003.5
615.182,3971.3
615.347,3988.4
615.512,3983.8
615.677,3978.6
615.841,3932.5
616.006,3891.2
616.171,3902.7
616.336,3887.0
616.5,3872.3
616.665,3896.9
616.83,3862.7
616.994,3838.5
617.159,3877.4
617.324,3814.6
617.489,3848.3
617.653,3896.7
617.818,3855.8
617.982,3783.5
618.147,3755.8
618.312,3794.4
618.476,3752.6
618.641,3783.6
618.805,3743.6
618.97,3776.5
619.135,3769.0
619.299,3726.8
619.464,3792.8
619.628,3713.5
619.793,3758.7
619.957,3728.8
620.122,3709.5
620.286,3715.9
620.451,3692.5
620.615,3722.4
620.78,3691.7
620.944,3727.1
621.109,3696.2
621.273,3674.7
621.438,3707.9
621.602,3810.6
621.767,3862.9
621.931,3847.0
622.095,3857.4
622.26,3917.9
622.424,3888.0
622.589,3846.8
622.753,3734.9
622.917,3692.1
623.082,3630.2
623.246,3676.3
623.41,3619.2
623.575,3550.6
623.739,3609.3
623.903,3592.5
624.068,3591.9
624.232,3561.6
624.396,3569.0
624.561,3526.3
624.725,3539.5
624.889,3559.2
625.053,3588.2
625.218,3609.7
625.382,3551.2
625.546,3570.0
625.71,3560.0
625.875,3643.1
626.039,3660.3
626.203,3768.0
626.367,4005.3
626.531,4251.6
626.695,4901.8
626.86,5892.6
627.024,7465.5
627.188,8293.1
627.352,7983.7
627.516,7501.6
627.68,6723.2
627.844,6483.4
628.008,6351.7
628.172,6756.0
628.337,7555.9
628.501,8355.3
628.665,7825.8
628.829,7085.2
628.993,6767.1
629.157,6552.5
629.321,6133.5
629.485,5891.4
629.649,5641.5
629.813,5596.3
629.977,5385.6
630.141,5325.1
630.305,5415.3
630.469,5238.7
630.633,5038.6
630.797,4704.1
630.96,4512.9
631.124,4204.9
631.288,3952.6
631.452,3918.1
631.616,3814.4
631.78,3805.6
631.944,3746.8
632.108,3657.0
632.272,3667.5
632.435,3625.3
632.599,3653.1
632.763,3599.6
632.927,3606.6
633.091,3604.4
633.254,3673.1
633.418,3557.1
633.582,3562.2
633.746,3569.3
633.91,3590.0
634.073,3646.4
634.237,3510.7
634.401,3538.2
634.564,3609.3
634.728,3562.8
634.892,3610.1
635.056,3541.3
635.219,3566.9
635.383,3493.9
635.547,3531.8
635.71,3537.1
635.874,3558.6
636.038,3532.2
636.201,3623.6
636.365,3536.4
636.528,3570.2
636.692,3581.1
636.856,3581.8
637.019,3584.2
637.183,3545.7
637.346,3583.9
637.51,3572.0
637.673,3625.3
637.837,3518.6
638.0,3544.5
638.164,3547.6
638.327,3578.1
638.491,3602.7
638.654,3637.3
638.818,3562.8
638.981,3520.6
639.145,3571.2
639.308,3558.1
639.472,3605.2
639.635,3619.4
639.799,3558.6
639.962,3637.9
640.125,3582.6
640.289,3565.1
640.452,3660.0
640.616,3645.9
640.779,3593.9
640.942,3602.9
641.106,3630.1
641.269,3620.1
641.432,3636.0
641.596,3634.9
641.759,3664.8
641.922,3658.3
642.085,3630.4
642.249,3670.1
642.412,3691.5
642.575,3657.8
642.738,3693.4
642.902,3728.1
643.065,3705.0
643.228,3707.4
643.391,3659.4
643.555,3740.4
643.718,3734.6
643.881,3657.8
644.044,3718.8
644.207,3797.7
644.37,3740.4
644.534,3795.4
644.697,3710.2
644.86,3653.8
645.023,3784.1
645.186,3785.9
645.349,3796.2
645.512,3745.0
645.675,3699.6
645.838,3693.5
646.001,3794.7
646.164,3728.5
646.327,3732.1
646.49,3765.6
646.653,3666.7
646.816,3729.0
646.979,3784.4
647.142,3758.7
647.305,3733.3
647.468,3745.1
647.631,3757.1
647.794,3715.1
647.957,3708.8
648.12,3739.0
648.283,3751.7
648.446,3721.2
648.609,3654.3
648.772,3712.7
648.935,3755.8
649.098,3692.1
649.26,3711.9
649.423,3689.5
649.586,3660.4
649.749,3723.6
649.912,3714.5
650.075,3697.4
650.237,3726.1
650.4,3651.7
650.563,3692.6
650.726,3662.8
650.888,3657.3
651.051,3641.2
651.214,3737.2
651.377,3719.2
651.539,3661.7
651.702,3678.3
651.865,3613.6
652.027,3645.8
652.19,3688.2
652.353,3681.2
652.515,3662.3
652.678,3650.0
652.841,3688.8
653.003,3625.5
653.166,3685.5
653.329,3615.3
653.491,3560.2
653.654,3590.6
653.816,3569.5
653.979,3587.1
654.142,3651.9
654.304,3552.2
654.467,3599.7
654.629,3604.2
654.792,3616.1
654.954,3585.1
655.117,3538.9
655.279,3558.3
655.442,3530.9
655.604,3543.0
655.767,3511.4
655.929,3460.0
656.091,3496.3
656.254,3481.3
656.416,3447.3
656.579,3495.9
656.741,3484.5
656.904,3444.1
657.066,3401.4
657.228,3442.6
657.391,3414.0
657.553,3425.3
657.715,3335.9
657.878,3325.4
658.04,3280.1
658.202,3293.2
658.365,3328.2
658.527,3265.5
658.689,3293.6
658.851,3253.4
659.014,3233.7
659.176,3226.9
659.338,3174.2
659.5,3185.2
659.663,3177.3
659.825,3171.7
659.987,3129.0
660.149,3115.1
660.311,3070.4
660.474,3118.3
660.636,3107.7
660.798,3088.6
660.96,3091.4
661.041,3053.3