File: spectra/VLFR_01-LDPE_bio_Raman_57520014.csv
nm,Intensity
526.495,828.6
526.632,829.5
526.768,830.8
526.905,828.8
527.042,827.2
527.179,829.5
527.315,829.3
527.452,828.7
527.589,829.2
527.725,829.8
527.862,830.3
527.999,828.7
528.136,829.4
528.272,829.8
528.409,829.0
528.546,828.9
528.682,830.0
528.819,830.7
528.955,829.4
529.092,829.8
529.229,828.1
529.365,830.3
529.502,828.0
529.639,829.8
529.775,828.9
529.912,829.8
530.048,829.5
530.185,830.0
530.321,829.3
530.458,829.6
530.594,830.4
530.731,829.5
530.867,828.2
531.004,828.5
531.14,828.8
531.277,829.1
531.413,829.4
531.55,827.4
531.686,828.9
531.823,829.9
531.959,834.1
532.096,859.7
532.232,864.4
532.369,839.9
532.505,831.0
532.641,827.9
532.778,829.4
532.914,828.7
533.051,828.5
533.187,830.2
533.323,830.5
533.46,830.2
533.596,830.5
533.732,834.7
533.869,856.3
534.005,893.0
534.141,902.6
534.278,899.3
534.414,895.6
534.55,889.9
534.687,886.4
534.823,888.4
534.959,883.5
535.095,880.3
535.232,877.8
535.368,873.4
535.504,867.5
535.64,866.1
535.777,863.7
535.913,862.5
536.049,859.3
536.185,858.2
536.321,860.2
536.457,860.5
536.594,857.6
536.73,854.2
536.866,856.3
537.002,856.7
537.138,856.3
537.274,856.7
537.41,854.0
537.547,854.9
537.683,856.5
537.819,852.6
537.955,854.6
538.091,855.7
538.227,853.2
538.363,852.6
538.499,853.9
538.635,854.2
538.771,852.2
538.907,853.1
539.043,851.2
539.179,852.0
539.315,851.3
539.451,850.8
539.587,849.4
539.723,849.6
539.859,849.0
539.995,847.2
540.131,847.3
540.267,847.3
540.403,845.1
540.539,845.0
540.675,846.8
540.811,844.2
540.947,846.2
541.083,844.9
541.219,846.1
541.354,845.9
541.49,844.8
541.626,845.1
541.762,844.3
541.898,845.2
542.034,844.9
542.17,844.2
542.305,845.6
542.441,844.7
542.577,844.4
542.713,844.6
542.849,845.5
542.984,845.3
543.12,846.6
543.256,846.2
543.392,847.0
543.528,845.5
543.663,847.1
543.799,843.5
543.935,843.9
544.071,842.8
544.206,845.2
544.342,842.6
544.478,843.8
544.613,842.6
544.749,843.2
544.885,843.0
545.02,842.8
545.156,842.5
545.292,840.7
545.427,843.3
545.563,843.3
545.699,843.2
545.834,842.6
545.97,841.9
546.106,843.2
546.241,840.4
546.377,844.1
546.512,843.0
546.648,843.7
546.784,842.2
546.919,842.6
547.055,843.5
547.19,841.9
547.326,841.1
547.461,843.0
547.597,841.5
547.732,843.9
547.868,840.6
548.003,843.6
548.139,842.0
548.274,842.3
548.41,840.3
548.545,840.8
548.681,840.1
548.816,841.7
548.952,839.8
549.087,841.4
549.223,842.4
549.358,839.9
549.494,842.2
549.629,844.8
549.764,839.8
549.9,841.7
550.035,841.0
550.171,840.0
550.306,840.4
550.441,842.5
550.577,841.2
550.712,842.9
550.847,838.9
550.983,842.2
551.118,840.3
551.253,843.0
551.389,841.7
551.524,840.2
551.659,843.0
551.795,842.0
551.93,842.3
552.065,842.5
552.201,841.3
552.336,840.5
552.471,841.3
552.606,843.0
552.742,841.4
552.877,842.2
553.012,842.8
553.147,842.1
553.283,844.4
553.418,844.2
553.553,842.8
553.688,846.8
553.823,842.9
553.959,844.8
554.094,843.8
554.229,843.6
554.364,844.7
554.499,843.7
554.634,844.4
554.769,846.3
554.905,845.1
555.04,846.1
555.175,843.4
555.31,845.5
555.445,846.1
555.58,845.7
555.715,844.8
555.85,847.5
555.985,847.0
556.121,848.0
556.256,848.2
556.391,847.3
556.526,850.9
556.661,849.5
556.796,846.9
556.931,849.0
557.066,851.7
557.201,850.1
557.336,851.7
557.471,851.9
557.606,854.5
557.741,852.1
557.876,852.3
558.011,854.0
558.146,855.5
558.281,854.4
558.416,855.4
558.551,854.6
558.685,855.3
558.82,856.2
558.955,851.0
559.09,853.2
559.225,852.2
559.36,849.3
559.495,849.2
559.63,851.5
559.765,849.2
559.9,851.2
560.034,851.2
560.169,852.2
560.304,850.3
560.439,849.9
560.574,848.6
560.709,849.5
560.843,851.3
560.978,850.0
561.113,849.8
561.248,850.5
561.383,850.1
561.517,851.7
561.652,850.3
561.787,851.3
561.922,851.1
562.057,852.8
562.191,852.4
562.326,854.6
562.461,854.5
562.596,856.5
562.73,854.4
562.865,856.6
563.0,858.9
563.134,858.4
563.269,859.5
563.404,860.7
563.539,862.2
563.673,866.5
563.808,875.0
563.943,909.7
564.077,936.3
564.212,913.8
564.346,882.3
564.481,877.8
564.616,877.6
564.75,877.0
564.885,876.7
565.02,869.2
565.154,869.4
565.289,867.4
565.423,864.7
565.558,863.8
565.693,868.3
565.827,870.0
565.962,884.5
566.096,923.3
566.231,930.1
566.365,899.1
566.5,877.7
566.634,870.3
566.769,865.7
566.903,860.8
567.038,862.1
567.172,862.3
567.307,862.7
567.441,872.2
567.576,871.6
567.71,869.1
567.845,861.8
567.979,864.3
568.114,860.9
568.248,862.3
568.383,859.9
568.517,861.9
568.652,861.4
568.786,862.0
568.92,862.2
569.055,861.7
569.189,865.8
569.324,863.4
569.458,861.2
569.592,866.7
569.727,866.0
569.861,867.1
569.996,865.6
570.13,868.3
570.264,867.1
570.399,869.2
570.533,873.1
570.667,876.5
570.802,878.3
570.936,877.7
571.07,880.2
571.205,880.4
571.339,899.1
571.473,958.4
571.607,1014.5
571.742,957.6
571.876,918.1
572.01,904.2
572.144,900.0
572.279,892.4
572.413,889.7
572.547,883.1
572.681,884.7
572.816,881.4
572.95,880.2
573.084,878.2
573.218,882.9
573.353,883.7
573.487,881.2
573.621,884.8
573.755,885.2
573.889,892.5
574.023,890.3
574.158,891.4
574.292,889.1
574.426,887.2
574.56,883.7
574.694,883.8
574.828,886.7
574.963,889.5
575.097,892.0
575.231,889.9
575.365,897.0
575.499,918.9
575.633,937.9
575.767,928.8
575.901,930.5
576.035,951.5
576.169,992.9
576.303,1031.5
576.438,1021.0
576.572,992.2
576.706,985.6
576.84,985.4
576.974,983.1
577.108,979.8
577.242,972.1
577.376,954.1
577.51,941.4
577.644,928.0
577.778,925.6
577.912,924.8
578.046,926.7
578.18,927.4
578.314,925.9
578.448,926.0
578.582,927.0
578.716,931.2
578.85,929.8
578.984,930.0
579.117,934.0
579.251,928.7
579.385,936.7
579.519,931.6
579.653,936.9
579.787,937.8
579.921,934.3
580.055,943.8
580.189,944.0
580.323,940.9
580.456,944.6
580.59,943.6
580.724,946.3
580.858,944.1
580.992,946.9
581.126,946.1
581.26,945.5
581.393,953.8
581.527,952.9
581.661,953.9
581.795,954.5
581.929,953.6
582.063,956.0
582.196,962.8
582.33,958.9
582.464,965.4
582.598,957.2
582.731,961.4
582.865,965.9
582.999,967.8
583.133,963.2
583.267,965.6
583.4,966.3
583.534,969.7
583.668,967.3
583.801,971.3
583.935,972.1
584.069,968.6
584.203,971.9
584.336,966.1
584.47,970.3
584.604,968.4
584.737,974.2
584.871,973.3
585.005,970.1
585.138,974.2
585.272,975.8
585.406,974.9
585.539,970.3
585.673,979.3
585.807,976.5
585.94,976.8
586.074,979.4
586.208,980.5
586.341,976.4
586.475,978.1
586.608,982.0
586.742,980.4
586.876,983.6
587.009,987.2
587.143,983.5
587.276,981.9
587.41,987.0
587.543,987.7
587.677,989.5
587.811,985.9
587.944,989.8
588.078,988.8
588.211,991.8
588.345,989.8
588.478,990.6
588.612,989.7
588.745,992.8
588.879,992.6
589.012,993.9
589.146,993.3
589.279,997.9
589.413,994.7
589.546,998.7
589.68,994.8
589.813,996.3
589.947,999.2
590.08,999.4
590.214,995.4
590.347,999.6
590.48,1001.4
590.614,1000.0
590.747,1007.9
590.881,1002.6
591.014,1007.1
591.148,1006.5
591.281,1004.5
591.414,1004.0
591.548,1008.9
591.681,1007.6
591.815,1012.3
591.948,1009.2
592.081,1005.9
592.215,1004.7
592.348,1007.3
592.481,1008.9
592.615,1008.3
592.748,1006.8
592.881,1006.9
593.015,1003.9
593.148,1014.7
593.281,1009.5
593.415,1006.4
593.548,1008.4
593.681,1007.6
593.815,1012.5
593.948,1010.3
594.081,1012.8
594.215,1012.3
594.348,1010.7
594.481,1013.7
594.614,1013.3
594.748,1014.9
594.881,1010.5
595.014,1016.4
595.147,1018.3
595.281,1018.2
595.414,1015.0
595.547,1019.3
595.68,1022.7
595.814,1019.4
595.947,1029.9
596.08,1023.2
596.213,1022.6
596.347,1023.7
596.48,1028.3
596.613,1030.7
596.746,1029.5
596.879,1028.9
597.012,1032.1
597.146,1030.2
597.279,1033.0
597.412,1040.6
597.545,1034.7
597.678,1035.8
597.811,1039.5
597.945,1037.3
598.078,1039.3
598.211,1045.3
598.344,1049.3
598.477,1045.5
598.61,1047.1
598.743,1044.1
598.876,1045.9
599.009,1053.4
599.143,1047.5
599.276,1053.6
599.409,1052.4
599.542,1053.2
599.675,1053.3
599.808,1053.0
599.941,1051.8
600.074,1060.9
600.207,1056.0
600.34,1058.0
600.473,1055.3
600.606,1046.6
600.739,1056.9
600.872,1056.9
601.005,1055.9
601.138,1059.4
601.271,1051.9
601.404,1053.1
601.537,1052.5
601.67,1057.9
601.803,1056.4
601.936,1053.4
602.069,1050.3
602.202,1052.1
602.335,1051.0
602.468,1046.8
602.601,1046.3
602.734,1045.2
602.867,1041.3
603.0,1041.4
603.133,1041.9
603.266,1044.0
603.399,1037.7
603.532,1037.3
603.665,1034.8
603.798,1033.5
603.931,1033.5
604.064,1032.4
604.196,1031.2
604.329,1030.2
604.462,1026.6
604.595,1021.1
604.728,1016.9
604.861,1012.9
604.994,1017.3
605.127,1011.8
605.259,1011.2
605.392,1007.6
605.525,1004.6
605.658,999.3
605.791,1002.5
605.924,999.5
606.057,996.3
606.189,996.5
606.322,997.0
606.455,992.6
606.588,991.7
606.721,986.4
606.853,990.7
606.986,991.7
607.119,985.6
607.252,981.8
607.385,980.7
607.517,982.6
607.65,978.2
607.783,976.1
607.916,980.1
608.049,977.8
608.181,975.9
608.314,974.2
608.447,970.9
608.58,968.2
608.712,970.6
608.845,971.2
608.978,969.3
609.111,965.2
609.243,968.0
609.376,964.1
609.509,964.8
609.641,967.7
609.774,962.6
609.907,958.7
610.039,961.4
610.172,959.7
610.305,963.0
610.438,958.7
610.57,955.6
610.703,952.5
610.836,955.9
610.968,952.2
611.101,957.2
611.234,954.2
611.366,951.3
611.499,948.7
611.631,949.9
611.764,947.5
611.897,946.0
612.029,947.5
612.162,949.1
612.295,949.8
612.427,945.1
612.56,949.8
612.692,946.0
612.825,948.5
612.958,945.2
613.09,947.6
613.223,944.9
613.355,940.5
613.488,944.3
613.621,941.3
613.753,941.4
613.886,940.0
614.018,942.8
614.151,943.8
614.283,941.1
614.416,941.8
614.548,941.4
614.681,935.8
614.814,939.6
614.946,938.8
615.079,939.0
615.211,933.8
615.344,937.9
615.476,937.7
615.609,934.4
615.741,934.3
615.874,933.9
616.006,937.3
616.139,940.4
616.271,933.6
616.404,934.4
616.536,939.3
616.669,937.4
616.801,934.0
616.933,933.1
617.066,937.2
617.198,936.8
617.331,936.2
617.463,938.3
617.596,938.0
617.728,934.9
617.861,940.0
617.993,936.7
618.125,932.0
618.258,940.1
618.39,938.0
618.523,935.5
618.655,932.2
618.788,928.1
618.92,935.6
619.052,935.1
619.185,933.3
619.317,936.7
619.45,935.4
619.582,936.6
619.714,933.7
619.847,940.2
619.979,939.2
620.111,932.5
620.244,934.5
620.376,936.2
620.509,936.2
620.641,939.0
620.773,938.6
620.906,937.1
621.038,939.7
621.17,938.6
621.303,948.8
621.435,946.8
621.567,949.1
621.7,959.9
621.832,966.4
621.964,970.7
622.096,973.4
622.229,980.9
622.361,979.9
622.493,979.4
622.626,972.0
622.758,962.3
622.89,955.6
623.022,947.8
623.155,950.2
623.287,938.9
623.419,939.9
623.552,940.1
623.684,936.3
623.816,934.7
623.948,935.0
624.081,933.3
624.213,938.9
624.345,938.6
624.477,939.7
624.61,933.3
624.742,933.1
624.874,938.8
625.006,935.5
625.138,940.4
625.271,942.0
625.403,942.2
625.535,943.8
625.667,944.6
625.799,950.5
625.932,952.7
626.064,956.1
626.196,964.5
626.328,975.0
626.46,997.0
626.593,1034.3
626.725,1097.6
626.857,1222.8
626.989,1400.2
627.121,1611.6
627.253,1727.3
627.386,1671.0
627.518,1579.7
627.65,1487.0
627.782,1428.5
627.914,1391.1
628.046,1365.2
628.178,1390.1
628.311,1446.1
628.443,1600.3
628.575,1795.6
628.707,1679.0
628.839,1500.3
628.971,1429.7
629.103,1396.7
629.235,1382.3
629.367,1350.5
629.5,1325.9
629.632,1294.5
629.764,1262.0
629.896,1238.6
630.028,1225.7
630.16,1214.4
630.292,1206.1
630.424,1213.6
630.556,1195.9
630.688,1174.1
630.82,1145.6
630.952,1104.1
631.084,1058.4
631.216,1026.2
631.349,1002.7
631.481,993.6
631.613,990.7
631.745,982.6
631.877,976.2
632.009,969.5
632.141,963.1
632.273,959.0
632.405,956.3
632.537,948.3
632.669,953.2
632.801,948.9
632.933,950.0
633.065,946.8
633.197,945.7
633.329,944.9
633.461,941.1
633.593,942.0
633.725,940.2
633.857,947.3
633.989,936.5
634.121,942.7
634.253,940.2
634.385,940.3
634.517,932.4
634.649,938.9
634.781,937.0
634.912,934.0
635.044,936.9
635.176,932.8
635.308,935.1
635.44,934.5
635.572,934.0
635.704,938.0
635.836,929.3
635.968,936.4
636.1,933.9
636.232,931.9
636.364,930.8
636.496,934.5
636.628,931.4
636.76,931.8
636.891,930.3
637.023,930.4
637.155,932.5
637.287,933.9
637.419,929.1
637.551,931.1
637.683,930.3
637.815,930.4
637.947,930.7
638.078,927.2
638.21,929.3
638.342,930.4
638.474,930.1
638.606,928.2
638.738,929.0
638.87,930.2
639.002,930.0
639.133,926.7
639.265,927.7
639.397,931.7
639.529,931.6
639.661,925.4
639.793,927.1
639.924,929.0
640.056,928.1
640.188,931.7
640.32,929.9
640.452,928.9
640.584,928.1
640.715,930.0
640.847,930.7
640.979,930.7
641.111,931.3
641.243,927.7
641.374,931.8
641.506,929.5
641.638,931.5
641.77,927.9
641.902,932.8
642.033,930.8
642.165,930.1
642.297,930.9
642.429,928.2
642.561,928.0
642.692,933.3
642.824,932.8
642.956,931.0
643.088,935.2
643.219,931.0
643.351,933.3
643.483,928.4
643.615,930.4
643.746,931.0
643.878,930.0
644.01,934.0
644.142,930.7
644.273,928.5
644.405,930.7
644.537,927.7
644.669,927.0
644.8,931.4
644.932,928.5
645.064,930.9
645.195,928.5
645.327,928.2
645.459,932.1
645.591,929.6
645.722,927.4
645.854,928.3
645.986,928.3
646.117,927.2
646.249,929.1
646.381,928.0
646.512,929.0
646.644,932.1
646.776,926.1
646.908,932.1
647.039,931.3
647.171,929.0
647.303,929.7
647.434,931.5
647.566,932.6
647.698,931.0
647.829,926.3
647.961,926.8
648.093,929.0
648.224,928.7
648.356,931.0
648.488,928.5
648.619,925.6
648.751,928.6
648.883,924.7
649.014,928.2
649.146,930.2
649.277,926.6
649.409,928.1
649.541,923.7
649.672,929.6
649.804,930.5
649.936,928.5
650.067,925.3
650.199,929.9
650.33,925.2
650.462,924.9
650.594,931.4
650.725,923.8
650.857,924.5
650.988,929.9
651.12,925.2
651.252,929.3
651.383,928.1
651.515,928.6
651.646,928.7
651.778,930.2
651.91,929.3
652.041,923.7
652.173,927.0
652.304,925.6
652.436,927.8
652.568,929.7
652.699,927.8
652.831,930.1
652.962,927.3
653.094,928.9
653.225,924.6
653.357,927.4
653.489,925.4
653.62,925.6
653.752,926.0
653.883,927.7
654.015,927.7
654.146,927.9
654.278,924.5
654.409,927.7
654.541,928.3
654.672,930.9
654.804,925.9
654.935,926.3
655.067,921.5
655.199,926.1
655.33,925.8
655.462,928.4
655.593,927.8
655.725,922.3
655.856,927.3
655.988,928.4
656.119,926.3
656.251,921.2
656.382,921.5
656.514,922.6
656.645,920.2
656.777,923.6
656.908,923.3
657.04,922.0
657.171,920.5
657.303,924.5
657.434,918.3
657.566,918.8
657.697,919.6
657.829,921.4
657.96,918.4
658.092,915.8
658.223,920.8
658.355,918.5
658.486,918.6
658.617,919.3
658.749,916.7
658.88,910.3
659.012,915.0
659.143,916.3
659.275,915.0
659.406,911.6
659.538,909.3
659.669,911.9
659.801,914.7
659.932,913.1
660.064,911.1
660.195,911.8
660.326,909.2
660.458,908.8
660.589,909.3
660.721,907.5
660.852,910.3
660.984,906.3
661.115,903.7
661.246,907.0
661.378,903.1
661.509,900.7
661.641,899.6
661.772,901.8
661.904,900.4
662.035,901.8
662.166,900.9
662.298,896.0
662.429,899.7
662.561,899.9
662.692,896.3
662.823,895.0
662.955,896.0
663.086,895.0