File: spectra/VLFR_09-PET_bio_Raman_2a822e82.csv
nm,Intensity
526.508,830.2
526.645,830.6
526.782,831.1
526.919,830.2
527.055,832.1
527.192,831.5
527.329,829.5
527.465,830.1
527.602,830.0
527.739,830.8
527.875,830.8
528.012,831.8
528.149,831.1
528.285,830.4
528.422,830.0
528.558,829.4
528.695,831.2
528.832,831.0
528.968,830.7
529.105,830.5
529.241,831.1
529.378,830.2
529.514,830.0
529.651,830.1
529.787,831.2
529.924,829.5
530.061,830.6
530.197,831.4
530.334,829.5
530.47,831.0
530.606,830.5
530.743,831.1
530.879,831.2
531.016,831.0
531.152,830.5
531.289,830.5
531.425,831.1
531.562,830.9
531.698,831.9
531.834,830.5
531.971,841.0
532.107,909.1
532.244,937.2
532.38,853.0
532.516,833.3
532.653,830.3
532.789,831.4
532.925,828.8
533.062,830.4
533.198,830.9
533.334,831.2
533.471,832.1
533.607,838.0
533.743,897.8
533.879,1168.8
534.016,1606.0
534.152,1790.3
534.288,1774.3
534.424,1724.8
534.561,1670.1
534.697,1645.6
534.833,1599.6
534.969,1544.1
535.106,1495.9
535.242,1460.8
535.378,1438.6
535.514,1419.6
535.65,1400.5
535.786,1380.1
535.923,1363.1
536.059,1342.4
536.195,1319.0
536.331,1310.0
536.467,1292.5
536.603,1279.1
536.739,1278.3
536.876,1280.6
537.012,1274.8
537.148,1267.6
537.284,1262.3
537.42,1255.3
537.556,1262.0
537.692,1247.7
537.828,1250.9
537.964,1246.6
538.1,1254.5
538.236,1252.8
538.372,1257.9
538.508,1249.2
538.644,1245.7
538.78,1255.4
538.916,1253.3
539.052,1248.6
539.188,1253.7
539.324,1250.7
539.46,1262.8
539.596,1263.9
539.732,1284.6
539.868,1290.9
540.004,1298.6
540.14,1298.7
540.275,1285.4
540.411,1275.3
540.547,1269.8
540.683,1265.5
540.819,1265.4
540.955,1266.0
541.091,1276.6
541.227,1259.7
541.362,1262.0
541.498,1266.0
541.634,1273.7
541.77,1266.4
541.906,1266.1
542.041,1270.8
542.177,1264.8
542.313,1268.0
542.449,1271.7
542.585,1262.6
542.72,1271.5
542.856,1273.2
542.992,1287.0
543.128,1280.4
543.263,1278.7
543.399,1274.4
543.535,1278.4
543.67,1289.5
543.806,1286.2
543.942,1292.3
544.078,1298.1
544.213,1295.0
544.349,1289.5
544.485,1292.2
544.62,1298.7
544.756,1300.3
544.892,1293.1
545.027,1303.3
545.163,1307.4
545.298,1289.8
545.434,1302.6
545.57,1307.2
545.705,1309.4
545.841,1308.6
545.976,1306.9
546.112,1312.2
546.248,1316.5
546.383,1318.2
546.519,1316.9
546.654,1321.0
546.79,1307.7
546.925,1326.6
547.061,1322.2
547.196,1315.7
547.332,1315.3
547.467,1327.8
547.603,1325.9
547.738,1331.7
547.874,1318.4
548.009,1322.1
548.145,1329.2
548.28,1330.9
548.416,1330.1
548.551,1332.1
548.686,1349.4
548.822,1351.2
548.957,1351.3
549.093,1347.4
549.228,1335.6
549.363,1342.4
549.499,1343.9
549.634,1337.2
549.77,1346.3
549.905,1350.1
550.04,1349.0
550.176,1347.2
550.311,1359.4
550.446,1375.7
550.582,1480.6
550.717,1618.1
550.852,1490.0
550.988,1377.9
551.123,1356.4
551.258,1363.9
551.394,1358.4
551.529,1365.0
551.664,1363.0
551.799,1364.9
551.935,1373.5
552.07,1369.5
552.205,1378.7
552.34,1371.9
552.476,1378.6
552.611,1383.2
552.746,1412.3
552.881,1445.8
553.016,1417.6
553.152,1395.2
553.287,1384.6
553.422,1378.5
553.557,1394.6
553.692,1395.5
553.827,1396.4
553.963,1394.6
554.098,1392.6
554.233,1390.6
554.368,1402.9
554.503,1398.2
554.638,1401.2
554.773,1405.8
554.908,1399.3
555.043,1412.1
555.179,1415.9
555.314,1423.8
555.449,1435.5
555.584,1453.2
555.719,1456.6
555.854,1442.2
555.989,1439.4
556.124,1448.5
556.259,1459.8
556.394,1457.6
556.529,1467.5
556.664,1472.3
556.799,1471.8
556.934,1473.5
557.069,1486.0
557.204,1513.2
557.339,1571.9
557.474,1671.4
557.609,1788.8
557.744,1809.9
557.879,1661.0
558.014,1549.7
558.149,1502.5
558.284,1503.3
558.419,1481.8
558.553,1477.5
558.688,1478.3
558.823,1471.3
558.958,1462.3
559.093,1455.4
559.228,1465.5
559.363,1454.2
559.498,1448.7
559.632,1453.4
559.767,1450.1
559.902,1463.1
560.037,1468.8
560.172,1464.5
560.307,1463.3
560.441,1471.6
560.576,1480.1
560.711,1483.2
560.846,1481.5
560.981,1483.7
561.115,1495.4
561.25,1495.9
561.385,1491.2
561.52,1502.3
561.654,1503.7
561.789,1534.8
561.924,1546.0
562.059,1568.4
562.193,1577.1
562.328,1565.8
562.463,1541.8
562.598,1528.5
562.732,1522.1
562.867,1524.3
563.002,1520.6
563.136,1535.6
563.271,1518.0
563.406,1527.9
563.54,1525.0
563.675,1532.9
563.81,1529.6
563.944,1531.8
564.079,1536.7
564.213,1551.7
564.348,1563.9
564.483,1574.2
564.617,1591.9
564.752,1617.5
564.887,1667.1
565.021,1725.3
565.156,1758.2
565.29,1739.8
565.425,1687.3
565.559,1682.0
565.694,1693.2
565.828,1716.0
565.963,1707.7
566.098,1669.9
566.232,1632.4
566.367,1604.3
566.501,1585.3
566.636,1579.2
566.77,1571.4
566.905,1557.2
567.039,1574.7
567.174,1566.5
567.308,1571.8
567.443,1579.6
567.577,1631.8
567.711,1654.6
567.846,1643.1
567.98,1636.4
568.115,1624.9
568.249,1604.0
568.384,1589.5
568.518,1585.7
568.652,1584.4
568.787,1598.6
568.921,1587.7
569.056,1577.7
569.19,1584.4
569.324,1601.7
569.459,1604.9
569.593,1607.5
569.727,1613.9
569.862,1621.1
569.996,1631.9
570.131,1629.9
570.265,1640.0
570.399,1663.5
570.534,1692.5
570.668,1738.3
570.802,1778.6
570.936,1862.3
571.071,1964.7
571.205,2071.4
571.339,2150.4
571.474,2144.1
571.608,2081.3
571.742,1940.5
571.876,1866.1
572.011,1833.5
572.145,1807.6
572.279,1724.9
572.413,1691.9
572.548,1683.0
572.682,1663.0
572.816,1667.4
572.95,1666.5
573.084,1659.4
573.219,1659.8
573.353,1659.7
573.487,1652.6
573.621,1649.5
573.755,1667.5
573.889,1662.7
574.024,1669.6
574.158,1683.9
574.292,1672.8
574.426,1671.7
574.56,1664.7
574.694,1664.9
574.828,1669.6
574.963,1684.7
575.097,1686.4
575.231,1712.8
575.365,1765.2
575.499,1787.9
575.633,1771.3
575.767,1722.4
575.901,1704.2
576.035,1702.8
576.169,1690.3
576.303,1700.1
576.437,1701.0
576.571,1711.8
576.706,1730.0
576.84,1736.8
576.974,1733.6
577.108,1730.7
577.242,1740.0
577.376,1725.0
577.51,1716.0
577.644,1707.7
577.778,1699.1
577.912,1703.5
578.046,1699.0
578.179,1697.9
578.313,1705.7
578.447,1709.2
578.581,1701.4
578.715,1707.3
578.849,1699.6
578.983,1709.1
579.117,1693.6
579.251,1713.1
579.385,1711.5
579.519,1703.4
579.653,1701.7
579.787,1716.2
579.921,1723.8
580.054,1716.6
580.188,1715.4
580.322,1720.5
580.456,1738.5
580.59,1727.9
580.724,1743.7
580.858,1750.5
580.991,1765.5
581.125,1772.9
581.259,1771.4
581.393,1799.0
581.527,1825.2
581.661,1913.0
581.794,2125.0
581.928,2520.5
582.062,3273.9
582.196,3959.5
582.33,3569.9
582.463,2529.5
582.597,2035.5
582.731,1889.0
582.865,1838.2
582.998,1804.6
583.132,1786.1
583.266,1781.9
583.4,1769.7
583.533,1764.9
583.667,1766.7
583.801,1751.5
583.935,1778.4
584.068,1775.8
584.202,1762.9
584.336,1790.1
584.469,1789.8
584.603,1788.7
584.737,1789.5
584.87,1793.8
585.004,1810.3
585.138,1809.4
585.271,1841.7
585.405,1899.5
585.539,2026.7
585.672,2214.2
585.806,2472.7
585.94,2708.0
586.073,2844.0
586.207,2729.6
586.34,2565.4
586.474,2380.6
586.608,2196.7
586.741,2033.3
586.875,1936.2
587.008,1882.5
587.142,1854.6
587.276,1828.5
587.409,1828.3
587.543,1821.1
587.676,1808.4
587.81,1809.7
587.943,1804.5
588.077,1806.3
588.21,1811.0
588.344,1804.2
588.478,1801.2
588.611,1798.5
588.745,1794.1
588.878,1794.6
589.012,1799.0
589.145,1792.5
589.279,1795.4
589.412,1785.2
589.546,1782.1
589.679,1787.9
589.812,1791.3
589.946,1798.1
590.079,1804.1
590.213,1805.1
590.346,1789.4
590.48,1793.7
590.613,1797.0
590.747,1796.5
590.88,1796.1
591.013,1808.0
591.147,1801.8
591.28,1796.2
591.414,1810.9
591.547,1811.0
591.68,1799.9
591.814,1809.4
591.947,1805.0
592.081,1795.8
592.214,1805.2
592.347,1804.2
592.481,1811.3
592.614,1813.8
592.747,1809.3
592.881,1796.5
593.014,1810.5
593.147,1813.3
593.281,1796.7
593.414,1810.3
593.547,1809.2
593.681,1807.8
593.814,1809.4
593.947,1803.0
594.081,1810.9
594.214,1828.3
594.347,1823.1
594.48,1817.3
594.614,1821.3
594.747,1822.6
594.88,1820.3
595.014,1834.9
595.147,1827.2
595.28,1828.3
595.413,1826.8
595.547,1832.6
595.68,1839.7
595.813,1822.1
595.946,1841.0
596.079,1845.9
596.213,1835.5
596.346,1845.3
596.479,1837.4
596.612,1838.3
596.745,1844.9
596.879,1852.4
597.012,1853.5
597.145,1850.8
597.278,1853.2
597.411,1840.5
597.545,1864.6
597.678,1860.1
597.811,1856.9
597.944,1850.7
598.077,1865.3
598.21,1854.2
598.343,1861.6
598.476,1868.1
598.61,1867.0
598.743,1875.2
598.876,1880.9
599.009,1879.2
599.142,1879.9
599.275,1882.7
599.408,1873.3
599.541,1885.5
599.674,1893.9
599.807,1886.7
599.941,1883.7
600.074,1877.7
600.207,1880.9
600.34,1884.4
600.473,1873.9
600.606,1888.2
600.739,1884.3
600.872,1880.7
601.005,1883.3
601.138,1876.5
601.271,1865.3
601.404,1876.4
601.537,1886.6
601.67,1880.1
601.803,1889.1
601.936,1894.1
602.069,1883.5
602.202,1890.3
602.335,1894.1
602.468,1891.3
602.601,1894.1
602.734,1894.1
602.867,1913.0
603.0,1911.9
603.133,1898.2
603.266,1912.0
603.399,1909.7
603.532,1903.1
603.664,1915.3
603.797,1926.6
603.93,1919.2
604.063,1914.1
604.196,1917.0
604.329,1909.7
604.462,1921.3
604.595,1918.8
604.728,1914.8
604.861,1894.0
604.994,1920.5
605.126,1911.0
605.259,1909.8
605.392,1906.1
605.525,1907.6
605.658,1920.6
605.791,1913.0
605.924,1907.2
606.056,1901.7
606.189,1915.4
606.322,1907.9
606.455,1919.5
606.588,1917.9
606.721,1917.3
606.853,1905.3
606.986,1911.8
607.119,1917.2
607.252,1923.0
607.385,1922.9
607.517,1934.3
607.65,1925.4
607.783,1933.1
607.916,1946.3
608.049,1952.1
608.181,1954.6
608.314,1946.7
608.447,1961.4
608.58,1943.9
608.712,1959.0
608.845,1974.0
608.978,1953.2
609.111,1978.2
609.243,1985.1
609.376,1982.5
609.509,1966.8
609.641,1968.6
609.774,1970.1
609.907,1982.1
610.04,1981.7
610.172,1972.1
610.305,1979.7
610.438,1984.5
610.57,1979.0
610.703,1996.8
610.836,2004.2
610.968,1993.2
611.101,1984.2
611.234,2000.8
611.366,2008.1
611.499,2007.7
611.632,2015.5
611.764,2010.0
611.897,2018.2
612.03,2029.0
612.162,2024.7
612.295,2030.8
612.428,2038.3
612.56,2052.0
612.693,2051.8
612.825,2064.1
612.958,2075.3
613.091,2084.2
613.223,2081.3
613.356,2079.9
613.488,2089.3
613.621,2087.2
613.754,2107.7
613.886,2104.6
614.019,2113.6
614.151,2110.4
614.284,2114.6
614.416,2104.7
614.549,2126.7
614.681,2124.8
614.814,2119.0
614.947,2131.1
615.079,2124.4
615.212,2129.3
615.344,2135.0
615.477,2142.2
615.609,2151.5
615.742,2136.0
615.874,2157.5
616.007,2166.4
616.139,2153.6
616.272,2150.6
616.404,2162.6
616.537,2163.7
616.669,2175.1
616.802,2170.0
616.934,2184.7
617.067,2200.0
617.199,2201.9
617.332,2212.1
617.464,2214.6
617.596,2221.7
617.729,2218.2
617.861,2233.0
617.994,2244.8
618.126,2255.9
618.259,2268.9
618.391,2251.8
618.524,2264.0
618.656,2253.9
618.788,2258.6
618.921,2248.1
619.053,2255.1
619.186,2246.9
619.318,2252.2
619.45,2254.3
619.583,2263.8
619.715,2267.4
619.848,2273.0
619.98,2277.2
620.112,2278.7
620.245,2263.7
620.377,2273.4
620.509,2272.8
620.642,2287.2
620.774,2289.2
620.907,2293.1
621.039,2294.5
621.171,2286.4
621.304,2309.4
621.436,2311.7
621.568,2324.5
621.701,2312.8
621.833,2326.0
621.965,2333.4
622.097,2335.6
622.23,2349.0
622.362,2339.0
622.494,2362.7
622.627,2345.9
622.759,2368.9
622.891,2347.8
623.024,2372.7
623.156,2383.6
623.288,2385.2
623.42,2390.9
623.553,2393.8
623.685,2388.1
623.817,2407.2
623.949,2416.3
624.082,2400.8
624.214,2427.1
624.346,2429.8
624.479,2424.6
624.611,2435.1
624.743,2449.6
624.875,2437.6
625.007,2445.8
625.14,2452.1
625.272,2459.3
625.404,2453.6
625.536,2462.3
625.669,2471.1
625.801,2473.5
625.933,2473.9
626.065,2450.6
626.197,2473.1
626.33,2479.5
626.462,2472.4
626.594,2479.5
626.726,2509.2
626.858,2501.4
626.99,2503.0
627.123,2512.9
627.255,2504.5
627.387,2500.2
627.519,2503.5
627.651,2525.2
627.783,2520.5
627.916,2519.8
628.048,2513.6
628.18,2523.1
628.312,2552.1
628.444,2558.3
628.576,2559.1
628.708,2558.2
628.84,2572.9
628.973,2563.2
629.105,2592.1
629.237,2606.0
629.369,2611.6
629.501,2625.1
629.633,2627.6
629.765,2646.4
629.897,2637.6
630.029,2649.8
630.161,2631.3
630.294,2646.5
630.426,2631.2
630.558,2639.5
630.69,2651.6
630.822,2672.2
630.954,2690.6
631.086,2694.5
631.218,2708.7
631.35,2731.4
631.482,2734.3
631.614,2788.9
631.746,2814.8
631.878,2818.3
632.01,2827.9
632.142,2832.0
632.274,2815.4
632.406,2806.7
632.538,2786.5
632.67,2774.3
632.802,2760.6
632.934,2759.5
633.066,2755.0
633.198,2763.9
633.33,2759.9
633.462,2765.3
633.594,2754.5
633.726,2753.7
633.858,2745.3
633.99,2738.5
634.122,2733.9
634.254,2727.9
634.386,2737.5
634.518,2742.2
634.65,2735.6
634.782,2726.2
634.914,2732.4
635.046,2743.7
635.178,2748.8
635.31,2759.6
635.442,2776.6
635.574,2795.3
635.706,2813.6
635.838,2852.0
635.97,2884.5
636.102,2940.9
636.234,2972.0
636.365,3012.9
636.497,3065.0
636.629,3135.4
636.761,3068.2
636.893,3005.1
637.025,2949.2
637.157,2876.3
637.289,2858.6
637.421,2853.1
637.553,2829.4
637.685,2808.3
637.816,2814.5
637.948,2816.4
638.08,2809.7
638.212,2826.8
638.344,2823.8
638.476,2830.5
638.608,2826.3
638.74,2821.9
638.871,2830.7
639.003,2825.5
639.135,2846.9
639.267,2855.7
639.399,2838.5
639.531,2834.3
639.662,2850.2
639.794,2859.2
639.926,2839.5
640.058,2864.1
640.19,2847.7
640.322,2875.1
640.453,2850.1
640.585,2853.5
640.717,2875.9
640.849,2895.1
640.981,2876.6
641.113,2886.6
641.244,2873.8
641.376,2882.7
641.508,2889.3
641.64,2879.6
641.772,2892.3
641.903,2888.5
642.035,2891.3
642.167,2918.6
642.299,2910.0
642.43,2924.9
642.562,2917.4
642.694,2907.6
642.826,2916.7
642.958,2901.9
643.089,2910.5
643.221,2890.1
643.353,2910.7
643.485,2900.7
643.616,2891.5
643.748,2892.0
643.88,2890.3
644.012,2882.7
644.143,2869.1
644.275,2889.4
644.407,2882.6
644.538,2893.4
644.67,2881.0
644.802,2889.3
644.934,2893.7
645.065,2888.9
645.197,2895.5
645.329,2887.0
645.461,2892.0
645.592,2889.6
645.724,2901.3
645.856,2923.0
645.987,2904.8
646.119,2911.8
646.251,2888.0
646.382,2904.7
646.514,2932.2
646.646,2938.6
646.777,2942.5
646.909,2936.4
647.041,2942.4
647.172,2941.3
647.304,2930.9
647.436,2943.8
647.567,2969.7
647.699,2947.6
647.831,2945.7
647.962,2955.4
648.094,2936.3
648.226,2963.4
648.357,2942.0
648.489,2938.6
648.621,2937.6
648.752,2932.7
648.884,2950.6
649.016,2926.2
649.147,2937.7
649.279,2954.4
649.411,2941.2
649.542,2948.3
649.674,2918.6
649.805,2950.9
649.937,2953.5
650.069,2937.7
650.2,2928.8
650.332,2934.0
650.463,2943.7
650.595,2927.5
650.727,2937.3
650.858,2947.5
650.99,2954.3
651.121,2956.9
651.253,2955.8
651.385,2941.7
651.516,2941.5
651.648,2955.9
651.779,2975.8
651.911,2959.7
652.043,2976.2
652.174,2965.1
652.306,2974.0
652.437,2972.7
652.569,2977.0
652.7,2968.9
652.832,2980.5
652.963,2974.9
653.095,2981.7
653.227,2961.1
653.358,2980.5
653.49,2962.5
653.621,2981.4
653.753,2997.1
653.884,3000.0
654.016,3001.0
654.147,3005.4
654.279,2991.3
654.41,2984.5
654.542,3002.0
654.674,2997.4
654.805,2974.2
654.937,2989.6
655.068,2997.3
655.2,3008.9
655.331,2995.3
655.463,2995.9
655.594,3004.9
655.726,2989.5
655.857,3010.3
655.989,3012.7
656.12,2996.4
656.252,3005.3
656.383,3002.1
656.515,2999.0
656.646,2993.0
656.778,3009.6
656.909,3000.0
657.041,3021.1
657.172,3021.5
657.304,3009.2
657.435,3002.7
657.567,3008.1
657.698,3009.5
657.829,3014.6
657.961,3000.6
658.092,3040.6
658.224,3025.4
658.355,3029.1
658.487,3033.4
658.618,3034.0
658.75,3018.0
658.881,3015.0
659.013,3031.7
659.144,3052.6
659.275,3031.1
659.407,3038.8
659.538,3041.3
659.67,3016.3
659.801,3036.2
659.933,3042.3
660.064,3032.3
660.196,3037.3
660.327,3036.3
660.458,3042.4
660.59,3027.4
660.721,3022.4
660.853,3003.5
660.984,3023.6
661.116,3030.6
661.247,3029.9
661.378,3024.7
661.51,3011.3
661.641,3009.2
661.773,3008.6
661.904,3018.7
662.035,3016.8
662.167,3005.1
662.298,2989.4
662.43,2992.2
662.561,3014.3
662.692,3018.1
662.824,3000.5
662.955,3016.7
663.087,3005.5