File: spectra/VLFR_01-LDPE_nobio_Raman_3f7c6464.csv
nm,Intensity
528.65,1832.25
528.819,1832.3
528.987,1832.35
529.155,1832.6
529.324,1833.6
529.492,1832.8
529.66,1833.4
529.829,1833.35
529.997,1832.8
530.165,1833.1
530.334,1832.05
530.502,1833.35
530.67,1833.95
530.839,1832.75
531.007,1832.55
531.175,1833.5
531.344,1833.2
531.512,1836.75
531.68,1845.35
531.848,1997.6
532.017,2421.95
532.185,2364.05
532.353,1870.35
532.521,1834.0
532.69,1833.75
532.858,1834.85
533.026,1834.2
533.194,1833.2
533.363,1834.65
533.531,1843.45
533.699,1892.7
533.867,1974.65
534.036,2020.55
534.204,2026.9
534.372,2016.1
534.54,2012.2
534.708,2014.55
534.877,2004.95
535.045,1999.55
535.213,1994.3
535.381,1988.55
535.549,1984.3
535.717,1974.2
535.886,1966.65
536.054,1961.3
536.222,1961.85
536.39,1958.65
536.558,1957.7
536.726,1952.5
536.894,1948.05
537.062,1947.35
537.231,1951.8
537.399,1959.95
537.567,1952.5
537.735,1956.5
537.903,1952.4
538.071,1948.75
538.239,1949.55
538.407,1945.55
538.575,1942.65
538.743,1941.2
538.911,1936.1
539.079,1938.95
539.247,1939.25
539.415,1937.3
539.583,1929.6
539.751,1931.65
539.919,1930.75
540.087,1934.6
540.255,1927.25
540.423,1925.15
540.591,1932.65
540.759,1933.65
540.927,1921.55
541.095,1929.2
541.263,1930.05
541.431,1926.55
541.599,1931.4
541.767,1933.15
541.935,1929.45
542.103,1930.2
542.271,1928.05
542.439,1931.1
542.607,1934.5
542.775,1927.6
542.943,1923.8
543.111,1928.7
543.279,1927.6
543.446,1920.9
543.614,1927.85
543.782,1932.85
543.95,1925.5
544.118,1929.0
544.286,1924.3
544.454,1924.65
544.622,1921.55
544.789,1923.9
544.957,1926.8
545.125,1927.3
545.293,1926.4
545.461,1923.5
545.629,1921.15
545.796,1921.7
545.964,1923.9
546.132,1920.85
546.3,1925.4
546.468,1926.45
546.635,1924.55
546.803,1920.7
546.971,1924.25
547.139,1920.45
547.306,1922.85
547.474,1923.35
547.642,1921.75
547.81,1924.0
547.977,1925.95
548.145,1925.6
548.313,1923.95
548.481,1927.95
548.648,1924.1
548.816,1925.15
548.984,1928.2
549.151,1927.45
549.319,1921.6
549.487,1921.5
549.655,1925.15
549.822,1922.75
549.99,1926.6
550.158,1915.1
550.325,1925.9
550.493,1927.7
550.66,1924.5
550.828,1920.45
550.996,1925.25
551.163,1926.05
551.331,1923.15
551.499,1927.6
551.666,1930.25
551.834,1927.0
552.001,1925.85
552.169,1927.5
552.337,1928.85
552.504,1928.7
552.672,1926.05
552.839,1928.5
553.007,1931.35
553.174,1936.0
553.342,1936.1
553.509,1935.65
553.677,1938.6
553.844,1934.85
554.012,1942.7
554.179,1939.2
554.347,1938.4
554.514,1938.35
554.682,1939.25
554.849,1947.85
555.017,1941.75
555.184,1936.25
555.352,1942.4
555.519,1942.25
555.687,1942.2
555.854,1949.9
556.022,1943.6
556.189,1943.85
556.357,1951.15
556.524,1948.2
556.691,1949.35
556.859,1955.75
557.026,1956.8
557.194,1958.9
557.361,1960.3
557.528,1957.5
557.696,1958.7
557.863,1967.8
558.031,1961.45
558.198,1970.9
558.365,1968.95
558.533,1968.4
558.7,1967.95
558.867,1962.25
559.035,1963.4
559.202,1958.75
559.369,1959.05
559.537,1960.15
559.704,1966.35
559.871,1955.45
560.038,1953.95
560.206,1954.0
560.373,1954.9
560.54,1960.15
560.708,1961.65
560.875,1964.05
561.042,1960.2
561.209,1963.2
561.377,1960.6
561.544,1960.65
561.711,1962.8
561.878,1966.3
562.045,1967.65
562.213,1965.6
562.38,1970.4
562.547,1973.5
562.714,1974.95
562.881,1977.25
563.049,1986.85
563.216,1986.7
563.383,1989.8
563.55,2000.7
563.717,2049.25
563.884,2144.25
564.052,2202.5
564.219,2104.7
564.386,2044.45
564.553,2029.9
564.72,2038.45
564.887,2015.45
565.054,2015.45
565.221,2007.45
565.388,2005.2
565.556,2010.8
565.723,2038.15
565.89,2096.95
566.057,2209.8
566.224,2205.0
566.391,2088.55
566.558,2027.85
566.725,2005.6
566.892,1994.6
567.059,1995.95
567.226,1999.15
567.393,2012.75
567.56,2004.85
567.727,1992.0
567.894,1990.95
568.061,1990.5
568.228,1977.55
568.395,1987.2
568.562,1980.7
568.729,1989.15
568.896,1986.15
569.063,1985.35
569.23,1980.8
569.396,1985.85
569.563,1995.5
569.73,1982.3
569.897,1993.15
570.064,2002.45
570.231,1993.05
570.398,2004.4
570.565,2008.55
570.732,2014.45
570.898,2013.05
571.065,2047.45
571.232,2115.15
571.399,2275.0
571.566,2399.0
571.733,2219.3
571.9,2104.85
572.066,2067.85
572.233,2060.3
572.4,2038.9
572.567,2035.8
572.734,2015.9
572.9,2020.0
573.067,2014.6
573.234,2015.25
573.401,2016.75
573.567,2014.8
573.734,2025.5
573.901,2038.9
574.068,2041.85
574.234,2022.2
574.401,2010.65
574.568,2016.95
574.734,2016.35
574.901,2021.65
575.068,2032.6
575.235,2054.0
575.401,2110.8
575.568,2159.75
575.735,2159.35
575.901,2195.5
576.068,2273.2
576.235,2355.55
576.401,2348.75
576.568,2293.0
576.734,2256.4
576.901,2259.15
577.068,2259.5
577.234,2184.7
577.401,2138.75
577.567,2112.8
577.734,2095.85
577.901,2081.75
578.067,2071.45
578.234,2072.1
578.4,2076.5
578.567,2076.4
578.733,2084.55
578.9,2086.75
579.066,2083.4
579.233,2084.55
579.399,2091.55
579.566,2097.5
579.732,2096.7
579.899,2104.5
580.065,2106.25
580.232,2111.35
580.398,2118.25
580.565,2114.85
580.731,2131.25
580.898,2116.7
581.064,2121.0
581.231,2123.9
581.397,2129.4
581.563,2134.85
581.73,2143.15
581.896,2142.95
582.063,2140.1
582.229,2151.95
582.395,2156.25
582.562,2167.2
582.728,2173.95
582.895,2161.1
583.061,2177.25
583.227,2183.3
583.394,2177.25
583.56,2188.5
583.726,2185.1
583.893,2194.25
584.059,2206.0
584.225,2202.7
584.391,2203.25
584.558,2202.95
584.724,2220.4
584.89,2213.2
585.057,2233.45
585.223,2232.05
585.389,2229.6
585.555,2234.6
585.722,2254.2
585.888,2263.55
586.054,2255.55
586.22,2265.75
586.386,2252.8
586.553,2277.25
586.719,2300.95
586.885,2276.0
587.051,2296.45
587.217,2317.45
587.384,2322.75
587.55,2323.5
587.716,2334.8
587.882,2354.75
588.048,2341.95
588.214,2356.9
588.38,2356.4
588.546,2359.05
588.713,2377.25
588.879,2376.95
589.045,2381.8
589.211,2399.55
589.377,2405.15
589.543,2389.65
589.709,2397.2
589.875,2419.15
590.041,2411.4
590.207,2421.2
590.373,2437.0
590.539,2438.0
590.705,2450.35
590.871,2475.9
591.037,2485.8
591.203,2473.9
591.369,2481.55
591.535,2469.2
591.701,2484.35
591.867,2506.45
592.033,2495.05
592.199,2528.7
592.365,2497.2
592.531,2535.5
592.697,2519.1
592.863,2521.55
593.029,2535.8
593.195,2550.95
593.361,2553.15
593.526,2552.7
593.692,2568.65
593.858,2554.3
594.024,2571.6
594.19,2552.25
594.356,2583.25
594.522,2595.45
594.687,2579.65
594.853,2594.1
595.019,2605.4
595.185,2631.55
595.351,2636.3
595.516,2629.85
595.682,2625.8
595.848,2641.6
596.014,2685.9
596.18,2660.3
596.345,2689.4
596.511,2676.95
596.677,2695.45
596.843,2694.85
597.008,2698.95
597.174,2697.2
597.34,2732.1
597.505,2722.15
597.671,2729.25
597.837,2740.9
598.002,2743.75
598.168,2750.9
598.334,2758.75
598.499,2775.65
598.665,2778.4
598.831,2792.85
598.996,2809.2
599.162,2819.25
599.328,2824.45
599.493,2823.75
599.659,2820.1
599.824,2822.2
599.99,2818.6
600.156,2856.7
600.321,2808.75
600.487,2843.65
600.652,2825.05
600.818,2817.2
600.983,2831.7
601.149,2838.85
601.314,2804.25
601.48,2826.5
601.645,2828.35
601.811,2814.75
601.976,2823.7
602.142,2797.65
602.307,2804.3
602.473,2805.95
602.638,2801.05
602.804,2763.7
602.969,2768.55
603.135,2772.05
603.3,2751.8
603.466,2757.15
603.631,2715.5
603.796,2747.05
603.962,2714.7
604.127,2684.95
604.293,2701.4
604.458,2707.2
604.623,2669.5
604.789,2663.65
604.954,2672.0
605.119,2643.4
605.285,2617.6
605.45,2616.25
605.615,2623.8
605.781,2597.3
605.946,2589.7
606.111,2590.2
606.277,2565.85
606.442,2557.0
606.607,2546.55
606.772,2554.45
606.938,2528.6
607.103,2543.3
607.268,2527.8
607.433,2498.4
607.599,2501.95
607.764,2486.25
607.929,2469.15
608.094,2492.8
608.259,2491.1
608.425,2457.95
608.59,2426.2
608.755,2452.5
608.92,2458.35
609.085,2413.55
609.25,2420.7
609.415,2430.85
609.581,2430.15
609.746,2411.9
609.911,2420.8
610.076,2384.0
610.241,2388.8
610.406,2396.6
610.571,2396.8
610.736,2377.7
610.901,2372.75
611.066,2379.95
611.231,2372.95
611.396,2366.2
611.561,2364.3
611.727,2347.95
611.892,2352.3
612.057,2335.45
612.222,2341.2
612.386,2329.0
612.551,2341.0
612.716,2329.2
612.881,2322.35
613.046,2309.75
613.211,2320.9
613.376,2318.4
613.541,2305.7
613.706,2292.65
613.871,2300.55
614.036,2303.15
614.201,2297.25
614.366,2280.0
614.531,2277.25
614.695,2283.7
614.86,2280.1
615.025,2281.45
615.19,2256.8
615.355,2272.1
615.52,2278.45
615.684,2276.85
615.849,2262.45
616.014,2247.4
616.179,2259.55
616.344,2245.5
616.508,2251.35
616.673,2248.25
616.838,2252.1
617.003,2254.4
617.168,2252.85
617.332,2255.0
617.497,2237.95
617.662,2243.8
617.826,2243.95
617.991,2249.1
618.156,2236.9
618.32,2243.2
618.485,2236.45
618.65,2228.95
618.814,2243.8
618.979,2231.6
619.144,2219.3
619.308,2222.1
619.473,2252.0
619.638,2227.65
619.802,2236.7
619.967,2226.7
620.131,2227.45
620.296,2215.15
620.461,2226.8
620.625,2229.6
620.79,2214.7
620.954,2225.25
621.119,2246.45
621.283,2225.1
621.448,2240.8
621.612,2253.5
621.777,2274.3
621.941,2292.6
622.106,2290.0
622.27,2310.55
622.435,2287.9
622.599,2258.7
622.764,2254.15
622.928,2229.1
623.093,2214.7
623.257,2200.05
623.422,2195.45
623.586,2196.25
623.75,2194.85
623.915,2190.65
624.079,2178.4
624.244,2189.45
624.408,2180.5
624.572,2173.85
624.737,2183.85
624.901,2189.6
625.065,2193.4
625.23,2191.6
625.394,2202.15
625.558,2202.25
625.723,2200.75
625.887,2203.85
626.051,2230.35
626.215,2270.15
626.38,2305.1
626.544,2462.3
626.708,2714.4
626.872,3156.1
627.037,3558.3
627.201,3721.85
627.365,3698.95
627.529,3461.25
627.693,3261.8
627.858,3197.05
628.022,3156.65
628.186,3308.65
628.35,3700.45
628.514,3843.8
628.678,3643.2
628.843,3354.8
629.007,3207.9
629.171,3164.1
629.335,3076.9
629.499,2969.75
629.663,2899.15
629.827,2842.6
629.991,2806.05
630.155,2726.55
630.319,2742.55
630.483,2732.6
630.647,2650.45
630.812,2539.35
630.976,2431.8
631.14,2356.45
631.304,2294.25
631.468,2266.95
631.632,2233.65
631.796,2226.35
631.959,2201.8
632.123,2197.25
632.287,2185.95
632.451,2173.2
632.615,2158.85
632.779,2165.7
632.943,2159.55
633.107,2151.3
633.271,2143.15
633.435,2151.85
633.599,2143.25
633.763,2145.55
633.926,2139.1
634.09,2139.4
634.254,2144.3
634.418,2149.2
634.582,2135.8
634.746,2129.8
634.909,2140.35
635.073,2130.45
635.237,2133.0
635.401,2130.45
635.564,2123.85
635.728,2132.55
635.892,2124.85
636.056,2130.3
636.219,2132.35
636.383,2132.45
636.547,2126.25
636.711,2114.95
636.874,2128.9
637.038,2119.15
637.202,2133.95
637.365,2130.1
637.529,2125.3
637.693,2133.6
637.856,2138.1
638.02,2130.4
638.184,2133.3
638.347,2131.05
638.511,2123.95
638.674,2127.65
638.838,2136.55
639.002,2129.45
639.165,2126.9
639.329,2120.9
639.492,2135.7
639.656,2120.6
639.819,2123.95
639.983,2129.75
640.146,2145.85
640.31,2136.4
640.473,2125.35
640.637,2132.75
640.8,2134.55
640.964,2136.55
641.127,2127.55
641.291,2137.2
641.454,2143.8
641.618,2131.15
641.781,2134.1
641.944,2125.6
642.108,2138.15
642.271,2137.15
642.435,2143.9
642.598,2153.15
642.761,2136.8
642.925,2139.0
643.088,2131.75
643.251,2136.3
643.415,2141.45
643.578,2161.7
643.741,2135.45
643.905,2133.35
644.068,2142.2
644.231,2155.25
644.394,2152.25
644.558,2140.55
644.721,2133.7
644.884,2150.25
645.047,2151.1
645.211,2149.3
645.374,2150.6
645.537,2142.6
645.7,2144.1
645.863,2148.85
646.027,2135.45
646.19,2142.35
646.353,2139.7
646.516,2146.2
646.679,2147.25
646.842,2136.6
647.005,2142.15
647.169,2153.45
647.332,2141.6
647.495,2139.75
647.658,2132.65
647.821,2138.15
647.984,2142.85
648.147,2140.1
648.31,2142.95
648.473,2138.4
648.636,2126.35
648.799,2142.05
648.962,2131.75
649.125,2133.0
649.288,2131.2
649.451,2146.65
649.614,2127.5
649.777,2131.4
649.94,2136.95
650.103,2152.1
650.266,2134.5
650.429,2131.05
650.592,2144.35
650.755,2138.8
650.918,2141.2
651.08,2159.3
651.243,2142.3
651.406,2143.1
651.569,2113.95
651.732,2134.3
651.895,2128.2
652.058,2145.2
652.22,2141.85
652.383,2127.2
652.546,2126.75
652.709,2136.85
652.872,2138.25
653.034,2121.9
653.197,2122.0
653.36,2132.5
653.523,2131.5
653.685,2115.65
653.848,2142.1
654.011,2131.85
654.173,2116.6
654.336,2125.85
654.499,2129.2
654.662,2118.75
654.824,2110.9
654.987,2113.95
655.149,2121.35
655.312,2108.95
655.475,2108.25
655.637,2115.75
655.8,2111.55
655.963,2100.15
656.125,2102.85
656.288,2088.15
656.45,2092.45
656.613,2106.25
656.775,2088.8
656.938,2091.45
657.1,2087.9
657.263,2091.55
657.425,2086.3
657.588,2086.2
657.75,2090.8
657.913,2095.95
658.075,2083.75
658.238,2081.05
658.4,2068.05
658.563,2067.15
658.725,2064.65
658.888,2065.85
659.05,2064.05
659.212,2063.0
659.375,2051.4
659.537,2052.9
659.7,2053.2
659.862,2040.05
660.024,2056.05
660.187,2047.35
660.349,2053.85
660.511,2046.9
660.674,2040.6
660.836,2029.85
660.998,2036.2
661.079,2026.75