File: spectra/VLFR_01-LDPE_bio_Raman_6f06478a.csv
nm,Intensity
526.495,828.5
526.632,829.9
526.768,827.5
526.905,829.2
527.042,828.1
527.179,829.1
527.315,829.2
527.452,829.2
527.589,829.2
527.725,827.8
527.862,829.5
527.999,830.0
528.136,828.0
528.272,828.8
528.409,829.8
528.546,827.7
528.682,829.7
528.819,827.4
528.955,828.4
529.092,828.8
529.229,829.8
529.365,829.3
529.502,827.9
529.639,830.0
529.775,828.5
529.912,827.5
530.048,827.6
530.185,828.7
530.321,828.4
530.458,828.0
530.594,828.6
530.731,828.3
530.867,827.3
531.004,829.2
531.14,829.3
531.277,828.6
531.413,828.8
531.55,828.8
531.686,828.2
531.823,828.8
531.959,833.5
532.096,860.6
532.232,870.4
532.369,837.0
532.505,828.6
532.641,828.1
532.778,827.4
532.914,828.7
533.051,827.8
533.187,829.1
533.323,829.1
533.46,829.5
533.596,828.2
533.732,833.9
533.869,852.7
534.005,876.9
534.141,895.3
534.278,890.0
534.414,887.2
534.55,886.7
534.687,885.4
534.823,881.0
534.959,881.5
535.095,873.9
535.232,873.7
535.368,872.3
535.504,867.3
535.64,865.3
535.777,863.4
535.913,862.7
536.049,860.0
536.185,861.5
536.321,861.6
536.457,862.0
536.594,858.6
536.73,858.2
536.866,857.2
537.002,856.9
537.138,855.8
537.274,857.8
537.41,857.5
537.547,857.6
537.683,858.2
537.819,856.9
537.955,856.9
538.091,856.0
538.227,853.3
538.363,856.4
538.499,855.3
538.635,855.0
538.771,854.7
538.907,854.9
539.043,855.4
539.179,852.8
539.315,855.4
539.451,854.5
539.587,851.0
539.723,850.9
539.859,851.2
539.995,849.7
540.131,849.9
540.267,850.6
540.403,848.6
540.539,848.2
540.675,849.8
540.811,848.5
540.947,850.8
541.083,848.7
541.219,849.2
541.354,847.8
541.49,848.8
541.626,846.6
541.762,850.1
541.898,849.9
542.034,848.5
542.17,849.7
542.305,849.5
542.441,846.1
542.577,846.9
542.713,846.6
542.849,848.5
542.984,849.1
543.12,849.2
543.256,847.6
543.392,849.1
543.528,845.9
543.663,848.7
543.799,849.5
543.935,844.3
544.071,847.5
544.206,844.8
544.342,845.6
544.478,846.4
544.613,844.9
544.749,846.1
544.885,846.5
545.02,844.6
545.156,845.3
545.292,846.0
545.427,846.5
545.563,846.4
545.699,846.6
545.834,843.7
545.97,846.9
546.106,843.6
546.241,846.6
546.377,844.2
546.512,844.5
546.648,845.7
546.784,844.0
546.919,844.5
547.055,844.4
547.19,842.9
547.326,846.3
547.461,844.4
547.597,845.5
547.732,844.6
547.868,846.9
548.003,845.1
548.139,844.2
548.274,846.8
548.41,844.3
548.545,842.7
548.681,843.2
548.816,845.3
548.952,844.2
549.087,844.2
549.223,841.3
549.358,844.2
549.494,843.9
549.629,843.1
549.764,845.1
549.9,843.1
550.035,843.3
550.171,845.6
550.306,844.1
550.441,844.2
550.577,845.3
550.712,843.8
550.847,843.3
550.983,843.3
551.118,844.1
551.253,845.1
551.389,842.8
551.524,843.6
551.659,844.3
551.795,844.6
551.93,843.0
552.065,843.4
552.201,842.7
552.336,844.6
552.471,843.8
552.606,845.8
552.742,844.0
552.877,844.8
553.012,845.4
553.147,842.1
553.283,845.6
553.418,844.3
553.553,845.0
553.688,847.2
553.823,843.8
553.959,844.7
554.094,846.2
554.229,848.2
554.364,846.5
554.499,845.0
554.634,846.0
554.769,845.7
554.905,846.1
555.04,845.6
555.175,846.1
555.31,847.0
555.445,845.9
555.58,847.4
555.715,847.1
555.85,847.6
555.985,850.5
556.121,848.5
556.256,849.5
556.391,848.2
556.526,848.9
556.661,851.0
556.796,849.1
556.931,850.5
557.066,847.8
557.201,849.2
557.336,847.2
557.471,851.5
557.606,854.5
557.741,850.1
557.876,851.7
558.011,855.8
558.146,852.5
558.281,851.9
558.416,851.2
558.551,854.2
558.685,850.2
558.82,852.5
558.955,850.6
559.09,851.8
559.225,850.0
559.36,852.1
559.495,850.6
559.63,850.0
559.765,849.1
559.9,849.1
560.034,849.0
560.169,848.6
560.304,848.9
560.439,847.8
560.574,850.1
560.709,851.5
560.843,849.1
560.978,848.7
561.113,848.8
561.248,849.6
561.383,851.3
561.517,848.9
561.652,849.3
561.787,851.3
561.922,852.7
562.057,852.0
562.191,851.9
562.326,851.6
562.461,856.3
562.596,853.8
562.73,853.9
562.865,856.4
563.0,854.0
563.134,855.7
563.269,856.4
563.404,856.7
563.539,860.5
563.673,864.1
563.808,872.1
563.943,896.1
564.077,921.5
564.212,900.8
564.346,877.9
564.481,869.1
564.616,868.0
564.75,870.8
564.885,867.6
565.02,865.8
565.154,863.7
565.289,861.2
565.423,861.4
565.558,861.5
565.693,862.5
565.827,869.2
565.962,877.1
566.096,905.9
566.231,912.2
566.365,887.2
566.5,874.2
566.634,865.9
566.769,863.9
566.903,859.1
567.038,861.2
567.172,860.8
567.307,862.0
567.441,868.2
567.576,869.4
567.71,865.3
567.845,861.4
567.979,861.6
568.114,859.3
568.248,858.5
568.383,860.9
568.517,861.8
568.652,862.3
568.786,857.0
568.92,861.2
569.055,861.8
569.189,859.9
569.324,861.8
569.458,862.2
569.592,865.2
569.727,863.4
569.861,865.5
569.996,866.0
570.13,865.5
570.264,867.4
570.399,868.3
570.533,867.8
570.667,871.9
570.802,873.8
570.936,876.9
571.07,877.2
571.205,879.5
571.339,894.1
571.473,938.1
571.607,985.3
571.742,934.0
571.876,906.9
572.01,897.9
572.144,892.7
572.279,886.6
572.413,886.8
572.547,882.5
572.681,880.7
572.816,882.7
572.95,880.0
573.084,878.7
573.218,877.3
573.353,881.0
573.487,882.0
573.621,880.0
573.755,882.2
573.889,886.7
574.023,885.6
574.158,891.6
574.292,882.5
574.426,883.1
574.56,883.8
574.694,884.7
574.828,885.9
574.963,885.9
575.097,886.6
575.231,892.3
575.365,897.6
575.499,910.3
575.633,927.9
575.767,922.2
575.901,924.4
576.035,938.3
576.169,966.0
576.303,996.5
576.438,994.2
576.572,973.4
576.706,958.7
576.84,963.2
576.974,970.3
577.108,961.2
577.242,956.8
577.376,943.3
577.51,930.9
577.644,925.9
577.778,919.8
577.912,921.0
578.046,920.3
578.18,918.2
578.314,923.1
578.448,919.6
578.582,925.2
578.716,924.9
578.85,927.6
578.984,929.0
579.117,933.3
579.251,926.8
579.385,933.9
579.519,936.4
579.653,936.5
579.787,934.9
579.921,939.0
580.055,939.5
580.189,939.2
580.323,942.6
580.456,948.8
580.59,946.8
580.724,948.0
580.858,953.5
580.992,953.9
581.126,948.6
581.26,953.7
581.393,957.6
581.527,958.9
581.661,958.6
581.795,962.8
581.929,965.1
582.063,966.8
582.196,966.2
582.33,968.1
582.464,969.3
582.598,973.0
582.731,975.9
582.865,975.2
582.999,979.9
583.133,984.5
583.267,983.3
583.4,983.9
583.534,988.6
583.668,986.4
583.801,996.0
583.935,991.6
584.069,995.3
584.203,993.0
584.336,996.6
584.47,1002.3
584.604,1001.2
584.737,1000.8
584.871,1007.0
585.005,1009.1
585.138,1013.5
585.272,1014.7
585.406,1016.0
585.539,1020.8
585.673,1024.7
585.807,1025.0
585.94,1032.1
586.074,1033.7
586.208,1034.7
586.341,1035.9
586.475,1040.6
586.608,1047.0
586.742,1057.2
586.876,1062.2
587.009,1064.6
587.143,1061.6
587.276,1068.0
587.41,1070.6
587.543,1074.2
587.677,1079.6
587.811,1082.5
587.944,1089.5
588.078,1090.2
588.211,1092.4
588.345,1095.3
588.478,1101.2
588.612,1107.8
588.745,1111.0
588.879,1116.0
589.012,1117.2
589.146,1120.9
589.279,1127.7
589.413,1126.6
589.546,1128.1
589.68,1137.1
589.813,1144.9
589.947,1149.6
590.08,1157.7
590.214,1154.4
590.347,1161.2
590.48,1157.1
590.614,1163.3
590.747,1173.1
590.881,1179.7
591.014,1176.0
591.148,1188.8
591.281,1193.6
591.414,1187.1
591.548,1194.4
591.681,1199.7
591.815,1204.4
591.948,1210.0
592.081,1202.7
592.215,1207.5
592.348,1205.3
592.481,1213.4
592.615,1216.1
592.748,1221.1
592.881,1217.7
593.015,1233.8
593.148,1236.3
593.281,1237.8
593.415,1238.1
593.548,1239.4
593.681,1244.9
593.815,1246.9
593.948,1254.3
594.081,1253.2
594.215,1258.4
594.348,1258.7
594.481,1269.9
594.614,1259.9
594.748,1267.6
594.881,1270.4
595.014,1278.9
595.147,1284.6
595.281,1291.9
595.414,1297.8
595.547,1291.2
595.68,1300.5
595.814,1296.9
595.947,1297.8
596.08,1319.1
596.213,1308.8
596.347,1321.8
596.48,1329.7
596.613,1332.7
596.746,1328.1
596.879,1346.9
597.012,1349.4
597.146,1349.7
597.279,1347.1
597.412,1354.0
597.545,1360.2
597.678,1364.1
597.811,1374.4
597.945,1375.9
598.078,1395.1
598.211,1392.3
598.344,1392.5
598.477,1402.1
598.61,1404.1
598.743,1406.8
598.876,1417.7
599.009,1413.1
599.143,1424.5
599.276,1419.2
599.409,1429.7
599.542,1433.0
599.675,1441.2
599.808,1428.8
599.941,1430.3
600.074,1434.6
600.207,1432.1
600.34,1427.4
600.473,1435.5
600.606,1437.9
600.739,1438.4
600.872,1437.2
601.005,1440.9
601.138,1435.8
601.271,1432.3
601.404,1434.0
601.537,1425.0
601.67,1437.3
601.803,1426.2
601.936,1418.4
602.069,1426.5
602.202,1424.2
602.335,1422.9
602.468,1410.2
602.601,1415.0
602.734,1404.6
602.867,1409.8
603.0,1399.3
603.133,1394.8
603.266,1391.8
603.399,1383.3
603.532,1387.1
603.665,1382.4
603.798,1377.3
603.931,1372.8
604.064,1375.2
604.196,1354.9
604.329,1356.2
604.462,1344.0
604.595,1334.1
604.728,1334.4
604.861,1330.8
604.994,1314.9
605.127,1317.6
605.259,1302.2
605.392,1304.0
605.525,1294.9
605.658,1284.1
605.791,1273.9
605.924,1279.3
606.057,1266.5
606.189,1265.6
606.322,1256.3
606.455,1258.0
606.588,1247.7
606.721,1236.4
606.853,1249.2
606.986,1236.3
607.119,1230.5
607.252,1231.9
607.385,1217.2
607.517,1217.2
607.65,1219.5
607.783,1215.8
607.916,1208.0
608.049,1202.8
608.181,1201.9
608.314,1195.9
608.447,1198.2
608.58,1192.5
608.712,1188.4
608.845,1182.5
608.978,1189.1
609.111,1185.3
609.243,1180.9
609.376,1177.0
609.509,1167.1
609.641,1168.2
609.774,1165.5
609.907,1158.7
610.039,1163.5
610.172,1158.3
610.305,1155.0
610.438,1152.3
610.57,1155.0
610.703,1153.8
610.836,1150.8
610.968,1144.8
611.101,1144.2
611.234,1137.5
611.366,1141.6
611.499,1141.6
611.631,1138.4
611.764,1139.6
611.897,1132.7
612.029,1127.2
612.162,1128.7
612.295,1133.0
612.427,1129.7
612.56,1127.5
612.692,1125.6
612.825,1128.8
612.958,1121.3
613.09,1121.4
613.223,1126.7
613.355,1123.1
613.488,1115.7
613.621,1113.8
613.753,1113.7
613.886,1110.0
614.018,1107.9
614.151,1112.8
614.283,1104.3
614.416,1109.3
614.548,1112.4
614.681,1102.7
614.814,1101.8
614.946,1106.2
615.079,1101.9
615.211,1091.6
615.344,1092.8
615.476,1094.2
615.609,1085.7
615.741,1088.9
615.874,1089.8
616.006,1084.0
616.139,1086.1
616.271,1084.3
616.404,1078.5
616.536,1083.7
616.669,1077.5
616.801,1083.4
616.933,1074.6
617.066,1080.8
617.198,1082.9
617.331,1076.9
617.463,1071.9
617.596,1070.3
617.728,1072.3
617.861,1083.3
617.993,1070.2
618.125,1071.6
618.258,1065.9
618.39,1069.9
618.523,1067.1
618.655,1062.6
618.788,1061.3
618.92,1066.2
619.052,1057.8
619.185,1058.0
619.317,1058.3
619.45,1068.3
619.582,1055.4
619.714,1065.8
619.847,1061.0
619.979,1057.6
620.111,1051.8
620.244,1048.7
620.376,1057.1
620.509,1050.7
620.641,1056.8
620.773,1051.8
620.906,1049.5
621.038,1050.7
621.17,1054.7
621.303,1057.9
621.435,1058.4
621.567,1056.1
621.7,1065.2
621.832,1060.2
621.964,1073.3
622.096,1079.6
622.229,1078.4
622.361,1081.2
622.493,1082.8
622.626,1067.4
622.758,1063.0
622.89,1059.0
623.022,1047.8
623.155,1047.0
623.287,1043.3
623.419,1043.3
623.552,1041.8
623.684,1034.1
623.816,1037.6
623.948,1038.0
624.081,1034.6
624.213,1031.8
624.345,1034.0
624.477,1032.9
624.61,1034.2
624.742,1030.2
624.874,1031.4
625.006,1030.0
625.138,1028.8
625.271,1039.4
625.403,1036.5
625.535,1032.0
625.667,1033.6
625.799,1033.7
625.932,1041.5
626.064,1039.9
626.196,1048.6
626.328,1054.8
626.46,1069.2
626.593,1103.0
626.725,1150.0
626.857,1256.1
626.989,1404.0
627.121,1569.9
627.253,1661.4
627.386,1630.1
627.518,1545.5
627.65,1474.0
627.782,1430.2
627.914,1387.6
628.046,1375.0
628.178,1376.2
628.311,1431.6
628.443,1575.3
628.575,1725.9
628.707,1633.8
628.839,1477.2
628.971,1420.9
629.103,1391.2
629.235,1374.6
629.367,1356.9
629.5,1325.5
629.632,1297.8
629.764,1270.4
629.896,1247.5
630.028,1244.0
630.16,1228.7
630.292,1235.0
630.424,1234.6
630.556,1224.8
630.688,1205.7
630.82,1175.9
630.952,1146.9
631.084,1109.4
631.216,1086.7
631.349,1067.2
631.481,1056.9
631.613,1048.8
631.745,1051.5
631.877,1039.2
632.009,1035.6
632.141,1033.0
632.273,1032.6
632.405,1030.8
632.537,1022.8
632.669,1026.1
632.801,1017.9
632.933,1019.0
633.065,1014.4
633.197,1015.4
633.329,1018.1
633.461,1019.2
633.593,1020.5
633.725,1013.7
633.857,1015.1
633.989,1017.7
634.121,1019.0
634.253,1016.5
634.385,1018.9
634.517,1012.8
634.649,1017.3
634.781,1014.5
634.912,1016.8
635.044,1018.8
635.176,1011.6
635.308,1018.5
635.44,1017.6
635.572,1017.2
635.704,1020.0
635.836,1017.5
635.968,1014.7
636.1,1025.4
636.232,1018.8
636.364,1019.5
636.496,1018.6
636.628,1020.3
636.76,1019.6
636.891,1019.5
637.023,1023.5
637.155,1018.8
637.287,1019.7
637.419,1023.1
637.551,1022.9
637.683,1023.4
637.815,1024.1
637.947,1024.4
638.078,1023.0
638.21,1028.7
638.342,1031.3
638.474,1027.9
638.606,1026.5
638.738,1029.7
638.87,1027.0
639.002,1034.6
639.133,1029.5
639.265,1032.6
639.397,1040.5
639.529,1036.6
639.661,1032.3
639.793,1037.4
639.924,1035.2
640.056,1038.8
640.188,1037.1
640.32,1042.5
640.452,1045.1
640.584,1038.8
640.715,1041.5
640.847,1041.4
640.979,1042.9
641.111,1046.9
641.243,1049.2
641.374,1046.2
641.506,1045.5
641.638,1056.0
641.77,1050.8
641.902,1049.1
642.033,1057.3
642.165,1052.7
642.297,1056.5
642.429,1052.9
642.561,1050.3
642.692,1047.7
642.824,1059.8
642.956,1056.6
643.088,1058.8
643.219,1060.3
643.351,1055.6
643.483,1053.9
643.615,1060.2
643.746,1054.2
643.878,1059.8
644.01,1054.5
644.142,1056.9
644.273,1063.9
644.405,1064.5
644.537,1061.0
644.669,1064.9
644.8,1065.0
644.932,1070.3
645.064,1062.6
645.195,1067.7
645.327,1064.2
645.459,1062.8
645.591,1068.3
645.722,1067.0
645.854,1066.7
645.986,1070.1
646.117,1071.1
646.249,1070.7
646.381,1068.0
646.512,1072.8
646.644,1077.3
646.776,1067.0
646.908,1067.3
647.039,1073.0
647.171,1067.9
647.303,1074.1
647.434,1070.9
647.566,1083.2
647.698,1074.1
647.829,1073.2
647.961,1082.1
648.093,1068.0
648.224,1074.5
648.356,1074.2
648.488,1077.5
648.619,1077.1
648.751,1081.8
648.883,1079.8
649.014,1071.7
649.146,1078.4
649.277,1075.2
649.409,1078.4
649.541,1080.2
649.672,1074.9
649.804,1079.1
649.936,1076.1
650.067,1082.2
650.199,1074.7
650.33,1082.9
650.462,1072.5
650.594,1081.6
650.725,1075.6
650.857,1080.8
650.988,1079.6
651.12,1077.8
651.252,1077.7
651.383,1081.5
651.515,1084.5
651.646,1081.2
651.778,1080.5
651.91,1085.6
652.041,1084.6
652.173,1082.7
652.304,1087.1
652.436,1080.9
652.568,1084.1
652.699,1079.7
652.831,1089.0
652.962,1090.4
653.094,1092.0
653.225,1087.7
653.357,1086.6
653.489,1090.9
653.62,1088.7
653.752,1088.2
653.883,1086.4
654.015,1087.4
654.146,1084.9
654.278,1084.6
654.409,1089.8
654.541,1086.3
654.672,1083.2
654.804,1086.0
654.935,1088.0
655.067,1076.3
655.199,1082.9
655.33,1080.9
655.462,1081.6
655.593,1082.9
655.725,1084.7
655.856,1079.8
655.988,1081.7
656.119,1074.8
656.251,1077.8
656.382,1081.4
656.514,1076.7
656.645,1069.4
656.777,1075.1
656.908,1070.9
657.04,1069.5
657.171,1068.4
657.303,1067.0
657.434,1068.8
657.566,1065.2
657.697,1061.2
657.829,1059.2
657.96,1060.1
658.092,1064.4
658.223,1052.9
658.355,1061.8
658.486,1057.5
658.617,1055.8
658.749,1051.5
658.88,1051.9
659.012,1048.9
659.143,1041.6
659.275,1051.4
659.406,1043.0
659.538,1043.7
659.669,1044.2
659.801,1036.8
659.932,1039.4
660.064,1038.5
660.195,1030.6
660.326,1027.3
660.458,1033.7
660.589,1029.0
660.721,1023.7
660.852,1020.9
660.984,1018.1
661.115,1017.2
661.246,1018.5
661.378,1017.0
661.509,1013.5
661.641,1008.6
661.772,1007.7
661.904,1007.9
662.035,1004.7
662.166,1000.1
662.298,1003.0
662.429,999.5
662.561,996.9
662.692,996.9
662.823,991.2
662.955,995.5
663.086,989.3