File: spectra/VLFR_08-PLA_bio_Raman_1f8536ac.csv
nm,Intensity
526.495,826.1
526.632,828.2
526.768,826.8
526.905,826.9
527.042,827.8
527.179,828.7
527.315,826.6
527.452,827.1
527.589,828.2
527.725,826.2
527.862,827.8
527.999,826.8
528.136,827.5
528.272,828.4
528.409,827.5
528.546,825.3
528.682,826.4
528.819,826.6
528.955,827.1
529.092,827.6
529.229,827.9
529.365,827.8
529.502,827.2
529.639,828.3
529.775,828.4
529.912,825.7
530.048,826.7
530.185,827.8
530.321,826.1
530.458,828.2
530.594,827.8
530.731,827.5
530.867,826.5
531.004,827.2
531.14,828.1
531.277,825.4
531.413,828.0
531.55,827.8
531.686,826.4
531.823,825.8
531.959,834.2
532.096,868.9
532.232,879.4
532.369,839.9
532.505,829.3
532.641,826.1
532.778,826.3
532.914,826.7
533.051,827.1
533.187,827.7
533.323,826.8
533.46,827.9
533.596,830.6
533.732,843.5
533.869,917.6
534.005,1023.2
534.141,1064.7
534.278,1057.1
534.414,1039.3
534.55,1024.5
534.687,1012.6
534.823,998.6
534.959,988.3
535.095,977.6
535.232,970.7
535.368,964.3
535.504,958.6
535.64,954.3
535.777,940.7
535.913,938.7
536.049,934.8
536.185,934.1
536.321,933.4
536.457,941.4
536.594,940.9
536.73,948.3
536.866,938.5
537.002,932.2
537.138,924.4
537.274,923.7
537.41,925.3
537.547,921.6
537.683,929.4
537.819,926.4
537.955,928.0
538.091,920.0
538.227,915.7
538.363,914.0
538.499,907.0
538.635,908.4
538.771,909.2
538.907,909.1
539.043,906.4
539.179,906.9
539.315,906.0
539.451,905.4
539.587,906.5
539.723,897.5
539.859,896.0
539.995,888.5
540.131,893.8
540.267,898.5
540.403,905.6
540.539,911.3
540.675,913.3
540.811,916.0
540.947,919.6
541.083,918.9
541.219,922.0
541.354,913.4
541.49,917.6
541.626,914.3
541.762,903.4
541.898,903.7
542.034,902.6
542.17,902.9
542.305,901.2
542.441,898.6
542.577,897.2
542.713,901.6
542.849,903.9
542.984,902.0
543.12,912.6
543.256,917.4
543.392,929.3
543.528,939.2
543.663,942.8
543.799,943.2
543.935,943.2
544.071,940.7
544.206,931.9
544.342,921.8
544.478,911.7
544.613,906.6
544.749,903.5
544.885,905.3
545.02,899.6
545.156,896.6
545.292,899.3
545.427,896.3
545.563,894.2
545.699,895.8
545.834,894.2
545.97,890.9
546.106,894.0
546.241,896.0
546.377,894.0
546.512,893.4
546.648,894.9
546.784,895.2
546.919,896.5
547.055,895.0
547.19,899.3
547.326,897.6
547.461,899.4
547.597,897.2
547.732,901.2
547.868,897.8
548.003,901.1
548.139,898.8
548.274,898.2
548.41,896.7
548.545,896.0
548.681,898.7
548.816,900.0
548.952,903.2
549.087,899.8
549.223,902.0
549.358,901.2
549.494,901.8
549.629,904.7
549.764,904.6
549.9,899.8
550.035,899.8
550.171,900.5
550.306,903.7
550.441,902.7
550.577,900.1
550.712,902.1
550.847,902.2
550.983,907.1
551.118,903.6
551.253,905.5
551.389,909.4
551.524,907.0
551.659,905.7
551.795,910.6
551.93,913.4
552.065,912.1
552.201,910.1
552.336,915.7
552.471,912.9
552.606,912.3
552.742,915.8
552.877,913.0
553.012,916.3
553.147,916.4
553.283,908.3
553.418,906.5
553.553,907.3
553.688,911.0
553.823,918.0
553.959,922.9
554.094,921.3
554.229,918.8
554.364,916.1
554.499,914.7
554.634,914.9
554.769,907.4
554.905,908.0
555.04,906.1
555.175,901.6
555.31,903.3
555.445,900.1
555.58,897.3
555.715,899.7
555.85,897.9
555.985,898.8
556.121,900.7
556.256,899.7
556.391,899.5
556.526,900.8
556.661,902.9
556.796,901.2
556.931,906.6
557.066,908.2
557.201,910.8
557.336,915.9
557.471,922.8
557.606,937.5
557.741,962.2
557.876,1007.7
558.011,1064.3
558.146,1088.6
558.281,1057.4
558.416,989.6
558.551,944.8
558.685,928.2
558.82,925.5
558.955,921.7
559.09,921.8
559.225,921.5
559.36,917.2
559.495,915.1
559.63,917.6
559.765,917.5
559.9,919.3
560.034,911.8
560.169,912.7
560.304,908.5
560.439,910.2
560.574,910.0
560.709,910.4
560.843,907.4
560.978,908.4
561.113,905.0
561.248,904.7
561.383,902.6
561.517,907.4
561.652,904.1
561.787,907.6
561.922,904.2
562.057,905.6
562.191,904.6
562.326,906.8
562.461,909.0
562.596,909.6
562.73,915.9
562.865,915.9
563.0,925.9
563.134,935.2
563.269,944.8
563.404,958.7
563.539,962.3
563.673,951.4
563.808,937.2
563.943,928.5
564.077,924.9
564.212,917.7
564.346,915.7
564.481,919.0
564.616,926.7
564.75,932.3
564.885,941.2
565.02,948.5
565.154,946.5
565.289,944.7
565.423,942.5
565.558,941.8
565.693,942.5
565.827,950.2
565.962,963.5
566.096,979.2
566.231,983.0
566.365,968.1
566.5,954.2
566.634,936.9
566.769,926.9
566.903,918.1
567.038,918.7
567.172,911.6
567.307,912.9
567.441,914.2
567.576,913.2
567.71,919.6
567.845,925.1
567.979,931.8
568.114,924.7
568.248,920.4
568.383,925.5
568.517,923.2
568.652,921.4
568.786,922.0
568.92,922.7
569.055,925.3
569.189,923.8
569.324,923.4
569.458,921.0
569.592,919.2
569.727,919.0
569.861,915.9
569.996,915.1
570.13,916.3
570.264,917.3
570.399,921.6
570.533,917.1
570.667,920.0
570.802,922.8
570.936,922.1
571.07,922.2
571.205,923.0
571.339,927.6
571.473,945.1
571.607,953.6
571.742,955.6
571.876,949.1
572.01,939.8
572.144,934.7
572.279,935.9
572.413,940.2
572.547,932.4
572.681,936.2
572.816,936.0
572.95,932.7
573.084,936.3
573.218,936.3
573.353,935.2
573.487,941.2
573.621,942.4
573.755,940.5
573.889,946.5
574.023,938.1
574.158,938.6
574.292,941.5
574.426,949.4
574.56,956.0
574.694,947.8
574.828,936.8
574.963,930.7
575.097,926.7
575.231,922.3
575.365,923.4
575.499,925.5
575.633,921.6
575.767,927.6
575.901,924.5
576.035,928.2
576.169,935.4
576.303,943.6
576.438,968.0
576.572,995.4
576.706,1008.9
576.84,1016.1
576.974,1012.5
577.108,995.7
577.242,967.8
577.376,948.4
577.51,936.6
577.644,935.9
577.778,929.4
577.912,929.9
578.046,924.7
578.18,926.9
578.314,924.9
578.448,926.6
578.582,925.9
578.716,924.4
578.85,924.2
578.984,920.5
579.117,919.5
579.251,921.0
579.385,922.9
579.519,924.6
579.653,927.2
579.787,927.6
579.921,923.2
580.055,924.4
580.189,922.4
580.323,926.2
580.456,923.4
580.59,921.1
580.724,921.1
580.858,923.7
580.992,922.4
581.126,925.7
581.26,922.9
581.393,923.7
581.527,926.1
581.661,924.4
581.795,926.0
581.929,923.8
582.063,926.8
582.196,921.7
582.33,927.6
582.464,921.5
582.598,922.6
582.731,925.4
582.865,930.3
582.999,924.7
583.133,929.1
583.267,925.4
583.4,926.9
583.534,930.1
583.668,928.3
583.801,926.8
583.935,930.1
584.069,929.0
584.203,929.7
584.336,927.1
584.47,929.0
584.604,927.8
584.737,928.0
584.871,932.0
585.005,926.8
585.138,926.0
585.272,927.6
585.406,929.3
585.539,927.2
585.673,926.7
585.807,929.5
585.94,930.1
586.074,927.7
586.208,930.8
586.341,937.9
586.475,944.5
586.608,952.5
586.742,963.2
586.876,975.0
587.009,990.1
587.143,990.3
587.276,994.0
587.41,1014.0
587.543,1013.6
587.677,1011.3
587.811,990.0
587.944,975.7
588.078,956.6
588.211,945.8
588.345,941.1
588.478,932.8
588.612,933.3
588.745,934.0
588.879,933.3
589.012,926.4
589.146,925.6
589.279,931.8
589.413,928.1
589.546,931.0
589.68,928.1
589.813,930.5
589.947,930.3
590.08,930.0
590.214,926.3
590.347,929.2
590.48,929.3
590.614,930.1
590.747,925.5
590.881,930.1
591.014,928.4
591.148,925.1
591.281,930.0
591.414,926.7
591.548,925.1
591.681,928.0
591.815,927.7
591.948,930.5
592.081,931.2
592.215,929.4
592.348,928.4
592.481,926.4
592.615,925.7
592.748,927.4
592.881,924.7
593.015,926.6
593.148,928.7
593.281,925.6
593.415,926.0
593.548,927.3
593.681,923.8
593.815,925.8
593.948,927.9
594.081,927.4
594.215,922.2
594.348,927.5
594.481,922.7
594.614,926.1
594.748,926.9
594.881,927.9
595.014,928.7
595.147,927.0
595.281,927.3
595.414,923.2
595.547,929.1
595.68,932.6
595.814,929.5
595.947,927.7
596.08,928.0
596.213,929.2
596.347,926.2
596.48,927.8
596.613,926.4
596.746,927.4
596.879,929.0
597.012,926.3
597.146,929.5
597.279,930.9
597.412,933.5
597.545,926.0
597.678,926.8
597.811,928.2
597.945,930.2
598.078,933.9
598.211,931.1
598.344,931.5
598.477,928.5
598.61,925.6
598.743,929.3
598.876,929.4
599.009,927.8
599.143,930.0
599.276,933.6
599.409,930.4
599.542,928.5
599.675,930.1
599.808,931.7
599.941,929.4
600.074,929.3
600.207,933.1
600.34,931.6
600.473,929.9
600.606,928.2
600.739,927.1
600.872,926.4
601.005,929.1
601.138,927.3
601.271,925.3
601.404,932.3
601.537,928.6
601.67,929.6
601.803,925.1
601.936,931.2
602.069,929.2
602.202,927.8
602.335,929.7
602.468,927.2
602.601,931.2
602.734,927.9
602.867,927.0
603.0,931.6
603.133,929.8
603.266,927.9
603.399,929.5
603.532,929.9
603.665,930.9
603.798,930.1
603.931,930.0
604.064,928.0
604.196,930.8
604.329,929.4
604.462,927.0
604.595,928.2
604.728,925.9
604.861,927.5
604.994,929.9
605.127,929.2
605.259,925.0
605.392,922.4
605.525,925.5
605.658,923.7
605.791,925.3
605.924,924.4
606.057,926.9
606.189,925.0
606.322,922.4
606.455,924.9
606.588,925.5
606.721,923.9
606.853,927.3
606.986,924.2
607.119,923.4
607.252,929.7
607.385,925.5
607.517,922.4
607.65,927.8
607.783,927.8
607.916,925.6
608.049,926.5
608.181,922.6
608.314,930.6
608.447,925.6
608.58,928.5
608.712,933.8
608.845,929.3
608.978,928.3
609.111,928.1
609.243,928.3
609.376,930.9
609.509,926.3
609.641,928.8
609.774,927.7
609.907,929.8
610.039,929.2
610.172,929.8
610.305,927.7
610.438,927.7
610.57,925.1
610.703,927.8
610.836,926.9
610.968,926.8
611.101,925.5
611.234,927.3
611.366,925.3
611.499,927.9
611.631,928.6
611.764,929.2
611.897,928.4
612.029,926.5
612.162,927.4
612.295,926.6
612.427,925.7
612.56,925.0
612.692,926.8
612.825,929.8
612.958,930.9
613.09,934.3
613.223,933.2
613.355,929.5
613.488,930.3
613.621,934.8
613.753,926.2
613.886,936.9
614.018,929.8
614.151,934.5
614.283,930.4
614.416,932.0
614.548,930.7
614.681,932.9
614.814,930.1
614.946,930.8
615.079,930.9
615.211,930.7
615.344,931.3
615.476,926.6
615.609,931.1
615.741,932.0
615.874,934.4
616.006,929.8
616.139,929.2
616.271,930.8
616.404,932.7
616.536,931.7
616.669,933.2
616.801,932.8
616.933,935.4
617.066,932.7
617.198,935.0
617.331,933.2
617.463,932.4
617.596,925.3
617.728,932.0
617.861,933.7
617.993,933.8
618.125,934.6
618.258,932.8
618.39,930.1
618.523,929.8
618.655,933.4
618.788,932.4
618.92,931.3
619.052,928.5
619.185,930.5
619.317,929.4
619.45,928.6
619.582,930.1
619.714,928.6
619.847,928.7
619.979,928.9
620.111,928.9
620.244,931.4
620.376,925.8
620.509,930.0
620.641,929.9
620.773,927.6
620.906,932.2
621.038,932.6
621.17,932.1
621.303,928.2
621.435,931.0
621.567,931.7
621.7,928.4
621.832,929.5
621.964,934.7
622.096,933.6
622.229,937.4
622.361,933.7
622.493,939.5
622.626,946.2
622.758,946.1
622.89,950.6
623.022,948.2
623.155,946.5
623.287,947.0
623.419,944.1
623.552,947.3
623.684,944.1
623.816,940.8
623.948,942.7
624.081,943.3
624.213,937.2
624.345,936.9
624.477,936.3
624.61,935.1
624.742,933.1
624.874,932.9
625.006,931.3
625.138,936.1
625.271,929.0
625.403,930.2
625.535,930.8
625.667,931.6
625.799,929.5
625.932,936.7
626.064,932.1
626.196,933.1
626.328,932.0
626.46,931.5
626.593,934.7
626.725,931.8
626.857,935.8
626.989,933.7
627.121,931.6
627.253,935.0
627.386,934.5
627.518,941.1
627.65,937.7
627.782,941.6
627.914,946.7
628.046,962.2
628.178,974.8
628.311,999.2
628.443,1025.2
628.575,1035.3
628.707,1029.8
628.839,1017.5
628.971,1008.3
629.103,1005.7
629.235,1002.6
629.367,1010.3
629.5,1004.9
629.632,1008.8
629.764,1009.8
629.896,1015.2
630.028,1007.7
630.16,1018.2
630.292,1031.2
630.424,1051.7
630.556,1082.7
630.688,1148.5
630.82,1251.7
630.952,1420.3
631.084,1544.1
631.216,1558.6
631.349,1459.3
631.481,1349.1
631.613,1248.3
631.745,1178.6
631.877,1136.1
632.009,1103.3
632.141,1088.5
632.273,1078.7
632.405,1064.0
632.537,1060.2
632.669,1061.8
632.801,1077.1
632.933,1108.2
633.065,1152.3
633.197,1171.4
633.329,1177.7
633.461,1171.6
633.593,1155.2
633.725,1127.5
633.857,1094.1
633.989,1067.5
634.121,1039.7
634.253,1014.3
634.385,992.8
634.517,981.2
634.649,963.0
634.781,956.3
634.912,944.2
635.044,941.8
635.176,938.2
635.308,937.3
635.44,936.9
635.572,935.3
635.704,933.7
635.836,929.5
635.968,929.2
636.1,931.7
636.232,929.8
636.364,929.7
636.496,927.5
636.628,927.5
636.76,926.2
636.891,922.3
637.023,924.3
637.155,922.4
637.287,921.6
637.419,926.0
637.551,925.2
637.683,917.3
637.815,920.9
637.947,918.2
638.078,920.8
638.21,924.7
638.342,921.0
638.474,921.8
638.606,920.9
638.738,920.5
638.87,918.9
639.002,922.8
639.133,917.1
639.265,920.2
639.397,921.2
639.529,919.7
639.661,919.7
639.793,921.1
639.924,920.1
640.056,920.6
640.188,918.7
640.32,920.8
640.452,920.1
640.584,918.9
640.715,919.6
640.847,919.2
640.979,923.3
641.111,920.0
641.243,919.9
641.374,919.2
641.506,920.7
641.638,924.7
641.77,918.3
641.902,922.1
642.033,922.0
642.165,923.8
642.297,922.3
642.429,923.0
642.561,922.8
642.692,922.4
642.824,919.5
642.956,917.2
643.088,919.5
643.219,915.7
643.351,914.4
643.483,916.8
643.615,917.5
643.746,911.6
643.878,913.5
644.01,910.6
644.142,913.9
644.273,914.2
644.405,909.8
644.537,915.9
644.669,910.8
644.8,908.8
644.932,909.9
645.064,910.6
645.195,910.3
645.327,912.5
645.459,911.8
645.591,911.1
645.722,907.2
645.854,908.3
645.986,910.8
646.117,910.8
646.249,911.8
646.381,909.6
646.512,912.4
646.644,909.9
646.776,906.6
646.908,912.5
647.039,912.8
647.171,908.3
647.303,908.8
647.434,909.8
647.566,911.0
647.698,911.2
647.829,910.3
647.961,909.2
648.093,908.1
648.224,910.9
648.356,910.4
648.488,908.3
648.619,907.4
648.751,909.2
648.883,909.1
649.014,913.4
649.146,909.9
649.277,903.7
649.409,909.0
649.541,907.7
649.672,908.1
649.804,908.0
649.936,903.3
650.067,910.0
650.199,904.8
650.33,907.0
650.462,905.8
650.594,906.6
650.725,905.9
650.857,904.7
650.988,906.7
651.12,903.6
651.252,908.1
651.383,907.9
651.515,904.9
651.646,906.8
651.778,907.7
651.91,902.3
652.041,905.3
652.173,905.8
652.304,903.4
652.436,902.7
652.568,905.3
652.699,906.6
652.831,908.2
652.962,903.1
653.094,905.4
653.225,904.4
653.357,902.3
653.489,903.8
653.62,902.4
653.752,903.9
653.883,905.9
654.015,907.9
654.146,904.2
654.278,905.7
654.409,904.9
654.541,906.1
654.672,901.6
654.804,903.4
654.935,902.5
655.067,901.6
655.199,901.8
655.33,901.4
655.462,901.4
655.593,901.9
655.725,905.7
655.856,901.1
655.988,899.6
656.119,902.2
656.251,902.8
656.382,904.7
656.514,904.3
656.645,903.4
656.777,902.7
656.908,903.0
657.04,904.4
657.171,902.8
657.303,907.6
657.434,907.9
657.566,904.2
657.697,905.2
657.829,901.9
657.96,905.7
658.092,903.3
658.223,902.4
658.355,906.3
658.486,903.5
658.617,903.5
658.749,906.2
658.88,904.8
659.012,903.3
659.143,902.2
659.275,901.1
659.406,907.8
659.538,901.5
659.669,902.5
659.801,900.8
659.932,900.8
660.064,901.1
660.195,898.0
660.326,901.9
660.458,901.9
660.589,902.9
660.721,901.8
660.852,899.4
660.984,899.9
661.115,897.9
661.246,902.5
661.378,899.0
661.509,899.7
661.641,898.3
661.772,898.9
661.904,897.7
662.035,898.7
662.166,899.3
662.298,897.6
662.429,899.6
662.561,896.7
662.692,896.7
662.823,900.4
662.955,900.0
663.086,899.9