File: spectra/VLFR_01-LDPE_nobio_Raman_2f8903da.csv
nm,Intensity
526.532,830.3
526.669,830.5
526.805,830.067
526.942,829.933
527.079,830.167
527.216,831.0
527.352,830.033
527.489,830.967
527.625,830.367
527.762,829.867
527.899,830.7
528.035,830.333
528.172,829.7
528.309,829.733
528.445,829.967
528.582,830.2
528.718,830.1
528.855,830.7
528.992,830.167
529.128,829.4
529.265,829.9
529.401,830.2
529.538,830.8
529.674,830.433
529.811,829.233
529.947,830.233
530.084,830.533
530.22,830.167
530.357,830.0
530.493,830.733
530.63,830.3
530.766,829.6
530.903,831.033
531.039,830.633
531.176,830.467
531.312,830.2
531.449,830.767
531.585,829.6
531.721,829.3
531.858,830.1
531.994,839.633
532.131,873.833
532.267,866.3
532.403,836.6
532.54,830.5
532.676,829.9
532.812,829.7
532.949,831.0
533.085,830.067
533.221,829.967
533.358,830.467
533.494,829.967
533.63,831.433
533.767,841.3
533.903,873.867
534.039,913.033
534.176,919.2
534.312,914.0
534.448,908.767
534.584,905.967
534.721,901.033
534.857,896.867
534.993,892.833
535.129,889.533
535.266,884.333
535.402,881.467
535.538,876.3
535.674,873.967
535.81,871.433
535.947,869.7
536.083,867.5
536.219,867.567
536.355,866.367
536.491,862.867
536.627,862.1
536.764,860.933
536.9,860.2
537.036,861.233
537.172,859.433
537.308,861.167
537.444,859.2
537.58,859.533
537.716,858.3
537.852,859.6
537.988,858.9
538.125,858.667
538.261,858.9
538.397,857.6
538.533,855.633
538.669,854.6
538.805,854.467
538.941,853.5
539.077,852.867
539.213,851.767
539.349,851.467
539.485,851.367
539.621,849.467
539.757,849.567
539.893,847.833
540.029,848.233
540.165,847.733
540.301,846.967
540.437,847.167
540.572,845.867
540.708,846.567
540.844,847.433
540.98,846.067
541.116,846.733
541.252,846.733
541.388,844.867
541.524,845.8
541.66,845.7
541.795,845.0
541.931,844.633
542.067,845.767
542.203,844.533
542.339,844.867
542.475,845.833
542.611,846.233
542.746,844.6
542.882,845.5
543.018,844.767
543.154,844.2
543.289,844.433
543.425,843.8
543.561,844.0
543.697,845.3
543.833,844.6
543.968,845.033
544.104,844.267
544.24,844.567
544.375,844.1
544.511,844.0
544.647,842.967
544.783,843.667
544.918,843.467
545.054,842.867
545.19,842.333
545.325,843.467
545.461,842.233
545.597,843.967
545.732,844.7
545.868,842.4
546.004,843.133
546.139,842.767
546.275,843.467
546.41,841.667
546.546,843.367
546.682,842.967
546.817,842.367
546.953,842.167
547.088,843.133
547.224,842.733
547.36,842.833
547.495,842.4
547.631,841.867
547.766,841.767
547.902,843.233
548.037,842.433
548.173,841.567
548.308,842.3
548.444,842.267
548.579,841.667
548.715,841.533
548.85,841.867
548.986,840.567
549.121,840.667
549.257,840.967
549.392,841.033
549.528,840.8
549.663,841.5
549.798,840.433
549.934,840.433
550.069,841.167
550.205,839.933
550.34,840.9
550.475,840.733
550.611,840.233
550.746,840.333
550.882,841.067
551.017,842.167
551.152,840.533
551.288,841.2
551.423,841.533
551.558,839.833
551.694,841.133
551.829,841.133
551.964,840.767
552.1,841.133
552.235,840.767
552.37,841.133
552.505,841.133
552.641,841.2
552.776,842.167
552.911,842.133
553.047,842.967
553.182,843.5
553.317,844.6
553.452,845.4
553.588,845.7
553.723,846.433
553.858,845.8
553.993,846.1
554.128,845.967
554.264,846.033
554.399,845.767
554.534,845.967
554.669,846.867
554.804,846.033
554.939,847.033
555.075,847.6
555.21,848.067
555.345,847.533
555.48,848.267
555.615,848.133
555.75,848.967
555.885,848.9
556.02,849.267
556.155,850.733
556.291,850.133
556.426,851.233
556.561,851.6
556.696,852.9
556.831,852.7
556.966,853.633
557.101,854.933
557.236,856.233
557.371,855.5
557.506,857.067
557.641,858.767
557.776,859.5
557.911,860.567
558.046,861.133
558.181,861.233
558.316,862.367
558.451,862.567
558.586,862.5
558.721,862.533
558.856,862.9
558.991,859.8
559.126,856.533
559.261,856.967
559.396,856.633
559.531,856.5
559.665,855.8
559.8,854.3
559.935,854.733
560.07,853.333
560.205,854.633
560.34,853.467
560.475,853.233
560.61,853.1
560.745,852.7
560.879,853.1
561.014,853.8
561.149,854.333
561.284,854.133
561.419,855.233
561.553,854.3
561.688,855.633
561.823,856.3
561.958,855.533
562.093,856.333
562.227,859.033
562.362,859.767
562.497,860.867
562.632,862.133
562.767,862.867
562.901,864.7
563.036,865.9
563.171,865.867
563.305,869.367
563.44,870.667
563.575,874.267
563.71,881.367
563.844,904.233
563.979,961.567
564.114,995.967
564.248,949.633
564.383,905.233
564.518,897.067
564.652,895.9
564.787,895.667
564.922,892.0
565.056,886.4
565.191,882.667
565.325,880.333
565.46,880.133
565.595,881.467
565.729,885.767
565.864,897.567
565.999,938.867
566.133,1010.1
566.268,1006.07
566.402,936.933
566.537,898.867
566.671,886.1
566.806,881.267
566.94,877.667
567.075,875.433
567.21,874.7
567.344,877.133
567.479,880.333
567.613,880.467
567.748,874.933
567.882,871.133
568.017,870.767
568.151,870.9
568.285,870.9
568.42,870.8
568.554,871.4
568.689,873.433
568.823,871.7
568.958,872.467
569.092,875.567
569.227,875.433
569.361,876.2
569.495,875.1
569.63,878.5
569.764,877.833
569.899,879.167
570.033,881.567
570.167,881.667
570.302,885.033
570.436,887.6
570.571,890.467
570.705,894.567
570.839,895.167
570.974,898.167
571.108,902.867
571.242,912.367
571.377,950.733
571.511,1070.8
571.645,1104.57
571.78,996.8
571.914,953.633
572.048,937.9
572.182,928.933
572.317,921.0
572.451,914.867
572.585,911.767
572.719,906.433
572.854,906.033
572.988,906.067
573.122,904.867
573.256,907.733
573.391,908.967
573.525,908.0
573.659,911.7
573.793,915.167
573.927,926.867
574.062,929.367
574.196,925.0
574.33,921.833
574.464,918.633
574.598,919.767
574.733,921.7
574.867,926.733
575.001,926.233
575.135,929.467
575.269,937.533
575.403,959.1
575.537,1011.9
575.671,1032.1
575.806,1007.9
575.94,1012.97
576.074,1039.57
576.208,1088.67
576.342,1113.47
576.476,1096.17
576.61,1071.0
576.744,1067.03
576.878,1066.53
577.012,1070.1
577.146,1065.7
577.28,1052.93
577.414,1033.37
577.548,1018.37
577.682,1015.53
577.817,1015.97
577.951,1016.63
578.085,1018.4
578.219,1018.93
578.353,1025.27
578.486,1029.17
578.62,1037.1
578.754,1043.57
578.888,1044.57
579.022,1051.27
579.156,1054.27
579.29,1059.27
579.424,1066.7
579.558,1073.9
579.692,1075.47
579.826,1082.43
579.96,1088.3
580.094,1094.6
580.228,1102.17
580.362,1111.07
580.496,1112.63
580.629,1122.2
580.763,1128.13
580.897,1131.17
581.031,1143.53
581.165,1141.23
581.299,1148.8
581.433,1156.93
581.566,1162.33
581.7,1165.97
581.834,1176.47
581.968,1177.4
582.102,1183.97
582.236,1185.77
582.369,1195.87
582.503,1198.9
582.637,1204.47
582.771,1210.93
582.905,1213.63
583.038,1219.1
583.172,1222.77
583.306,1228.73
583.44,1224.57
583.573,1236.3
583.707,1236.57
583.841,1242.33
583.975,1244.43
584.108,1244.17
584.242,1241.23
584.376,1251.73
584.509,1250.27
584.643,1247.83
584.777,1257.23
584.911,1255.3
585.044,1255.9
585.178,1260.6
585.312,1260.47
585.445,1259.8
585.579,1260.07
585.713,1260.6
585.846,1260.63
585.98,1265.57
586.113,1271.9
586.247,1267.83
586.381,1269.4
586.514,1269.3
586.648,1270.33
586.782,1272.27
586.915,1270.9
587.049,1268.2
587.182,1274.07
587.316,1274.47
587.45,1267.37
587.583,1273.3
587.717,1269.77
587.85,1271.27
587.984,1273.93
588.117,1272.23
588.251,1269.23
588.384,1267.17
588.518,1269.6
588.651,1268.6
588.785,1265.73
588.919,1264.47
589.052,1262.33
589.186,1263.6
589.319,1266.47
589.453,1268.57
589.586,1264.3
589.72,1263.0
589.853,1261.53
589.986,1269.53
590.12,1264.07
590.253,1262.23
590.387,1260.03
590.52,1264.6
590.654,1265.53
590.787,1264.07
590.921,1265.93
591.054,1265.4
591.187,1263.63
591.321,1264.7
591.454,1267.67
591.588,1256.57
591.721,1262.53
591.854,1261.03
591.988,1260.93
592.121,1256.33
592.255,1259.63
592.388,1258.33
592.521,1254.97
592.655,1254.63
592.788,1251.47
592.921,1253.7
593.055,1248.63
593.188,1247.8
593.321,1248.4
593.455,1247.5
593.588,1245.53
593.721,1244.83
593.855,1242.47
593.988,1241.4
594.121,1244.9
594.255,1244.1
594.388,1244.43
594.521,1246.17
594.654,1237.83
594.788,1241.13
594.921,1238.47
595.054,1245.83
595.187,1244.5
595.321,1244.33
595.454,1242.4
595.587,1244.37
595.72,1242.6
595.854,1242.77
595.987,1247.17
596.12,1245.87
596.253,1249.7
596.387,1242.23
596.52,1244.33
596.653,1245.37
596.786,1244.6
596.919,1251.77
597.052,1245.07
597.186,1249.97
597.319,1249.7
597.452,1247.17
597.585,1249.0
597.718,1254.9
597.851,1254.87
597.985,1256.23
598.118,1261.2
598.251,1257.8
598.384,1264.3
598.517,1266.07
598.65,1264.07
598.783,1270.07
598.916,1267.17
599.049,1268.4
599.183,1269.67
599.316,1273.5
599.449,1271.13
599.582,1272.0
599.715,1272.43
599.848,1268.47
599.981,1272.43
600.114,1273.73
600.247,1269.5
600.38,1273.27
600.513,1270.23
600.646,1268.33
600.779,1266.87
600.912,1272.8
601.045,1266.63
601.178,1270.4
601.311,1262.83
601.444,1262.83
601.577,1264.4
601.71,1266.03
601.843,1259.67
601.976,1265.2
602.109,1266.4
602.242,1259.2
602.375,1259.83
602.508,1256.73
602.641,1256.8
602.774,1253.27
602.907,1248.5
603.04,1247.63
603.173,1245.07
603.306,1242.8
603.439,1238.77
603.572,1235.37
603.705,1227.43
603.838,1227.4
603.971,1229.7
604.103,1222.37
604.236,1218.0
604.369,1218.63
604.502,1211.5
604.635,1210.4
604.768,1207.5
604.901,1196.53
605.034,1193.53
605.167,1190.97
605.299,1187.43
605.432,1182.37
605.565,1178.43
605.698,1173.37
605.831,1173.97
605.964,1165.77
606.096,1166.13
606.229,1158.93
606.362,1152.57
606.495,1149.6
606.628,1147.97
606.761,1149.33
606.893,1143.4
607.026,1144.43
607.159,1137.23
607.292,1135.3
607.425,1135.63
607.557,1134.5
607.69,1127.37
607.823,1124.33
607.956,1125.7
608.088,1122.7
608.221,1117.7
608.354,1120.37
608.487,1115.17
608.619,1110.37
608.752,1111.17
608.885,1105.83
609.018,1104.4
609.15,1101.77
609.283,1100.63
609.416,1096.27
609.548,1094.27
609.681,1095.07
609.814,1090.5
609.947,1090.63
610.079,1086.07
610.212,1081.63
610.345,1083.83
610.477,1082.6
610.61,1081.63
610.743,1075.37
610.875,1080.3
611.008,1075.4
611.141,1075.5
611.273,1071.67
611.406,1071.9
611.539,1070.93
611.671,1069.37
611.804,1069.27
611.936,1068.17
612.069,1061.4
612.202,1065.53
612.334,1059.9
612.467,1062.73
612.6,1061.37
612.732,1058.23
612.865,1058.23
612.997,1057.77
613.13,1053.9
613.263,1056.67
613.395,1055.67
613.528,1051.6
613.66,1049.47
613.793,1051.97
613.925,1049.43
614.058,1048.9
614.19,1048.3
614.323,1044.47
614.456,1044.03
614.588,1040.83
614.721,1042.43
614.853,1039.43
614.986,1037.7
615.118,1038.03
615.251,1037.63
615.383,1036.83
615.516,1033.17
615.648,1034.07
615.781,1031.47
615.913,1031.03
616.046,1029.13
616.178,1027.83
616.311,1026.77
616.443,1026.7
616.576,1025.1
616.708,1024.7
616.841,1028.03
616.973,1028.57
617.106,1030.13
617.238,1029.23
617.37,1027.63
617.503,1030.37
617.635,1028.1
617.768,1027.17
617.9,1027.87
618.033,1026.77
618.165,1027.37
618.297,1026.57
618.43,1024.57
618.562,1022.4
618.695,1021.57
618.827,1021.53
618.96,1021.8
619.092,1022.1
619.224,1020.6
619.357,1022.73
619.489,1022.1
619.621,1027.87
619.754,1025.6
619.886,1024.93
620.019,1026.13
620.151,1022.33
620.283,1023.77
620.416,1022.5
620.548,1025.13
620.68,1024.57
620.813,1027.37
620.945,1026.57
621.077,1029.57
621.21,1030.0
621.342,1032.93
621.474,1037.23
621.607,1037.4
621.739,1048.0
621.871,1049.67
622.004,1058.37
622.136,1067.5
622.268,1069.17
622.401,1072.03
622.533,1064.87
622.665,1058.37
622.797,1051.9
622.93,1045.73
623.062,1040.33
623.194,1036.9
623.326,1035.4
623.459,1035.97
623.591,1030.6
623.723,1030.5
623.856,1032.03
623.988,1031.83
624.12,1034.47
624.252,1027.8
624.384,1032.5
624.517,1034.53
624.649,1031.4
624.781,1034.4
624.913,1038.97
625.046,1037.43
625.178,1043.07
625.31,1039.77
625.442,1043.8
625.574,1045.8
625.707,1051.0
625.839,1054.8
625.971,1059.7
626.103,1063.07
626.235,1071.5
626.368,1089.1
626.5,1102.67
626.632,1148.17
626.764,1222.03
626.896,1349.57
627.028,1550.03
627.161,1760.9
627.293,1859.13
627.425,1804.63
627.557,1702.4
627.689,1621.3
627.821,1556.27
627.953,1512.93
628.086,1503.27
628.218,1523.2
628.35,1601.67
628.482,1809.63
628.614,1983.97
628.746,1864.33
628.878,1711.3
629.01,1650.8
629.143,1614.87
629.275,1585.7
629.407,1563.87
629.539,1522.7
629.671,1484.4
629.803,1448.17
629.935,1420.5
630.067,1413.8
630.199,1406.8
630.331,1408.83
630.463,1393.8
630.596,1378.7
630.728,1353.0
630.86,1319.43
630.992,1270.67
631.124,1218.0
631.256,1181.47
631.388,1161.67
631.52,1149.93
631.652,1142.17
631.784,1135.8
631.916,1128.2
632.048,1119.53
632.18,1112.07
632.312,1108.73
632.444,1102.53
632.576,1101.3
632.708,1099.2
632.84,1102.5
632.972,1092.47
633.104,1096.17
633.236,1093.83
633.368,1091.93
633.5,1093.33
633.632,1095.1
633.764,1091.7
633.896,1091.87
634.028,1090.87
634.16,1096.2
634.292,1091.03
634.424,1089.93
634.556,1091.77
634.688,1090.37
634.82,1091.47
634.952,1092.3
635.084,1090.33
635.216,1090.57
635.348,1091.37
635.48,1091.53
635.612,1092.1
635.744,1091.97
635.876,1093.57
636.007,1093.47
636.139,1090.63
636.271,1090.8
636.403,1090.4
636.535,1089.73
636.667,1093.0
636.799,1091.07
636.931,1090.23
637.063,1090.67
637.195,1087.5
637.327,1085.1
637.459,1086.7
637.59,1087.97
637.722,1082.07
637.854,1086.07
637.986,1085.23
638.118,1087.03
638.25,1088.43
638.382,1082.13
638.514,1080.4
638.645,1082.4
638.777,1080.4
638.909,1080.1
639.041,1078.93
639.173,1078.37
639.305,1081.57
639.437,1077.57
639.568,1078.67
639.7,1082.77
639.832,1077.8
639.964,1076.93
640.096,1079.13
640.228,1076.2
640.36,1075.7
640.491,1077.07
640.623,1076.8
640.755,1080.3
640.887,1074.9
641.019,1077.13
641.15,1078.43
641.282,1075.23
641.414,1074.87
641.546,1076.23
641.678,1076.9
641.81,1072.17
641.941,1072.43
642.073,1069.17
642.205,1073.87
642.337,1073.5
642.468,1071.63
642.6,1071.9
642.732,1072.17
642.864,1065.33
642.996,1066.3
643.127,1067.83
643.259,1068.27
643.391,1068.4
643.523,1066.0
643.654,1064.83
643.786,1062.97
643.918,1061.57
644.05,1063.77
644.181,1061.33
644.313,1062.4
644.445,1059.0
644.577,1063.0
644.708,1058.8
644.84,1059.5
644.972,1060.6
645.104,1061.9
645.235,1057.87
645.367,1060.1
645.499,1059.9
645.631,1054.73
645.762,1059.5
645.894,1058.87
646.026,1055.87
646.157,1056.17
646.289,1054.97
646.421,1054.2
646.553,1055.77
646.684,1050.4
646.816,1051.97
646.948,1054.2
647.079,1051.47
647.211,1051.43
647.343,1053.23
647.474,1052.9
647.606,1052.37
647.738,1048.97
647.869,1052.77
648.001,1051.17
648.133,1049.6
648.265,1045.77
648.396,1048.57
648.528,1047.37
648.66,1046.97
648.791,1048.87
648.923,1049.8
649.054,1044.83
649.186,1042.9
649.318,1041.6
649.449,1042.77
649.581,1044.57
649.713,1045.27
649.844,1044.93
649.976,1044.3
650.108,1045.9
650.239,1041.0
650.371,1040.5
650.503,1040.5
650.634,1043.53
650.766,1041.83
650.897,1039.87
651.029,1039.33
651.161,1044.77
651.292,1040.7
651.424,1038.43
651.556,1037.0
651.687,1037.7
651.819,1041.07
651.95,1038.1
652.082,1039.87
652.214,1042.6
652.345,1040.43
652.477,1041.6
652.608,1040.07
652.74,1040.53
652.872,1039.87
653.003,1039.97
653.135,1039.83
653.266,1039.87
653.398,1038.87
653.529,1038.77
653.661,1041.23
653.793,1038.07
653.924,1040.53
654.056,1039.9
654.187,1041.17
654.319,1038.73
654.45,1036.4
654.582,1035.93
654.714,1035.37
654.845,1039.33
654.977,1037.27
655.108,1034.13
655.24,1034.73
655.371,1034.33
655.503,1030.53
655.634,1031.53
655.766,1031.9
655.897,1029.5
656.029,1029.1
656.161,1030.9
656.292,1026.07
656.424,1026.57
656.555,1027.33
656.687,1028.93
656.818,1026.4
656.95,1025.73
657.081,1026.47
657.213,1026.0
657.344,1023.43
657.476,1022.03
657.607,1019.37
657.739,1016.93
657.87,1020.1
658.002,1019.73
658.133,1016.43
658.265,1015.27
658.396,1017.83
658.528,1013.3
658.659,1010.13
658.791,1011.87
658.922,1009.77
659.054,1009.63
659.185,1010.07
659.317,1007.53
659.448,1007.5
659.58,1004.0
659.711,1002.77
659.843,1003.77
659.974,1004.5
660.106,999.2
660.237,998.9
660.368,996.533
660.5,995.9
660.631,992.667
660.763,992.067
660.894,987.9
661.026,987.933
661.157,986.4
661.289,986.533
661.42,984.733
661.552,983.833
661.683,979.4
661.815,980.1
661.946,978.667
662.077,975.6
662.209,975.3
662.34,973.133
662.472,973.6
662.603,970.3
662.735,970.933
662.866,969.067
662.997,966.567
663.129,965.067