File: spectra/VLFR_06-PET_nobio_Raman_5eefd76b.csv
nm,Intensity
528.65,1841.73
528.819,1841.47
528.987,1841.03
529.155,1842.3
529.324,1842.63
529.492,1841.5
529.66,1842.0
529.829,1842.03
529.997,1841.33
530.165,1843.1
530.334,1842.3
530.502,1841.73
530.67,1843.5
530.839,1842.6
531.007,1843.33
531.175,1843.5
531.344,1845.27
531.512,1849.63
531.68,1869.5
531.848,2309.77
532.017,4253.27
532.185,3578.83
532.353,1945.87
532.521,1847.8
532.69,1846.47
532.858,1846.2
533.026,1849.13
533.194,1852.5
533.363,1874.93
533.531,2061.8
533.699,3185.63
533.867,5385.37
534.036,6339.13
534.204,6229.53
534.372,5730.1
534.54,5401.57
534.708,5080.03
534.877,4711.03
535.045,4405.33
535.213,4125.37
535.381,3830.37
535.549,3553.5
535.717,3305.63
535.886,3108.63
536.054,2936.87
536.222,2823.77
536.39,2732.57
536.558,2687.07
536.726,2630.23
536.894,2606.13
537.062,2572.57
537.231,2567.67
537.399,2553.23
537.567,2540.77
537.735,2530.73
537.903,2513.67
538.071,2542.67
538.239,2560.73
538.407,2543.37
538.575,2553.27
538.743,2543.93
538.911,2524.87
539.079,2553.3
539.247,2581.23
539.415,2607.13
539.583,2662.7
539.751,2686.07
539.919,2688.13
540.087,2631.8
540.255,2577.93
540.423,2528.23
540.591,2478.17
540.759,2465.33
540.927,2442.23
541.095,2436.93
541.263,2423.23
541.431,2397.87
541.599,2407.5
541.767,2407.73
541.935,2428.5
542.103,2423.03
542.271,2427.63
542.439,2421.33
542.607,2420.23
542.775,2430.93
542.943,2418.6
543.111,2415.2
543.279,2417.43
543.446,2411.3
543.614,2433.83
543.782,2446.27
543.95,2463.17
544.118,2435.07
544.286,2444.93
544.454,2423.53
544.622,2415.77
544.789,2439.63
544.957,2436.63
545.125,2448.67
545.293,2438.87
545.461,2442.73
545.629,2418.6
545.796,2453.27
545.964,2443.5
546.132,2430.13
546.3,2443.93
546.468,2443.9
546.635,2437.37
546.803,2449.97
546.971,2452.57
547.139,2440.93
547.306,2440.87
547.474,2468.87
547.642,2445.33
547.81,2451.5
547.977,2456.67
548.145,2444.23
548.313,2453.13
548.481,2437.3
548.648,2460.03
548.816,2467.33
548.984,2442.93
549.151,2444.2
549.319,2457.03
549.487,2424.87
549.655,2443.63
549.822,2449.6
549.99,2453.47
550.158,2457.53
550.325,2546.6
550.493,2891.0
550.66,3243.63
550.828,2822.8
550.996,2496.83
551.163,2488.6
551.331,2485.07
551.499,2459.77
551.666,2463.37
551.834,2464.2
552.001,2478.07
552.169,2493.13
552.337,2483.6
552.504,2502.73
552.672,2676.87
552.839,2757.53
553.007,2629.6
553.174,2534.53
553.342,2477.13
553.509,2485.23
553.677,2492.63
553.844,2494.37
554.012,2487.7
554.179,2482.53
554.347,2462.97
554.514,2506.4
554.682,2474.33
554.849,2492.53
555.017,2528.9
555.184,2560.5
555.352,2615.33
555.519,2790.43
555.687,2872.07
555.854,2799.83
556.022,2822.97
556.189,2809.7
556.357,2830.17
556.524,2883.7
556.691,2892.53
556.859,2913.37
557.026,2980.6
557.194,3195.03
557.361,3518.57
557.528,3673.77
557.696,3481.0
557.863,3142.23
558.031,2975.3
558.198,2949.13
558.365,3012.8
558.533,2964.33
558.7,2855.47
558.867,2798.2
559.035,2709.23
559.202,2650.8
559.369,2606.7
559.537,2601.0
559.704,2565.07
559.871,2562.1
560.038,2577.4
560.206,2591.83
560.373,2563.23
560.54,2564.27
560.708,2589.57
560.875,2575.47
561.042,2610.9
561.209,2614.07
561.377,2623.13
561.544,2633.33
561.711,2641.9
561.878,2665.93
562.045,2701.57
562.213,2722.37
562.38,2717.23
562.547,2742.33
562.714,2746.83
562.881,2775.87
563.049,2793.07
563.216,2761.7
563.383,2744.9
563.55,2723.73
563.717,2715.83
563.884,2694.4
564.052,2692.63
564.219,2692.37
564.386,2724.1
564.553,2819.57
564.72,2874.5
564.887,2953.37
565.054,3068.03
565.221,3194.3
565.388,3299.43
565.556,3362.3
565.723,3419.57
565.89,3451.57
566.057,3313.4
566.224,3104.27
566.391,2941.5
566.558,2840.07
566.725,2794.23
566.892,2763.57
567.059,2747.23
567.226,2843.63
567.393,2960.3
567.56,3134.93
567.727,3168.57
567.894,3045.1
568.061,2871.7
568.228,2798.37
568.395,2795.73
568.562,2799.47
568.729,2775.87
568.896,2765.33
569.063,2782.23
569.23,2823.57
569.396,2838.97
569.563,2900.5
569.73,2933.33
569.897,2980.33
570.064,3031.6
570.231,3113.0
570.398,3315.27
570.565,3521.47
570.732,3775.27
570.898,4071.1
571.065,4323.4
571.232,4551.63
571.399,4523.83
571.566,4251.87
571.733,3898.43
571.9,3705.3
572.066,3526.07
572.233,3321.57
572.4,3155.83
572.567,3057.73
572.734,2987.47
572.9,2934.43
573.067,2938.93
573.234,2943.3
573.401,2927.27
573.567,2973.73
573.734,3021.03
573.901,3053.57
574.068,3072.87
574.234,3019.57
574.401,3018.37
574.568,3004.93
574.734,2993.93
574.901,3055.27
575.068,3086.53
575.235,3252.0
575.401,3236.87
575.568,3125.47
575.735,3045.07
575.901,3039.73
576.068,3103.53
576.235,3175.73
576.401,3263.8
576.568,3280.4
576.734,3236.43
576.901,3268.8
577.068,3181.2
577.234,3089.63
577.401,3037.63
577.567,3027.53
577.734,3017.87
577.901,3033.63
578.067,2994.87
578.234,3066.13
578.4,3038.4
578.567,3034.07
578.733,3033.43
578.9,3041.33
579.066,3043.43
579.233,3033.3
579.399,3054.07
579.566,3082.47
579.732,3095.77
579.899,3096.43
580.065,3105.87
580.232,3103.5
580.398,3116.47
580.565,3181.53
580.731,3204.37
580.898,3218.77
581.064,3221.63
581.231,3258.63
581.397,3429.2
581.563,3752.53
581.73,4656.17
581.896,6216.93
582.063,8545.1
582.229,8423.23
582.395,5548.07
582.562,3805.7
582.728,3412.1
582.895,3304.6
583.061,3218.97
583.227,3212.07
583.394,3213.47
583.56,3197.8
583.726,3190.57
583.893,3178.67
584.059,3250.67
584.225,3244.6
584.391,3250.2
584.558,3286.57
584.724,3336.9
584.89,3327.83
585.057,3424.3
585.223,3671.4
585.389,4213.7
585.555,4998.3
585.722,6051.97
585.888,6467.43
586.054,6326.83
586.22,5794.13
586.386,5140.73
586.553,4427.27
586.719,3849.4
586.885,3531.3
587.051,3403.6
587.217,3346.43
587.384,3301.7
587.55,3299.23
587.716,3289.07
587.882,3246.13
588.048,3244.23
588.214,3287.17
588.38,3232.2
588.546,3264.07
588.713,3252.4
588.879,3244.43
589.045,3232.7
589.211,3207.07
589.377,3250.67
589.543,3241.27
589.709,3193.03
589.875,3216.67
590.041,3235.27
590.207,3220.33
590.373,3232.97
590.539,3230.83
590.705,3205.43
590.871,3223.3
591.037,3235.03
591.203,3236.87
591.369,3214.97
591.535,3217.37
591.701,3267.37
591.867,3226.27
592.033,3231.13
592.199,3273.43
592.365,3258.9
592.531,3255.43
592.697,3223.47
592.863,3221.13
593.029,3247.17
593.195,3275.77
593.361,3237.63
593.526,3262.1
593.692,3261.9
593.858,3253.7
594.024,3238.47
594.19,3240.37
594.356,3251.97
594.522,3255.6
594.687,3242.07
594.853,3257.33
595.019,3285.3
595.185,3260.5
595.351,3277.07
595.516,3256.93
595.682,3300.1
595.848,3263.87
596.014,3263.33
596.18,3278.63
596.345,3315.47
596.511,3281.6
596.677,3291.03
596.843,3287.2
597.008,3273.83
597.174,3285.7
597.34,3271.03
597.505,3288.77
597.671,3297.27
597.837,3255.9
598.002,3273.73
598.168,3276.2
598.334,3292.6
598.499,3259.43
598.665,3306.17
598.831,3314.0
598.996,3262.63
599.162,3328.73
599.328,3298.83
599.493,3340.4
599.659,3284.83
599.824,3285.7
599.99,3298.4
600.156,3321.8
600.321,3273.3
600.487,3327.6
600.652,3314.8
600.818,3322.63
600.983,3293.57
601.149,3283.53
601.314,3352.93
601.48,3351.53
601.645,3322.57
601.811,3302.83
601.976,3301.6
602.142,3290.37
602.307,3309.63
602.473,3339.63
602.638,3353.0
602.804,3313.03
602.969,3302.23
603.135,3315.07
603.3,3304.57
603.466,3326.47
603.631,3395.73
603.796,3323.4
603.962,3365.13
604.127,3335.13
604.293,3289.53
604.458,3338.4
604.623,3314.6
604.789,3314.2
604.954,3347.27
605.119,3340.77
605.285,3345.7
605.45,3335.93
605.615,3312.93
605.781,3322.43
605.946,3364.8
606.111,3336.3
606.277,3351.53
606.442,3340.0
606.607,3349.0
606.772,3364.53
606.938,3351.37
607.103,3365.87
607.268,3366.73
607.433,3322.33
607.599,3353.47
607.764,3337.33
607.929,3337.73
608.094,3382.03
608.259,3353.8
608.425,3377.63
608.59,3361.73
608.755,3354.83
608.92,3353.17
609.085,3352.77
609.25,3380.43
609.415,3343.97
609.581,3373.27
609.746,3363.83
609.911,3385.53
610.076,3372.97
610.241,3345.6
610.406,3376.93
610.571,3383.47
610.736,3400.6
610.901,3409.57
611.066,3352.27
611.231,3384.53
611.396,3403.63
611.561,3359.73
611.727,3382.37
611.892,3404.87
612.057,3372.33
612.222,3401.77
612.386,3378.07
612.551,3376.47
612.716,3415.33
612.881,3397.93
613.046,3405.8
613.211,3356.7
613.376,3411.23
613.541,3356.9
613.706,3400.0
613.871,3412.9
614.036,3446.8
614.201,3413.1
614.366,3418.73
614.531,3445.23
614.695,3431.17
614.86,3442.27
615.025,3420.1
615.19,3440.27
615.355,3411.1
615.52,3414.57
615.684,3446.8
615.849,3459.4
616.014,3441.07
616.179,3452.57
616.344,3431.37
616.508,3436.5
616.673,3485.67
616.838,3439.93
617.003,3480.13
617.168,3502.97
617.332,3525.53
617.497,3478.33
617.662,3510.5
617.826,3503.53
617.991,3542.3
618.156,3521.97
618.32,3508.77
618.485,3539.8
618.65,3562.2
618.814,3524.97
618.979,3532.33
619.144,3495.83
619.308,3488.77
619.473,3511.5
619.638,3485.73
619.802,3513.6
619.967,3496.07
620.131,3488.5
620.296,3535.37
620.461,3470.97
620.625,3505.23
620.79,3508.97
620.954,3477.3
621.119,3489.33
621.283,3502.93
621.448,3480.8
621.612,3507.77
621.777,3550.33
621.941,3513.27
622.106,3482.97
622.27,3559.1
622.435,3485.5
622.599,3520.5
622.764,3561.37
622.928,3519.47
623.093,3540.57
623.257,3557.37
623.422,3551.07
623.586,3566.0
623.75,3590.07
623.915,3555.23
624.079,3564.73
624.244,3606.83
624.408,3596.03
624.572,3572.6
624.737,3571.63
624.901,3615.47
625.065,3659.7
625.23,3590.33
625.394,3630.1
625.558,3586.33
625.723,3628.1
625.887,3622.37
626.051,3542.0
626.215,3600.0
626.38,3591.93
626.544,3626.77
626.708,3579.07
626.872,3600.1
627.037,3569.6
627.201,3567.8
627.365,3589.43
627.529,3678.7
627.693,3647.7
627.858,3684.53
628.022,3664.07
628.186,3713.57
628.35,3755.7
628.514,3773.1
628.678,3843.2
628.843,3805.93
629.007,3800.9
629.171,3875.37
629.335,3853.83
629.499,3867.27
629.663,3846.6
629.827,3785.77
629.991,3786.13
630.155,3783.13
630.319,3778.47
630.483,3809.9
630.647,3875.8
630.812,3941.73
630.976,4103.9
631.14,4265.2
631.304,4473.53
631.468,4623.4
631.632,4696.9
631.796,4816.33
631.959,4647.83
632.123,4485.53
632.287,4424.73
632.451,4392.67
632.615,4251.73
632.779,4196.93
632.943,4208.5
633.107,4192.27
633.271,4182.33
633.435,4092.07
633.599,4078.03
633.763,4082.97
633.926,4027.0
634.09,3925.13
634.254,3879.2
634.418,3910.3
634.582,3837.33
634.746,3890.07
634.909,3878.77
635.073,3918.73
635.237,3825.47
635.401,3981.7
635.564,4042.73
635.728,4143.73
635.892,4243.1
636.056,4395.87
636.219,4669.2
636.383,4888.8
636.547,4947.07
636.711,4779.07
636.874,4521.93
637.038,4336.8
637.202,4150.2
637.365,4062.17
637.529,3953.63
637.693,4003.8
637.856,3926.43
638.02,3862.47
638.184,3866.93
638.347,3848.27
638.511,3842.53
638.674,3896.8
638.838,3842.63
639.002,3862.7
639.165,3843.9
639.329,3900.2
639.492,3843.93
639.656,3839.77
639.819,3840.93
639.983,3813.93
640.146,3851.83
640.31,3818.07
640.473,3853.33
640.637,3803.17
640.8,3803.37
640.964,3820.0
641.127,3805.4
641.291,3840.23
641.454,3852.83
641.618,3820.57
641.781,3779.97
641.944,3849.7
642.108,3897.3
642.271,3883.5
642.435,3884.27
642.598,3869.27
642.761,3843.33
642.925,3840.83
643.088,3777.43
643.251,3817.93
643.415,3818.1
643.578,3832.97
643.741,3871.13
643.905,3814.43
644.068,3843.63
644.231,3815.87
644.394,3802.67
644.558,3762.63
644.721,3813.97
644.884,3824.1
645.047,3801.97
645.211,3810.9
645.374,3815.17
645.537,3789.5
645.7,3886.67
645.863,3759.8
646.027,3789.4
646.19,3870.2
646.353,3772.33
646.516,3766.93
646.679,3773.7
646.842,3782.27
647.005,3831.2
647.169,3827.23
647.332,3791.37
647.495,3804.63
647.658,3799.7
647.821,3811.57
647.984,3752.77
648.147,3762.93
648.31,3758.0
648.473,3746.97
648.636,3830.6
648.799,3743.8
648.962,3726.13
649.125,3802.63
649.288,3781.13
649.451,3697.4
649.614,3668.17
649.777,3794.1
649.94,3753.47
650.103,3754.63
650.266,3757.4
650.429,3744.23
650.592,3755.73
650.755,3699.67
650.918,3719.07
651.08,3774.67
651.243,3766.93
651.406,3655.63
651.569,3706.83
651.732,3761.27
651.895,3708.57
652.058,3725.1
652.22,3710.03
652.383,3667.03
652.546,3676.2
652.709,3712.03
652.872,3724.9
653.034,3694.2
653.197,3689.4
653.36,3619.1
653.523,3689.8
653.685,3612.07
653.848,3642.3
654.011,3689.27
654.173,3607.13
654.336,3631.8
654.499,3673.67
654.662,3615.83
654.824,3609.83
654.987,3642.2
655.149,3587.0
655.312,3606.93
655.475,3603.87
655.637,3541.7
655.8,3599.87
655.963,3599.77
656.125,3665.8
656.288,3612.47
656.45,3591.33
656.613,3575.83
656.775,3613.3
656.938,3487.77
657.1,3554.4
657.263,3534.97
657.425,3601.07
657.588,3507.5
657.75,3491.6
657.913,3573.67
658.075,3547.6
658.238,3543.9
658.4,3472.8
658.563,3480.3
658.725,3532.33
658.888,3494.53
659.05,3446.83
659.212,3469.7
659.375,3407.23
659.537,3403.17
659.7,3464.73
659.862,3456.0
660.024,3422.23
660.187,3404.63
660.349,3422.07
660.511,3422.17
660.674,3419.23
660.836,3364.3
660.998,3371.7
661.079,3381.9