File: spectra/VLFR_08-PLA_bio_Raman_0569915a.csv
nm,Intensity
528.626,1864.6
528.795,1864.3
528.963,1864.87
529.132,1864.5
529.3,1864.27
529.469,1865.5
529.637,1864.8
529.806,1864.13
529.974,1865.2
530.143,1865.37
530.311,1865.0
530.48,1865.33
530.648,1866.0
530.816,1865.03
530.985,1865.93
531.153,1868.73
531.322,1871.23
531.49,1876.07
531.658,1924.37
531.827,2782.27
531.995,5222.43
532.164,5057.13
532.332,2211.43
532.5,1872.87
532.669,1868.43
532.837,1866.4
533.006,1867.53
533.174,1868.0
533.342,1872.3
533.511,1912.77
533.679,2173.97
533.847,2678.33
534.016,3041.43
534.184,3151.47
534.352,3129.17
534.521,3159.4
534.689,3203.2
534.857,3218.6
535.025,3245.83
535.194,3282.87
535.362,3335.67
535.53,3323.8
535.699,3303.93
535.867,3302.73
536.035,3300.27
536.203,3326.47
536.372,3304.67
536.54,3328.87
536.708,3319.2
536.876,3334.57
537.044,3308.9
537.213,3353.73
537.381,3395.2
537.549,3395.97
537.717,3430.83
537.885,3436.4
538.054,3458.83
538.222,3450.73
538.39,3407.57
538.558,3386.93
538.726,3440.37
538.894,3435.9
539.063,3436.23
539.231,3444.37
539.399,3466.93
539.567,3486.57
539.735,3499.27
539.903,3495.63
540.071,3512.57
540.239,3506.33
540.408,3494.37
540.576,3542.77
540.744,3526.1
540.912,3517.93
541.08,3539.83
541.248,3607.0
541.416,3571.57
541.584,3571.1
541.752,3572.37
541.92,3582.53
542.088,3627.43
542.256,3629.3
542.424,3629.07
542.592,3692.37
542.76,3661.8
542.928,3671.0
543.096,3678.2
543.264,3674.9
543.432,3712.63
543.6,3719.83
543.768,3741.03
543.936,3754.13
544.104,3736.7
544.272,3702.17
544.44,3746.43
544.608,3727.2
544.776,3747.53
544.944,3792.33
545.112,3763.67
545.28,3780.7
545.448,3789.0
545.616,3836.77
545.784,3808.5
545.951,3845.4
546.119,3787.8
546.287,3859.4
546.455,3825.93
546.623,3886.87
546.791,3858.63
546.959,3884.5
547.127,3924.43
547.294,3905.97
547.462,3919.13
547.63,3944.83
547.798,3949.03
547.966,3965.53
548.134,3933.33
548.301,4005.57
548.469,4028.47
548.637,4005.23
548.805,4015.13
548.972,3979.63
549.14,4027.6
549.308,4017.67
549.476,4040.8
549.644,4048.9
549.811,4063.53
549.979,4014.8
550.147,4090.47
550.315,4095.7
550.482,4042.57
550.65,4112.77
550.818,4169.67
550.985,4152.57
551.153,4195.1
551.321,4163.87
551.488,4194.6
551.656,4200.07
551.824,4253.73
551.991,4200.53
552.159,4198.13
552.327,4232.2
552.494,4267.8
552.662,4270.63
552.83,4227.03
552.997,4252.27
553.165,4254.93
553.333,4224.77
553.5,4250.5
553.668,4266.4
553.835,4339.0
554.003,4295.7
554.171,4333.37
554.338,4268.97
554.506,4332.07
554.673,4301.23
554.841,4332.37
555.008,4414.17
555.176,4366.43
555.343,4317.13
555.511,4345.3
555.679,4351.13
555.846,4342.43
556.014,4390.07
556.181,4354.43
556.349,4358.2
556.516,4377.4
556.684,4388.83
556.851,4374.6
557.018,4425.23
557.186,4424.07
557.353,4409.87
557.521,4461.73
557.688,4472.47
557.856,4508.3
558.023,4540.53
558.191,4539.33
558.358,4519.2
558.525,4489.53
558.693,4496.5
558.86,4495.93
559.028,4515.3
559.195,4516.13
559.362,4512.23
559.53,4511.37
559.697,4505.07
559.864,4506.47
560.032,4574.13
560.199,4538.67
560.366,4555.57
560.534,4611.73
560.701,4546.93
560.868,4564.87
561.036,4670.57
561.203,4613.4
561.37,4644.47
561.538,4676.03
561.705,4601.83
561.872,4621.77
562.039,4717.8
562.207,4686.87
562.374,4669.77
562.541,4699.3
562.708,4729.0
562.876,4704.8
563.043,4715.0
563.21,4697.0
563.377,4755.07
563.545,4688.8
563.712,4821.27
563.879,4770.43
564.046,4727.9
564.213,4730.6
564.38,4760.63
564.548,4793.1
564.715,4822.3
564.882,4850.93
565.049,4827.37
565.216,4874.03
565.383,4861.43
565.551,4859.77
565.718,4895.73
565.885,4861.77
566.052,4933.73
566.219,4863.57
566.386,4961.3
566.553,4904.8
566.72,4913.97
566.887,4906.7
567.054,4906.37
567.221,4965.4
567.388,4935.93
567.555,4947.1
567.722,4939.07
567.889,5005.33
568.057,5013.8
568.224,5072.23
568.391,4990.2
568.558,5000.23
568.725,4994.63
568.892,5016.67
569.058,5106.5
569.225,5070.33
569.392,5144.27
569.559,5053.33
569.726,5114.53
569.893,5158.23
570.06,5129.3
570.227,5114.8
570.394,5168.33
570.561,5101.7
570.728,5116.13
570.895,5146.27
571.062,5164.0
571.229,5099.23
571.395,5271.0
571.562,5235.9
571.729,5263.13
571.896,5229.03
572.063,5285.67
572.23,5269.63
572.397,5384.43
572.563,5377.23
572.73,5287.17
572.897,5342.13
573.064,5305.1
573.231,5222.3
573.397,5364.77
573.564,5342.83
573.731,5300.73
573.898,5313.97
574.064,5375.7
574.231,5393.8
574.398,5303.63
574.565,5279.27
574.731,5365.47
574.898,5321.57
575.065,5426.6
575.232,5278.23
575.398,5401.2
575.565,5401.9
575.732,5395.17
575.898,5379.9
576.065,5440.33
576.232,5407.0
576.398,5472.33
576.565,5483.57
576.732,5446.03
576.898,5433.67
577.065,5433.63
577.232,5474.93
577.398,5498.63
577.565,5422.03
577.731,5467.7
577.898,5416.1
578.065,5499.23
578.231,5441.77
578.398,5453.87
578.564,5415.47
578.731,5507.83
578.897,5524.73
579.064,5556.93
579.23,5524.9
579.397,5428.23
579.563,5546.2
579.73,5601.47
579.896,5586.6
580.063,5559.23
580.229,5576.07
580.396,5596.5
580.562,5713.47
580.729,5658.23
580.895,5598.9
581.062,5626.83
581.228,5653.3
581.395,5598.17
581.561,5563.57
581.728,5630.1
581.894,5617.5
582.06,5618.7
582.227,5533.33
582.393,5528.4
582.56,5476.57
582.726,5536.97
582.892,5553.6
583.059,5497.87
583.225,5505.13
583.391,5492.3
583.558,5426.53
583.724,5466.17
583.89,5476.8
584.057,5435.73
584.223,5535.9
584.389,5381.33
584.556,5431.5
584.722,5436.6
584.888,5418.43
585.054,5415.5
585.221,5382.2
585.387,5359.7
585.553,5405.83
585.719,5431.37
585.886,5388.07
586.052,5388.53
586.218,5379.5
586.384,5390.17
586.55,5385.13
586.717,5394.33
586.883,5399.2
587.049,5450.37
587.215,5470.63
587.381,5462.03
587.548,5487.93
587.714,5458.47
587.88,5463.63
588.046,5467.9
588.212,5419.87
588.378,5445.83
588.544,5471.0
588.71,5424.03
588.876,5268.13
589.043,5433.57
589.209,5406.37
589.375,5357.2
589.541,5360.47
589.707,5419.5
589.873,5415.0
590.039,5358.77
590.205,5437.4
590.371,5439.0
590.537,5382.83
590.703,5419.53
590.869,5389.4
591.035,5467.57
591.201,5401.87
591.367,5459.17
591.533,5501.73
591.699,5384.7
591.865,5388.43
592.031,5468.3
592.197,5466.43
592.363,5457.87
592.529,5455.83
592.694,5484.57
592.86,5453.17
593.026,5407.93
593.192,5397.33
593.358,5421.27
593.524,5371.03
593.69,5440.7
593.856,5399.0
594.021,5471.33
594.187,5413.73
594.353,5377.97
594.519,5422.37
594.685,5420.23
594.851,5377.47
595.016,5383.23
595.182,5472.23
595.348,5460.47
595.514,5508.97
595.68,5465.43
595.845,5414.27
596.011,5472.07
596.177,5573.13
596.342,5498.47
596.508,5469.4
596.674,5510.57
596.84,5433.37
597.005,5571.2
597.171,5515.87
597.337,5451.43
597.502,5484.13
597.668,5466.53
597.834,5476.5
597.999,5484.83
598.165,5424.33
598.331,5502.2
598.496,5530.53
598.662,5431.93
598.828,5486.7
598.993,5502.97
599.159,5460.1
599.324,5567.2
599.49,5494.2
599.656,5467.17
599.821,5456.33
599.987,5522.97
600.152,5531.77
600.318,5470.33
600.483,5503.17
600.649,5520.8
600.814,5553.6
600.98,5480.37
601.145,5455.63
601.311,5554.53
601.476,5515.17
601.642,5582.17
601.807,5481.37
601.973,5434.1
602.138,5583.37
602.304,5503.1
602.469,5419.47
602.635,5538.2
602.8,5583.97
602.965,5454.33
603.131,5522.17
603.296,5488.73
603.462,5460.03
603.627,5482.53
603.792,5584.57
603.958,5481.37
604.123,5461.17
604.288,5449.27
604.454,5496.57
604.619,5558.13
604.784,5485.77
604.95,5568.07
605.115,5409.4
605.28,5481.57
605.446,5477.3
605.611,5582.23
605.776,5461.63
605.941,5495.23
606.107,5485.83
606.272,5526.63
606.437,5536.47
606.602,5448.93
606.767,5471.87
606.933,5533.93
607.098,5518.0
607.263,5493.03
607.428,5477.9
607.593,5534.33
607.759,5501.63
607.924,5485.9
608.089,5513.7
608.254,5483.47
608.419,5503.7
608.584,5522.3
608.749,5466.67
608.915,5468.53
609.08,5601.33
609.245,5463.2
609.41,5511.77
609.575,5442.9
609.74,5448.7
609.905,5531.03
610.07,5544.33
610.235,5483.97
610.4,5452.2
610.565,5511.47
610.73,5445.4
610.895,5576.9
611.06,5433.4
611.225,5448.2
611.39,5537.13
611.555,5466.67
611.72,5451.13
611.885,5453.03
612.05,5509.33
612.215,5423.17
612.38,5475.47
612.545,5453.03
612.71,5471.4
612.875,5568.23
613.04,5451.4
613.204,5383.33
613.369,5474.83
613.534,5503.2
613.699,5402.33
613.864,5418.97
614.029,5449.4
614.194,5530.27
614.358,5497.4
614.523,5434.33
614.688,5494.6
614.853,5448.47
615.018,5478.97
615.182,5443.1
615.347,5449.77
615.512,5527.5
615.677,5434.37
615.841,5475.87
616.006,5372.8
616.171,5445.93
616.336,5454.7
616.5,5419.0
616.665,5371.67
616.83,5469.93
616.994,5353.0
617.159,5484.3
617.324,5393.77
617.489,5371.9
617.653,5450.5
617.818,5460.5
617.982,5446.13
618.147,5408.77
618.312,5504.3
618.476,5392.5
618.641,5474.33
618.805,5448.83
618.97,5429.7
619.135,5406.77
619.299,5427.43
619.464,5422.27
619.628,5410.83
619.793,5440.53
619.957,5376.2
620.122,5543.87
620.286,5406.03
620.451,5430.1
620.615,5472.1
620.78,5396.67
620.944,5371.3
621.109,5372.87
621.273,5401.87
621.438,5380.43
621.602,5333.17
621.767,5372.9
621.931,5507.1
622.095,5292.8
622.26,5448.8
622.424,5282.3
622.589,5341.6
622.753,5426.87
622.917,5428.33
623.082,5331.7
623.246,5324.23
623.41,5356.03
623.575,5403.33
623.739,5326.8
623.903,5401.3
624.068,5409.63
624.232,5356.87
624.396,5331.97
624.561,5340.4
624.725,5366.57
624.889,5448.87
625.053,5293.23
625.218,5317.53
625.382,5380.67
625.546,5265.5
625.71,5278.93
625.875,5363.3
626.039,5272.97
626.203,5260.5
626.367,5272.23
626.531,5320.97
626.695,5275.83
626.86,5180.3
627.024,5238.93
627.188,5311.23
627.352,5179.8
627.516,5239.4
627.68,5362.0
627.844,5272.73
628.008,5256.0
628.172,5272.43
628.337,5314.3
628.501,5339.53
628.665,5253.23
628.829,5260.3
628.993,5269.43
629.157,5347.97
629.321,5289.17
629.485,5303.6
629.649,5248.4
629.813,5171.23
629.977,5221.93
630.141,5233.37
630.305,5330.1
630.469,5283.7
630.633,5292.4
630.797,5345.93
630.96,5420.37
631.124,5494.77
631.288,5437.03
631.452,5381.0
631.616,5294.67
631.78,5245.83
631.944,5194.03
632.108,5138.17
632.272,5197.0
632.435,5206.27
632.599,5209.7
632.763,5264.5
632.927,5198.0
633.091,5331.27
633.254,5278.03
633.418,5225.3
633.582,5286.8
633.746,5187.9
633.91,5189.1
634.073,5073.7
634.237,5087.17
634.401,5111.57
634.564,5120.2
634.728,5035.33
634.892,5130.97
635.056,5128.23
635.219,4963.2
635.383,4997.03
635.547,5093.4
635.71,4925.47
635.874,4961.53
636.038,5015.77
636.201,4970.37
636.365,4994.27
636.528,4978.37
636.692,4950.1
636.856,5003.43
637.019,4904.77
637.183,4959.17
637.346,4955.8
637.51,5024.47
637.673,4956.2
637.837,4879.23
638.0,4919.4
638.164,5034.33
638.327,4867.5
638.491,4871.5
638.654,4926.2
638.818,4885.07
638.981,4900.8
639.145,4906.63
639.308,4922.83
639.472,4823.9
639.635,4803.47
639.799,4885.83
639.962,4791.2
640.125,4804.03
640.289,4903.97
640.452,4794.7
640.616,4720.7
640.779,4795.1
640.942,4804.3
641.106,4762.6
641.269,4719.33
641.432,4809.87
641.596,4827.33
641.759,4642.17
641.922,4707.1
642.085,4752.13
642.249,4674.2
642.412,4783.33
642.575,4790.83
642.738,4747.5
642.902,4620.13
643.065,4698.77
643.228,4634.27
643.391,4690.0
643.555,4760.47
643.718,4626.73
643.881,4661.47
644.044,4742.9
644.207,4712.67
644.37,4645.67
644.534,4664.13
644.697,4637.33
644.86,4648.1
645.023,4561.97
645.186,4608.33
645.349,4599.87
645.512,4582.17
645.675,4550.3
645.838,4650.23
646.001,4576.83
646.164,4645.77
646.327,4522.97
646.49,4518.87
646.653,4553.47
646.816,4538.37
646.979,4620.0
647.142,4598.3
647.305,4521.6
647.468,4513.33
647.631,4557.83
647.794,4606.27
647.957,4433.13
648.12,4539.8
648.283,4485.1
648.446,4480.33
648.609,4487.5
648.772,4491.73
648.935,4541.2
649.098,4397.77
649.26,4449.97
649.423,4412.93
649.586,4441.27
649.749,4518.3
649.912,4398.1
650.075,4438.37
650.237,4442.13
650.4,4480.23
650.563,4471.6
650.726,4416.97
650.888,4411.73
651.051,4474.87
651.214,4396.83
651.377,4356.93
651.539,4377.2
651.702,4400.73
651.865,4363.77
652.027,4387.27
652.19,4374.7
652.353,4334.2
652.515,4262.17
652.678,4321.73
652.841,4323.0
653.003,4269.4
653.166,4226.83
653.329,4241.0
653.491,4171.27
653.654,4188.3
653.816,4168.5
653.979,4252.8
654.142,4286.77
654.304,4227.3
654.467,4177.5
654.629,4135.5
654.792,4126.2
654.954,4129.3
655.117,4096.9
655.279,4161.33
655.442,4087.5
655.604,4050.83
655.767,4111.6
655.929,4057.27
656.091,4054.8
656.254,4046.33
656.416,4057.17
656.579,4017.47
656.741,3993.3
656.904,3963.0
657.066,4033.37
657.228,4032.9
657.391,3978.6
657.553,4019.97
657.715,4009.73
657.878,3912.27
658.04,3973.1
658.202,3932.27
658.365,3915.87
658.527,3880.37
658.689,3967.13
658.851,3881.57
659.014,3918.03
659.176,3863.13
659.338,3807.0
659.5,3821.33
659.663,3895.87
659.825,3914.07
659.987,3850.4
660.149,3877.4
660.311,3895.57
660.474,3840.87
660.636,3829.77
660.798,3806.03
660.96,3750.37
661.041,3749.17