File: spectra/VLFR_08-PLA_bio_Raman_57c41079.csv
nm,Intensity
528.626,1858.1
528.795,1859.6
528.963,1859.5
529.132,1861.0
529.3,1859.4
529.469,1858.7
529.637,1860.4
529.806,1861.0
529.974,1861.8
530.143,1859.9
530.311,1861.0
530.48,1860.4
530.648,1861.2
530.816,1860.3
530.985,1862.9
531.153,1866.0
531.322,1869.0
531.49,1880.1
531.658,1948.2
531.827,2990.1
531.995,7050.5
532.164,6405.5
532.332,2496.8
532.5,1870.9
532.669,1864.3
532.837,1862.8
533.006,1863.4
533.174,1865.8
533.342,1874.4
533.511,1958.0
533.679,2441.8
533.847,3233.8
534.016,3786.4
534.184,3782.1
534.352,3664.9
534.521,3458.1
534.689,3377.6
534.857,3327.6
535.025,3232.0
535.194,3105.7
535.362,3044.1
535.53,2936.3
535.699,2882.0
535.867,2776.4
536.035,2736.9
536.203,2764.7
536.372,2805.3
536.54,2850.1
536.708,2816.1
536.876,2750.5
537.044,2686.3
537.213,2660.5
537.381,2685.9
537.549,2714.4
537.717,2676.7
537.885,2628.6
538.054,2612.8
538.222,2530.9
538.39,2494.3
538.558,2458.1
538.726,2495.7
538.894,2471.1
539.063,2474.7
539.231,2468.3
539.399,2433.1
539.567,2397.5
539.735,2347.8
539.903,2341.4
540.071,2365.9
540.239,2444.7
540.408,2519.0
540.576,2592.8
540.744,2571.4
540.912,2587.2
541.08,2589.2
541.248,2585.1
541.416,2553.1
541.584,2475.6
541.752,2463.1
541.92,2424.0
542.088,2419.9
542.256,2422.4
542.424,2408.8
542.592,2401.2
542.76,2433.8
542.928,2506.1
543.096,2574.6
543.264,2674.6
543.432,2775.7
543.6,2877.6
543.768,2880.3
543.936,2859.8
544.104,2763.8
544.272,2652.0
544.44,2537.3
544.608,2458.4
544.776,2415.3
544.944,2369.9
545.112,2384.4
545.28,2351.3
545.448,2326.0
545.616,2319.2
545.784,2340.1
545.951,2309.6
546.119,2312.7
546.287,2311.5
546.455,2336.9
546.623,2321.7
546.791,2347.9
546.959,2371.4
547.127,2370.1
547.294,2353.7
547.462,2342.6
547.63,2364.6
547.798,2360.7
547.966,2347.2
548.134,2358.2
548.301,2362.2
548.469,2368.9
548.637,2354.1
548.805,2373.6
548.972,2374.5
549.14,2383.1
549.308,2386.5
549.476,2372.2
549.644,2369.5
549.811,2359.2
549.979,2366.9
550.147,2378.2
550.315,2379.7
550.482,2383.4
550.65,2405.2
550.818,2431.1
550.985,2415.7
551.153,2443.2
551.321,2454.1
551.488,2455.6
551.656,2469.2
551.824,2503.3
551.991,2500.0
552.159,2503.5
552.327,2503.6
552.494,2480.9
552.662,2496.3
552.83,2516.1
552.997,2500.1
553.165,2482.7
553.333,2455.2
553.5,2434.9
553.668,2482.3
553.835,2585.7
554.003,2601.9
554.171,2561.4
554.338,2544.3
554.506,2506.6
554.673,2479.3
554.841,2457.8
555.008,2431.1
555.176,2416.4
555.343,2384.2
555.511,2353.7
555.679,2355.1
555.846,2349.1
556.014,2359.1
556.181,2363.5
556.349,2366.5
556.516,2386.5
556.684,2376.5
556.851,2388.1
557.018,2437.5
557.186,2541.1
557.353,2636.4
557.521,2816.8
557.688,3264.9
557.856,3950.3
558.023,4537.0
558.191,4287.8
558.358,3473.7
558.525,2918.2
558.693,2744.1
558.86,2674.3
559.028,2649.2
559.195,2630.4
559.362,2583.5
559.53,2570.1
559.697,2542.4
559.864,2522.9
560.032,2489.4
560.199,2495.0
560.366,2438.7
560.534,2460.7
560.701,2454.2
560.868,2444.8
561.036,2431.4
561.203,2402.2
561.37,2424.5
561.538,2435.0
561.705,2422.2
561.872,2421.8
562.039,2434.2
562.207,2439.0
562.374,2461.4
562.541,2506.5
562.708,2533.1
562.876,2610.3
563.043,2757.8
563.21,2948.4
563.377,3081.3
563.545,3072.3
563.712,2931.7
563.879,2765.8
564.046,2620.1
564.213,2554.1
564.38,2582.2
564.548,2649.5
564.715,2730.5
564.882,2856.6
565.049,2944.5
565.216,2946.1
565.383,2881.5
565.551,2883.2
565.718,2956.7
565.885,3153.8
566.052,3354.1
566.219,3275.7
566.386,3043.5
566.553,2858.5
566.72,2675.4
566.887,2560.0
567.054,2527.0
567.221,2494.9
567.388,2513.7
567.555,2570.4
567.722,2611.6
567.889,2657.8
568.057,2669.0
568.224,2608.9
568.391,2593.4
568.558,2591.5
568.725,2579.8
568.892,2588.2
569.058,2593.5
569.225,2607.1
569.392,2557.4
569.559,2543.7
569.726,2550.0
569.893,2527.0
570.06,2533.1
570.227,2531.2
570.394,2545.4
570.561,2531.8
570.728,2564.9
570.895,2590.6
571.062,2608.0
571.229,2685.7
571.395,2821.4
571.562,2943.3
571.729,2966.1
571.896,2903.4
572.063,2835.5
572.23,2766.8
572.397,2731.5
572.563,2739.6
572.73,2738.3
572.897,2748.2
573.064,2776.2
573.231,2782.3
573.397,2780.5
573.564,2775.3
573.731,2789.9
573.898,2743.9
574.064,2757.8
574.231,2758.9
574.398,2860.0
574.565,2882.5
574.731,2783.4
574.898,2659.9
575.065,2562.8
575.232,2552.5
575.398,2553.5
575.565,2540.0
575.732,2588.2
575.898,2598.6
576.065,2676.0
576.232,2833.3
576.398,3224.7
576.565,3567.7
576.732,3707.1
576.898,3673.2
577.065,3449.9
577.232,3040.9
577.398,2803.7
577.565,2649.2
577.731,2606.7
577.898,2565.1
578.065,2566.7
578.231,2544.8
578.398,2537.5
578.564,2523.8
578.731,2511.7
578.897,2517.7
579.064,2527.5
579.23,2517.1
579.397,2541.6
579.563,2524.4
579.73,2502.6
579.896,2538.1
580.063,2493.9
580.229,2522.3
580.396,2514.9
580.562,2506.6
580.729,2552.4
580.895,2502.7
581.062,2499.6
581.228,2511.7
581.395,2525.6
581.561,2502.5
581.728,2541.1
581.894,2529.0
582.06,2526.1
582.227,2538.3
582.393,2509.8
582.56,2519.2
582.726,2529.9
582.892,2515.9
583.059,2529.0
583.225,2534.2
583.391,2553.1
583.558,2553.9
583.724,2532.5
583.89,2560.3
584.057,2546.6
584.223,2557.2
584.389,2555.7
584.556,2525.7
584.722,2534.8
584.888,2547.7
585.054,2551.0
585.221,2557.4
585.387,2546.9
585.553,2555.0
585.719,2538.7
585.886,2579.1
586.052,2588.9
586.218,2645.1
586.384,2713.6
586.55,2886.1
586.717,3051.4
586.883,3210.2
587.049,3331.0
587.215,3448.4
587.381,3516.1
587.548,3480.1
587.714,3430.1
587.88,3162.3
588.046,2895.4
588.212,2713.8
588.378,2624.7
588.544,2621.5
588.71,2567.7
588.876,2549.8
589.043,2533.3
589.209,2537.0
589.375,2562.9
589.541,2554.7
589.707,2542.1
589.873,2518.6
590.039,2540.3
590.205,2555.1
590.371,2526.2
590.537,2520.7
590.703,2552.9
590.869,2536.5
591.035,2529.2
591.201,2535.5
591.367,2549.4
591.533,2512.9
591.699,2516.1
591.865,2556.9
592.031,2532.5
592.197,2523.0
592.363,2531.4
592.529,2529.6
592.694,2542.3
592.86,2535.5
593.026,2535.0
593.192,2518.7
593.358,2525.3
593.524,2548.8
593.69,2526.1
593.856,2529.3
594.021,2542.6
594.187,2530.7
594.353,2520.1
594.519,2526.3
594.685,2570.6
594.851,2498.0
595.016,2532.0
595.182,2554.8
595.348,2541.5
595.514,2530.7
595.68,2535.9
595.845,2537.1
596.011,2557.1
596.177,2576.1
596.342,2551.5
596.508,2543.1
596.674,2549.4
596.84,2553.5
597.005,2555.7
597.171,2574.5
597.337,2553.2
597.502,2552.6
597.668,2546.8
597.834,2531.7
597.999,2567.6
598.165,2543.5
598.331,2536.1
598.496,2569.0
598.662,2570.4
598.828,2565.0
598.993,2561.1
599.159,2560.3
599.324,2563.7
599.49,2563.9
599.656,2556.8
599.821,2563.9
599.987,2542.5
600.152,2556.1
600.318,2561.6
600.483,2571.8
600.649,2551.2
600.814,2587.0
600.98,2575.2
601.145,2551.1
601.311,2549.3
601.476,2580.7
601.642,2576.6
601.807,2561.6
601.973,2577.6
602.138,2598.7
602.304,2570.6
602.469,2559.6
602.635,2574.5
602.8,2546.1
602.965,2559.9
603.131,2569.0
603.296,2575.1
603.462,2584.1
603.627,2581.9
603.792,2584.5
603.958,2578.8
604.123,2578.9
604.288,2581.7
604.454,2589.4
604.619,2545.6
604.784,2542.6
604.95,2585.6
605.115,2588.8
605.28,2589.5
605.446,2568.3
605.611,2582.3
605.776,2541.3
605.941,2559.6
606.107,2567.9
606.272,2607.7
606.437,2576.4
606.602,2589.6
606.767,2558.6
606.933,2569.2
607.098,2598.9
607.263,2602.6
607.428,2605.8
607.593,2566.8
607.759,2547.0
607.924,2591.9
608.089,2584.0
608.254,2600.8
608.419,2561.0
608.584,2589.7
608.749,2599.7
608.915,2592.0
609.08,2563.1
609.245,2562.4
609.41,2605.2
609.575,2579.9
609.74,2626.3
609.905,2586.6
610.07,2577.3
610.235,2602.5
610.4,2573.6
610.565,2582.8
610.73,2595.0
610.895,2596.5
611.06,2619.0
611.225,2585.1
611.39,2593.3
611.555,2598.3
611.72,2571.6
611.885,2597.0
612.05,2563.7
612.215,2562.5
612.38,2604.6
612.545,2596.6
612.71,2583.7
612.875,2591.4
613.04,2588.8
613.204,2585.0
613.369,2606.6
613.534,2583.4
613.699,2593.6
613.864,2579.7
614.029,2573.4
614.194,2591.2
614.358,2593.9
614.523,2585.5
614.688,2589.4
614.853,2594.3
615.018,2603.2
615.182,2588.8
615.347,2584.3
615.512,2607.2
615.677,2586.1
615.841,2622.8
616.006,2612.1
616.171,2591.7
616.336,2609.9
616.5,2580.2
616.665,2594.6
616.83,2598.7
616.994,2610.9
617.159,2620.0
617.324,2591.9
617.489,2592.8
617.653,2589.4
617.818,2605.3
617.982,2574.0
618.147,2583.9
618.312,2596.7
618.476,2569.7
618.641,2583.1
618.805,2572.3
618.97,2573.0
619.135,2611.5
619.299,2561.9
619.464,2602.0
619.628,2579.9
619.793,2575.7
619.957,2578.4
620.122,2605.2
620.286,2600.6
620.451,2590.4
620.615,2582.8
620.78,2591.0
620.944,2603.8
621.109,2596.8
621.273,2584.8
621.438,2599.9
621.602,2579.4
621.767,2589.2
621.931,2613.0
622.095,2600.6
622.26,2677.6
622.424,2693.1
622.589,2732.6
622.753,2746.2
622.917,2769.3
623.082,2772.5
623.246,2751.7
623.41,2776.1
623.575,2738.5
623.739,2662.0
623.903,2669.1
624.068,2674.8
624.232,2636.3
624.396,2637.2
624.561,2621.5
624.725,2609.3
624.889,2591.9
625.053,2582.8
625.218,2591.2
625.382,2605.1
625.546,2550.3
625.71,2589.9
625.875,2598.7
626.039,2598.6
626.203,2595.7
626.367,2591.0
626.531,2608.9
626.695,2571.7
626.86,2594.3
627.024,2600.6
627.188,2602.4
627.352,2624.3
627.516,2646.6
627.68,2718.0
627.844,2783.8
628.008,2985.1
628.172,3317.3
628.337,3563.0
628.501,3697.3
628.665,3688.9
628.829,3555.0
628.993,3410.1
629.157,3446.9
629.321,3499.5
629.485,3501.2
629.649,3418.8
629.813,3516.8
629.977,3527.3
630.141,3671.9
630.305,3924.6
630.469,4382.3
630.633,5371.4
630.797,7050.7
630.96,8768.4
631.124,9027.0
631.288,8430.0
631.452,6702.9
631.616,5710.5
631.78,5016.6
631.944,4541.3
632.108,4305.3
632.272,4277.8
632.435,4173.5
632.599,4197.5
632.763,4524.7
632.927,4999.0
633.091,5381.7
633.254,5495.1
633.418,5414.0
633.582,5153.1
633.746,4814.7
633.91,4313.2
634.073,3791.4
634.237,3488.1
634.401,3215.4
634.564,2967.8
634.728,2851.7
634.892,2786.8
635.056,2710.2
635.219,2666.2
635.383,2617.3
635.547,2605.9
635.71,2607.6
635.874,2543.2
636.038,2547.2
636.201,2540.7
636.365,2511.3
636.528,2529.2
636.692,2509.5
636.856,2505.4
637.019,2499.0
637.183,2491.5
637.346,2479.6
637.51,2501.9
637.673,2478.7
637.837,2469.2
638.0,2448.0
638.164,2459.3
638.327,2475.8
638.491,2454.6
638.654,2449.2
638.818,2444.1
638.981,2443.3
639.145,2466.3
639.308,2438.5
639.472,2459.2
639.635,2441.9
639.799,2452.2
639.962,2474.3
640.125,2454.9
640.289,2459.9
640.452,2442.0
640.616,2456.3
640.779,2456.4
640.942,2441.3
641.106,2441.6
641.269,2467.4
641.432,2437.3
641.596,2440.1
641.759,2443.3
641.922,2480.8
642.085,2429.9
642.249,2438.2
642.412,2453.6
642.575,2480.7
642.738,2433.2
642.902,2410.5
643.065,2417.7
643.228,2432.6
643.391,2413.9
643.555,2402.5
643.718,2415.3
643.881,2396.0
644.044,2395.5
644.207,2396.3
644.37,2373.8
644.534,2375.7
644.697,2362.1
644.86,2366.5
645.023,2370.9
645.186,2362.9
645.349,2366.3
645.512,2354.7
645.675,2385.5
645.838,2342.5
646.001,2348.8
646.164,2361.5
646.327,2360.1
646.49,2348.8
646.653,2349.5
646.816,2358.6
646.979,2351.2
647.142,2350.5
647.305,2328.7
647.468,2350.4
647.631,2315.0
647.794,2323.1
647.957,2335.7
648.12,2350.7
648.283,2320.7
648.446,2322.0
648.609,2305.4
648.772,2344.3
648.935,2321.5
649.098,2317.9
649.26,2322.9
649.423,2315.8
649.586,2303.2
649.749,2314.3
649.912,2306.3
650.075,2285.6
650.237,2311.2
650.4,2309.5
650.563,2308.3
650.726,2309.6
650.888,2289.2
651.051,2314.4
651.214,2296.0
651.377,2294.0
651.539,2289.0
651.702,2294.1
651.865,2299.3
652.027,2295.3
652.19,2279.0
652.353,2291.9
652.515,2255.2
652.678,2272.2
652.841,2296.9
653.003,2267.6
653.166,2274.6
653.329,2257.2
653.491,2247.1
653.654,2276.9
653.816,2260.0
653.979,2261.8
654.142,2270.2
654.304,2254.5
654.467,2267.3
654.629,2271.3
654.792,2261.4
654.954,2257.7
655.117,2253.3
655.279,2242.1
655.442,2244.9
655.604,2248.4
655.767,2262.2
655.929,2248.2
656.091,2255.9
656.254,2239.2
656.416,2250.1
656.579,2256.6
656.741,2253.1
656.904,2259.8
657.066,2256.4
657.228,2241.8
657.391,2237.0
657.553,2240.9
657.715,2234.3
657.878,2225.8
658.04,2245.6
658.202,2213.1
658.365,2217.8
658.527,2216.7
658.689,2217.7
658.851,2203.7
659.014,2206.7
659.176,2212.3
659.338,2202.9
659.5,2222.6
659.663,2196.9
659.825,2196.1
659.987,2199.3
660.149,2182.5
660.311,2189.9
660.474,2175.4
660.636,2185.8
660.798,2201.4
660.96,2185.2
661.041,2200.0