File: spectra/VLFR_02-HDPE_bio_Raman_c41e6d9c.csv
nm,Intensity
528.629,1849.35
528.797,1849.95
528.965,1849.95
529.134,1849.75
529.302,1850.6
529.471,1851.05
529.639,1850.2
529.808,1850.7
529.976,1849.8
530.145,1849.95
530.313,1850.7
530.481,1850.5
530.65,1851.2
530.818,1850.05
530.987,1851.35
531.155,1851.85
531.323,1852.0
531.492,1855.65
531.66,1872.15
531.829,2230.7
531.997,3126.2
532.165,2680.15
532.334,1904.1
532.502,1852.6
532.67,1851.5
532.839,1850.6
533.007,1849.8
533.175,1850.15
533.344,1851.6
533.512,1852.65
533.68,1856.2
533.848,1865.6
534.017,1872.8
534.185,1871.45
534.353,1873.45
534.522,1872.6
534.69,1874.25
534.858,1874.35
535.026,1874.6
535.195,1876.55
535.363,1874.35
535.531,1873.0
535.699,1875.15
535.868,1874.35
536.036,1873.85
536.204,1873.35
536.372,1874.7
536.54,1874.95
536.709,1874.85
536.877,1875.4
537.045,1878.45
537.213,1876.5
537.381,1874.0
537.55,1875.7
537.718,1877.05
537.886,1880.45
538.054,1876.95
538.222,1879.15
538.39,1878.9
538.558,1878.55
538.727,1880.65
538.895,1877.95
539.063,1882.7
539.231,1879.05
539.399,1881.9
539.567,1876.95
539.735,1881.75
539.903,1878.05
540.071,1880.25
540.239,1883.45
540.408,1881.8
540.576,1882.5
540.744,1881.55
540.912,1880.65
541.08,1882.35
541.248,1885.8
541.416,1885.4
541.584,1883.55
541.752,1883.9
541.92,1886.15
542.088,1884.45
542.256,1885.15
542.424,1888.9
542.592,1885.75
542.76,1879.9
542.928,1882.85
543.096,1882.25
543.264,1882.75
543.432,1882.8
543.6,1879.8
543.768,1879.7
543.936,1877.25
544.104,1882.15
544.271,1879.75
544.439,1883.1
544.607,1880.65
544.775,1881.55
544.943,1882.5
545.111,1882.85
545.279,1882.4
545.447,1879.1
545.615,1879.65
545.783,1882.3
545.95,1885.6
546.118,1879.75
546.286,1879.75
546.454,1881.9
546.622,1878.45
546.79,1882.55
546.957,1882.7
547.125,1880.35
547.293,1879.45
547.461,1880.65
547.629,1882.85
547.797,1880.05
547.964,1884.55
548.132,1884.3
548.3,1883.75
548.468,1882.1
548.635,1882.1
548.803,1883.75
548.971,1886.4
549.139,1886.1
549.306,1885.65
549.474,1882.9
549.642,1884.15
549.81,1884.0
549.977,1883.35
550.145,1885.05
550.313,1886.25
550.48,1883.9
550.648,1883.5
550.816,1885.1
550.983,1885.95
551.151,1885.9
551.319,1887.2
551.486,1888.3
551.654,1886.6
551.822,1885.9
551.989,1886.5
552.157,1887.95
552.325,1885.6
552.492,1890.05
552.66,1887.95
552.828,1888.9
552.995,1883.8
553.163,1887.75
553.33,1890.25
553.498,1888.35
553.665,1890.7
553.833,1890.05
554.001,1887.35
554.168,1886.05
554.336,1890.05
554.503,1888.35
554.671,1891.2
554.838,1887.2
555.006,1889.2
555.173,1892.4
555.341,1888.05
555.508,1889.55
555.676,1887.55
555.843,1893.75
556.011,1891.85
556.178,1889.5
556.346,1887.9
556.513,1892.0
556.681,1892.8
556.848,1891.95
557.016,1888.75
557.183,1893.9
557.35,1892.25
557.518,1894.25
557.685,1889.05
557.853,1888.05
558.02,1890.75
558.188,1893.85
558.355,1894.6
558.522,1892.3
558.69,1891.45
558.857,1895.95
559.024,1892.95
559.192,1889.95
559.359,1895.35
559.526,1892.7
559.694,1895.2
559.861,1895.35
560.028,1892.05
560.196,1892.65
560.363,1896.25
560.53,1891.95
560.698,1891.95
560.865,1895.25
561.032,1894.15
561.2,1893.9
561.367,1893.25
561.534,1894.0
561.701,1893.25
561.869,1896.35
562.036,1897.1
562.203,1897.05
562.37,1895.45
562.538,1899.55
562.705,1896.1
562.872,1900.15
563.039,1893.7
563.206,1897.25
563.374,1899.0
563.541,1894.55
563.708,1897.95
563.875,1899.35
564.042,1900.15
564.209,1897.25
564.376,1895.45
564.544,1897.7
564.711,1900.0
564.878,1899.6
565.045,1898.55
565.212,1896.4
565.379,1897.45
565.546,1898.45
565.713,1901.4
565.881,1900.75
566.048,1901.8
566.215,1906.9
566.382,1903.5
566.549,1902.6
566.716,1903.3
566.883,1898.4
567.05,1897.6
567.217,1901.5
567.384,1899.4
567.551,1898.35
567.718,1899.2
567.885,1901.8
568.052,1900.4
568.219,1898.15
568.386,1902.35
568.553,1897.15
568.72,1902.1
568.887,1904.7
569.054,1902.4
569.221,1897.85
569.388,1900.9
569.555,1904.3
569.722,1900.4
569.888,1902.25
570.055,1901.9
570.222,1901.85
570.389,1901.3
570.556,1903.8
570.723,1903.65
570.89,1903.5
571.057,1900.3
571.224,1900.2
571.39,1908.65
571.557,1908.6
571.724,1906.0
571.891,1903.1
572.058,1903.4
572.225,1902.5
572.391,1905.25
572.558,1904.7
572.725,1904.7
572.892,1902.35
573.059,1906.5
573.225,1902.45
573.392,1902.85
573.559,1903.9
573.726,1904.35
573.892,1909.7
574.059,1899.3
574.226,1903.55
574.393,1901.8
574.559,1906.6
574.726,1901.55
574.893,1902.9
575.059,1909.6
575.226,1904.15
575.393,1906.8
575.559,1907.0
575.726,1906.4
575.893,1911.5
576.059,1906.75
576.226,1909.3
576.393,1908.15
576.559,1907.15
576.726,1911.1
576.893,1909.4
577.059,1909.1
577.226,1910.35
577.392,1904.35
577.559,1906.65
577.726,1906.15
577.892,1907.95
578.059,1907.6
578.225,1906.3
578.392,1907.45
578.558,1906.8
578.725,1905.7
578.891,1905.15
579.058,1912.35
579.224,1907.2
579.391,1908.85
579.557,1905.65
579.724,1909.15
579.89,1908.5
580.057,1907.7
580.223,1906.4
580.39,1907.0
580.556,1906.5
580.723,1911.4
580.889,1908.3
581.056,1908.05
581.222,1904.95
581.388,1905.55
581.555,1908.35
581.721,1910.4
581.888,1907.65
582.054,1909.6
582.22,1904.65
582.387,1906.3
582.553,1909.5
582.719,1904.65
582.886,1906.75
583.052,1911.4
583.219,1907.15
583.385,1912.3
583.551,1905.75
583.717,1905.6
583.884,1907.9
584.05,1903.0
584.216,1910.2
584.383,1908.0
584.549,1909.35
584.715,1907.4
584.881,1906.65
585.048,1910.7
585.214,1906.15
585.38,1904.55
585.546,1907.85
585.713,1905.25
585.879,1906.3
586.045,1907.95
586.211,1908.95
586.377,1909.1
586.544,1905.4
586.71,1907.4
586.876,1905.6
587.042,1910.35
587.208,1910.35
587.374,1909.7
587.541,1909.5
587.707,1908.05
587.873,1907.35
588.039,1913.0
588.205,1906.65
588.371,1909.45
588.537,1907.1
588.703,1911.45
588.869,1909.3
589.035,1913.7
589.201,1906.75
589.368,1910.1
589.534,1906.9
589.7,1906.2
589.866,1906.4
590.032,1909.25
590.198,1908.05
590.364,1910.25
590.53,1905.55
590.696,1908.7
590.862,1910.3
591.028,1911.35
591.194,1905.95
591.36,1904.9
591.525,1909.55
591.691,1911.65
591.857,1908.85
592.023,1909.15
592.189,1905.05
592.355,1910.85
592.521,1911.1
592.687,1910.0
592.853,1909.15
593.019,1910.9
593.185,1910.55
593.35,1910.75
593.516,1905.75
593.682,1902.75
593.848,1912.4
594.014,1909.5
594.18,1909.75
594.345,1907.55
594.511,1907.55
594.677,1906.5
594.843,1908.8
595.009,1913.0
595.174,1909.7
595.34,1905.35
595.506,1910.65
595.672,1911.2
595.837,1917.15
596.003,1911.85
596.169,1907.45
596.335,1907.9
596.5,1910.4
596.666,1908.85
596.832,1912.0
596.997,1911.4
597.163,1916.55
597.329,1911.0
597.494,1909.35
597.66,1910.5
597.826,1912.85
597.991,1908.9
598.157,1910.6
598.323,1907.9
598.488,1909.45
598.654,1911.05
598.819,1910.25
598.985,1906.5
599.151,1911.0
599.316,1907.05
599.482,1910.2
599.647,1910.9
599.813,1915.45
599.978,1910.05
600.144,1911.65
600.309,1908.95
600.475,1915.2
600.641,1913.8
600.806,1911.3
600.972,1914.0
601.137,1913.65
601.302,1909.9
601.468,1911.0
601.633,1907.05
601.799,1915.35
601.964,1913.9
602.13,1905.05
602.295,1918.55
602.461,1910.6
602.626,1911.05
602.791,1913.45
602.957,1911.95
603.122,1911.8
603.288,1911.05
603.453,1908.8
603.618,1910.15
603.784,1913.35
603.949,1913.0
604.114,1911.95
604.28,1909.1
604.445,1907.2
604.61,1908.9
604.776,1908.1
604.941,1912.1
605.106,1909.7
605.272,1906.7
605.437,1913.1
605.602,1908.55
605.767,1907.5
605.933,1910.65
606.098,1909.15
606.263,1909.05
606.428,1910.3
606.593,1910.7
606.759,1911.55
606.924,1913.0
607.089,1908.15
607.254,1911.4
607.419,1907.7
607.585,1908.6
607.75,1907.15
607.915,1908.85
608.08,1908.3
608.245,1909.9
608.41,1911.3
608.575,1911.1
608.74,1909.45
608.906,1911.9
609.071,1912.1
609.236,1908.35
609.401,1903.6
609.566,1906.05
609.731,1914.25
609.896,1910.2
610.061,1904.3
610.226,1907.85
610.391,1907.3
610.556,1908.7
610.721,1913.65
610.886,1909.55
611.051,1908.7
611.216,1906.15
611.381,1911.95
611.546,1911.1
611.711,1909.15
611.876,1910.4
612.041,1911.05
612.206,1907.4
612.371,1906.3
612.536,1905.35
612.7,1912.2
612.865,1909.85
613.03,1907.25
613.195,1907.3
613.36,1907.5
613.525,1909.05
613.69,1907.15
613.855,1905.0
614.019,1905.7
614.184,1906.3
614.349,1908.1
614.514,1903.0
614.679,1909.6
614.843,1912.65
615.008,1909.0
615.173,1910.45
615.338,1910.9
615.503,1904.7
615.667,1904.9
615.832,1904.8
615.997,1911.7
616.161,1910.55
616.326,1909.3
616.491,1901.75
616.656,1904.0
616.82,1905.35
616.985,1912.4
617.15,1909.35
617.314,1904.15
617.479,1906.65
617.644,1905.3
617.808,1905.9
617.973,1904.6
618.137,1903.9
618.302,1908.05
618.467,1908.5
618.631,1906.6
618.796,1905.15
618.96,1907.1
619.125,1904.8
619.289,1903.0
619.454,1910.5
619.619,1909.7
619.783,1905.05
619.948,1903.6
620.112,1901.95
620.277,1908.45
620.441,1908.85
620.606,1905.7
620.77,1903.25
620.935,1905.8
621.099,1905.6
621.263,1907.4
621.428,1903.3
621.592,1906.85
621.757,1908.95
621.921,1906.9
622.086,1903.4
622.25,1906.3
622.414,1907.15
622.579,1907.15
622.743,1905.85
622.907,1904.75
623.072,1906.45
623.236,1906.15
623.401,1903.8
623.565,1908.95
623.729,1906.0
623.893,1904.6
624.058,1908.05
624.222,1903.45
624.386,1904.05
624.551,1904.7
624.715,1904.0
624.879,1908.85
625.043,1901.55
625.208,1906.95
625.372,1904.8
625.536,1903.15
625.7,1902.3
625.864,1905.05
626.029,1904.45
626.193,1901.8
626.357,1903.55
626.521,1905.4
626.685,1911.2
626.849,1909.5
627.014,1928.7
627.178,1917.75
627.342,1917.45
627.506,1919.75
627.67,1914.95
627.834,1919.55
627.998,1913.4
628.162,1917.3
628.326,1921.85
628.49,1926.6
628.654,1921.7
628.818,1917.35
628.983,1917.9
629.147,1910.3
629.311,1912.05
629.475,1909.25
629.639,1908.9
629.803,1909.4
629.966,1910.25
630.13,1909.15
630.294,1910.65
630.458,1907.0
630.622,1906.45
630.786,1902.85
630.95,1902.65
631.114,1905.2
631.278,1901.75
631.442,1897.1
631.606,1902.9
631.77,1899.5
631.933,1899.4
632.097,1897.55
632.261,1901.75
632.425,1898.5
632.589,1900.75
632.753,1901.05
632.916,1898.35
633.08,1896.5
633.244,1899.65
633.408,1904.0
633.572,1899.85
633.735,1899.1
633.899,1898.6
634.063,1900.0
634.227,1898.35
634.39,1896.8
634.554,1895.75
634.718,1891.75
634.881,1898.1
635.045,1896.25
635.209,1898.6
635.372,1901.9
635.536,1894.0
635.7,1895.25
635.863,1897.65
636.027,1902.2
636.191,1896.65
636.354,1895.2
636.518,1895.45
636.681,1896.35
636.845,1893.8
637.009,1896.65
637.172,1893.95
637.336,1894.45
637.499,1895.45
637.663,1897.05
637.826,1897.45
637.99,1895.45
638.153,1897.7
638.317,1894.45
638.48,1891.95
638.644,1895.25
638.807,1892.85
638.971,1894.45
639.134,1894.25
639.298,1894.7
639.461,1891.8
639.625,1892.9
639.788,1892.6
639.951,1895.4
640.115,1895.0
640.278,1894.2
640.441,1891.45
640.605,1890.5
640.768,1892.15
640.932,1890.25
641.095,1895.5
641.258,1894.3
641.422,1894.5
641.585,1892.75
641.748,1893.85
641.911,1889.7
642.075,1895.2
642.238,1893.55
642.401,1894.3
642.565,1897.1
642.728,1888.8
642.891,1894.25
643.054,1889.9
643.217,1889.15
643.381,1891.2
643.544,1894.8
643.707,1890.15
643.87,1892.4
644.033,1891.25
644.197,1889.65
644.36,1892.55
644.523,1892.5
644.686,1889.85
644.849,1892.55
645.012,1893.3
645.175,1891.35
645.338,1890.4
645.501,1889.25
645.664,1887.5
645.828,1891.15
645.991,1892.0
646.154,1893.05
646.317,1888.75
646.48,1887.25
646.643,1888.15
646.806,1889.25
646.969,1890.9
647.132,1892.4
647.295,1889.3
647.458,1889.6
647.621,1888.1
647.783,1890.65
647.946,1889.55
648.109,1888.8
648.272,1890.4
648.435,1889.15
648.598,1889.2
648.761,1885.3
648.924,1884.6
649.087,1886.05
649.25,1892.5
649.412,1888.85
649.575,1889.65
649.738,1887.9
649.901,1887.1
650.064,1886.45
650.226,1885.85
650.389,1887.35
650.552,1885.2
650.715,1887.4
650.878,1890.1
651.04,1883.75
651.203,1889.4
651.366,1888.85
651.528,1889.15
651.691,1886.5
651.854,1883.65
652.017,1887.2
652.179,1883.35
652.342,1890.8
652.505,1886.25
652.667,1882.45
652.83,1884.3
652.992,1886.85
653.155,1884.0
653.318,1886.3
653.48,1886.3
653.643,1884.65
653.805,1881.9
653.968,1886.0
654.131,1884.65
654.293,1883.45
654.456,1883.5
654.618,1884.9
654.781,1882.75
654.943,1884.65
655.106,1884.5
655.268,1884.25
655.431,1884.2
655.593,1882.05
655.756,1883.35
655.918,1881.5
656.081,1884.35
656.243,1879.1
656.405,1884.8
656.568,1883.65
656.73,1884.6
656.893,1879.35
657.055,1876.35
657.217,1879.85
657.38,1878.4
657.542,1880.1
657.704,1879.9
657.867,1882.8
658.029,1881.7
658.191,1879.15
658.354,1879.15
658.516,1879.15
658.678,1885.05
658.84,1878.95
659.003,1878.7
659.165,1876.0
659.327,1877.15
659.489,1879.1
659.652,1878.05
659.814,1878.4
659.976,1877.1
660.138,1877.65
660.3,1878.65
660.463,1879.65
660.625,1875.6
660.787,1875.25
660.949,1878.3
661.03,1875.85