File: spectra/VLFR_08-PLA_bio_Raman_dee71bc2.csv
nm,Intensity
528.626,1863.73
528.795,1864.87
528.963,1863.9
529.132,1864.8
529.3,1864.07
529.469,1863.93
529.637,1864.5
529.806,1864.53
529.974,1863.07
530.143,1864.03
530.311,1864.63
530.48,1865.07
530.648,1864.93
530.816,1864.73
530.985,1866.1
531.153,1867.6
531.322,1869.7
531.49,1874.0
531.658,1911.23
531.827,2478.23
531.995,3948.7
532.164,4493.37
532.332,2221.8
532.5,1871.03
532.669,1866.7
532.837,1865.5
533.006,1864.9
533.174,1864.27
533.342,1867.3
533.511,1886.13
533.679,1997.9
533.847,2220.3
534.016,2367.03
534.184,2441.13
534.352,2438.8
534.521,2428.23
534.689,2445.23
534.857,2427.87
535.025,2456.03
535.194,2464.7
535.362,2469.37
535.53,2462.87
535.699,2466.2
535.867,2466.8
536.035,2445.23
536.203,2461.8
536.372,2441.1
536.54,2446.63
536.708,2440.67
536.876,2434.9
537.044,2421.03
537.213,2467.47
537.381,2488.0
537.549,2481.63
537.717,2476.97
537.885,2466.57
538.054,2466.43
538.222,2453.07
538.39,2470.93
538.558,2463.63
538.726,2460.1
538.894,2464.0
539.063,2459.07
539.231,2471.97
539.399,2463.43
539.567,2464.8
539.735,2454.83
539.903,2473.23
540.071,2489.03
540.239,2466.73
540.408,2464.4
540.576,2475.3
540.744,2495.23
540.912,2473.9
541.08,2479.93
541.248,2510.27
541.416,2507.97
541.584,2492.93
541.752,2503.5
541.92,2514.67
542.088,2512.17
542.256,2503.13
542.424,2521.53
542.592,2540.27
542.76,2533.93
542.928,2520.93
543.096,2528.5
543.264,2559.03
543.432,2559.9
543.6,2576.8
543.768,2581.67
543.936,2590.2
544.104,2603.83
544.272,2603.93
544.44,2574.57
544.608,2567.07
544.776,2583.97
544.944,2597.2
545.112,2587.4
545.28,2572.67
545.448,2560.23
545.616,2570.4
545.784,2588.3
545.951,2607.7
546.119,2586.1
546.287,2554.7
546.455,2574.07
546.623,2593.63
546.791,2587.17
546.959,2603.53
547.127,2594.8
547.294,2597.17
547.462,2576.47
547.63,2576.8
547.798,2583.3
547.966,2577.9
548.134,2586.27
548.301,2618.27
548.469,2649.63
548.637,2630.3
548.805,2604.7
548.972,2632.67
549.14,2634.0
549.308,2643.43
549.476,2626.2
549.644,2637.07
549.811,2631.8
549.979,2642.2
550.147,2638.7
550.315,2658.77
550.482,2650.87
550.65,2659.1
550.818,2676.37
550.985,2670.13
551.153,2694.33
551.321,2701.47
551.488,2724.03
551.656,2713.1
551.824,2709.33
551.991,2697.53
552.159,2682.63
552.327,2700.5
552.494,2679.03
552.662,2668.3
552.83,2668.8
552.997,2690.83
553.165,2708.5
553.333,2694.47
553.5,2678.4
553.668,2712.07
553.835,2713.93
554.003,2709.13
554.171,2725.47
554.338,2700.53
554.506,2722.4
554.673,2742.13
554.841,2731.83
555.008,2735.33
555.176,2735.4
555.343,2718.7
555.511,2713.33
555.679,2715.1
555.846,2731.87
556.014,2721.3
556.181,2706.07
556.349,2716.67
556.516,2743.4
556.684,2721.73
556.851,2726.67
557.018,2717.9
557.186,2715.7
557.353,2731.87
557.521,2762.17
557.688,2801.0
557.856,2828.27
558.023,2864.57
558.191,2839.03
558.358,2807.67
558.525,2757.2
558.693,2752.17
558.86,2747.37
559.028,2754.57
559.195,2777.4
559.362,2753.4
559.53,2760.53
559.697,2769.73
559.864,2747.07
560.032,2755.67
560.199,2750.13
560.366,2771.37
560.534,2794.67
560.701,2824.9
560.868,2816.77
561.036,2788.1
561.203,2804.97
561.37,2837.27
561.538,2845.03
561.705,2877.87
561.872,2922.1
562.039,3006.1
562.207,3098.27
562.374,3193.73
562.541,3112.6
562.708,3013.47
562.876,2886.8
563.043,2842.2
563.21,2850.2
563.377,2862.23
563.545,2853.4
563.712,2845.97
563.879,2823.93
564.046,2822.23
564.213,2831.0
564.38,2854.7
564.548,2844.97
564.715,2852.1
564.882,2882.1
565.049,2864.47
565.216,2891.57
565.383,2879.07
565.551,2871.57
565.718,2875.0
565.885,2864.83
566.052,2894.03
566.219,2918.7
566.386,2912.77
566.553,2890.6
566.72,2887.9
566.887,2907.7
567.054,2877.63
567.221,2908.1
567.388,2923.7
567.555,2875.8
567.722,2864.33
567.889,2902.4
568.057,2898.8
568.224,2885.9
568.391,2901.57
568.558,2897.1
568.725,2880.57
568.892,2892.47
569.058,2887.53
569.225,2887.77
569.392,2901.17
569.559,2900.23
569.726,2893.8
569.893,2876.6
570.06,2898.7
570.227,2886.17
570.394,2884.63
570.561,2887.83
570.728,2871.33
570.895,2878.4
571.062,2883.83
571.229,2899.97
571.395,2941.43
571.562,2919.17
571.729,2932.27
571.896,2956.23
572.063,2936.73
572.23,2952.5
572.397,2943.23
572.563,2962.17
572.73,2955.4
572.897,2941.17
573.064,2956.8
573.231,2949.93
573.397,2964.27
573.564,2940.8
573.731,2923.4
573.898,2952.7
574.064,2938.9
574.231,2952.63
574.398,2940.47
574.565,2941.9
574.731,2950.27
574.898,2952.53
575.065,2932.63
575.232,2933.87
575.398,2931.53
575.565,2937.03
575.732,2950.73
575.898,2941.7
576.065,2976.0
576.232,2968.27
576.398,2994.87
576.565,3011.6
576.732,3040.23
576.898,3040.37
577.065,2995.73
577.232,2971.03
577.398,2972.73
577.565,2965.03
577.731,2942.9
577.898,2962.0
578.065,2957.3
578.231,2944.1
578.398,2918.03
578.564,2913.73
578.731,2945.23
578.897,2953.93
579.064,2969.43
579.23,2955.9
579.397,2964.63
579.563,2972.83
579.73,2971.43
579.896,2958.03
580.063,2978.03
580.229,2993.8
580.396,2988.33
580.562,2962.6
580.729,2982.17
580.895,2986.63
581.062,2991.5
581.228,2974.37
581.395,2984.93
581.561,2987.1
581.728,2964.2
581.894,3016.17
582.06,2988.37
582.227,2978.3
582.393,2985.43
582.56,2975.83
582.726,2993.0
582.892,2994.9
583.059,3001.47
583.225,2994.53
583.391,2990.03
583.558,2984.0
583.724,2988.07
583.89,2977.43
584.057,3029.53
584.223,3026.27
584.389,3013.97
584.556,2997.4
584.722,2982.47
584.888,2970.83
585.054,2978.37
585.221,2997.87
585.387,2972.97
585.553,2961.9
585.719,2962.27
585.886,2961.8
586.052,2982.23
586.218,2986.03
586.384,2994.63
586.55,3007.8
586.717,3006.97
586.883,3031.4
587.049,3032.67
587.215,3036.9
587.381,3071.7
587.548,3064.03
587.714,3044.1
587.88,3058.23
588.046,3022.67
588.212,3027.0
588.378,2984.07
588.544,2996.67
588.71,2973.43
588.876,2912.17
589.043,2893.8
589.209,2943.83
589.375,2952.0
589.541,2932.37
589.707,2940.6
589.873,2961.5
590.039,2979.73
590.205,2976.53
590.371,2972.83
590.537,2972.43
590.703,2986.0
590.869,2997.17
591.035,2985.63
591.201,2997.63
591.367,2986.9
591.533,3006.93
591.699,3014.47
591.865,2986.13
592.031,2999.73
592.197,2993.77
592.363,2974.93
592.529,3013.17
592.694,3013.13
592.86,3012.13
593.026,2983.67
593.192,3006.97
593.358,3002.1
593.524,2994.67
593.69,3012.8
593.856,2999.73
594.021,3008.73
594.187,2969.43
594.353,2982.87
594.519,2964.57
594.685,2986.97
594.851,2976.97
595.016,2987.4
595.182,2996.57
595.348,3027.6
595.514,3021.5
595.68,3014.1
595.845,3016.7
596.011,3029.1
596.177,3021.2
596.342,3034.7
596.508,3026.83
596.674,3031.87
596.84,3015.17
597.005,3021.37
597.171,3017.57
597.337,3048.2
597.502,3012.03
597.668,3012.0
597.834,2999.93
597.999,3043.13
598.165,3016.5
598.331,3021.4
598.496,3002.93
598.662,3016.87
598.828,3019.27
598.993,3047.53
599.159,3047.6
599.324,3036.53
599.49,3037.37
599.656,3036.5
599.821,3026.1
599.987,3034.27
600.152,3044.17
600.318,3048.43
600.483,3021.67
600.649,3021.0
600.814,3028.83
600.98,3086.2
601.145,3047.67
601.311,3045.27
601.476,3016.97
601.642,3058.63
601.807,3054.03
601.973,3029.07
602.138,3024.23
602.304,3026.83
602.469,3050.97
602.635,3024.57
602.8,3076.9
602.965,3072.73
603.131,3070.6
603.296,3076.37
603.462,3077.2
603.627,3082.83
603.792,3054.47
603.958,3063.73
604.123,3059.57
604.288,3070.13
604.454,3055.43
604.619,3064.33
604.784,3047.87
604.95,3074.53
605.115,3043.6
605.28,3048.33
605.446,3058.53
605.611,3065.7
605.776,3095.2
605.941,3041.5
606.107,3100.07
606.272,3070.33
606.437,3092.43
606.602,3068.5
606.767,3065.57
606.933,3059.13
607.098,3112.03
607.263,3075.4
607.428,3087.73
607.593,3106.87
607.759,3075.17
607.924,3065.4
608.089,3046.47
608.254,3064.57
608.419,3093.93
608.584,3085.57
608.749,3071.27
608.915,3120.5
609.08,3075.43
609.245,3059.23
609.41,3082.87
609.575,3092.6
609.74,3088.6
609.905,3118.0
610.07,3094.03
610.235,3066.67
610.4,3082.83
610.565,3087.67
610.73,3080.23
610.895,3109.63
611.06,3077.83
611.225,3075.5
611.39,3104.17
611.555,3077.03
611.72,3098.77
611.885,3078.2
612.05,3065.87
612.215,3073.37
612.38,3106.23
612.545,3076.2
612.71,3089.6
612.875,3114.6
613.04,3098.53
613.204,3088.63
613.369,3091.8
613.534,3075.0
613.699,3055.13
613.864,3086.6
614.029,3093.2
614.194,3088.0
614.358,3110.37
614.523,3095.03
614.688,3115.07
614.853,3090.2
615.018,3071.3
615.182,3093.47
615.347,3114.13
615.512,3092.63
615.677,3115.63
615.841,3098.0
616.006,3078.47
616.171,3062.53
616.336,3056.5
616.5,3080.27
616.665,3069.43
616.83,3085.93
616.994,3067.07
617.159,3108.6
617.324,3077.37
617.489,3088.7
617.653,3087.37
617.818,3120.4
617.982,3087.37
618.147,3085.5
618.312,3120.17
618.476,3102.93
618.641,3093.9
618.805,3105.97
618.97,3086.0
619.135,3105.03
619.299,3069.83
619.464,3111.17
619.628,3085.6
619.793,3120.27
619.957,3115.77
620.122,3126.57
620.286,3125.47
620.451,3136.53
620.615,3082.63
620.78,3094.6
620.944,3093.0
621.109,3107.53
621.273,3084.37
621.438,3080.9
621.602,3071.43
621.767,3097.73
621.931,3063.43
622.095,3079.03
622.26,3125.7
622.424,3062.07
622.589,3102.83
622.753,3100.97
622.917,3080.67
623.082,3095.2
623.246,3092.57
623.41,3067.93
623.575,3089.43
623.739,3108.37
623.903,3102.87
624.068,3072.73
624.232,3105.77
624.396,3069.1
624.561,3074.0
624.725,3074.2
624.889,3069.23
625.053,3060.87
625.218,3060.53
625.382,3038.07
625.546,3073.53
625.71,3059.3
625.875,3054.57
626.039,3059.13
626.203,3069.87
626.367,3050.67
626.531,3046.83
626.695,3074.13
626.86,3042.4
627.024,3052.67
627.188,3060.87
627.352,3035.33
627.516,3049.73
627.68,3047.5
627.844,3027.33
628.008,3050.33
628.172,3075.0
628.337,3105.53
628.501,3149.87
628.665,3098.7
628.829,3096.1
628.993,3089.7
629.157,3098.47
629.321,3099.57
629.485,3077.87
629.649,3095.1
629.813,3111.97
629.977,3085.03
630.141,3069.4
630.305,3094.0
630.469,3121.8
630.633,3187.53
630.797,3320.13
630.96,3439.9
631.124,3446.1
631.288,3370.33
631.452,3309.2
631.616,3189.7
631.78,3161.2
631.944,3134.1
632.108,3137.33
632.272,3124.33
632.435,3104.33
632.599,3110.03
632.763,3146.8
632.927,3162.0
633.091,3193.33
633.254,3161.73
633.418,3163.3
633.582,3157.63
633.746,3100.83
633.91,3098.37
634.073,3100.8
634.237,3062.9
634.401,3017.27
634.564,3015.2
634.728,3000.47
634.892,3008.27
635.056,3000.83
635.219,2980.53
635.383,2978.97
635.547,2959.43
635.71,2965.3
635.874,2961.1
636.038,2960.77
636.201,2957.8
636.365,2958.03
636.528,2977.5
636.692,2947.77
636.856,2968.73
637.019,2953.77
637.183,2958.8
637.346,2958.1
637.51,2956.5
637.673,2954.77
637.837,2945.57
638.0,2952.4
638.164,2949.63
638.327,2947.37
638.491,2939.33
638.654,2949.87
638.818,2937.4
638.981,2921.63
639.145,2919.63
639.308,2938.7
639.472,2922.93
639.635,2929.7
639.799,2918.93
639.962,2881.87
640.125,2906.23
640.289,2917.8
640.452,2899.27
640.616,2904.63
640.779,2895.8
640.942,2873.6
641.106,2884.3
641.269,2884.5
641.432,2921.37
641.596,2910.7
641.759,2882.37
641.922,2876.93
642.085,2879.93
642.249,2863.47
642.412,2889.97
642.575,2909.0
642.738,2899.37
642.902,2873.43
643.065,2864.87
643.228,2852.47
643.391,2879.4
643.555,2876.17
643.718,2859.33
643.881,2869.67
644.044,2856.23
644.207,2889.3
644.37,2897.53
644.534,2861.9
644.697,2839.4
644.86,2847.1
645.023,2837.37
645.186,2839.8
645.349,2865.53
645.512,2850.4
645.675,2832.57
645.838,2858.43
646.001,2834.2
646.164,2846.87
646.327,2823.93
646.49,2840.33
646.653,2831.17
646.816,2831.83
646.979,2806.9
647.142,2823.17
647.305,2821.13
647.468,2832.93
647.631,2817.13
647.794,2821.37
647.957,2808.57
648.12,2803.57
648.283,2779.07
648.446,2794.6
648.609,2782.37
648.772,2828.67
648.935,2829.47
649.098,2766.17
649.26,2749.47
649.423,2751.6
649.586,2755.13
649.749,2784.5
649.912,2764.2
650.075,2745.4
650.237,2778.03
650.4,2802.77
650.563,2775.37
650.726,2780.8
650.888,2754.23
651.051,2768.83
651.214,2762.33
651.377,2753.53
651.539,2741.6
651.702,2743.37
651.865,2732.33
652.027,2739.3
652.19,2769.43
652.353,2760.07
652.515,2720.07
652.678,2741.9
652.841,2766.7
653.003,2739.7
653.166,2701.73
653.329,2709.57
653.491,2708.33
653.654,2715.0
653.816,2699.5
653.979,2703.83
654.142,2716.23
654.304,2662.57
654.467,2683.73
654.629,2689.8
654.792,2669.93
654.954,2656.6
655.117,2691.47
655.279,2685.23
655.442,2678.3
655.604,2650.83
655.767,2663.67
655.929,2647.1
656.091,2608.53
656.254,2593.77
656.416,2599.67
656.579,2635.6
656.741,2618.73
656.904,2653.3
657.066,2610.4
657.228,2620.13
657.391,2651.23
657.553,2656.37
657.715,2638.9
657.878,2615.13
658.04,2615.23
658.202,2637.57
658.365,2626.07
658.527,2620.6
658.689,2615.13
658.851,2620.27
659.014,2603.07
659.176,2555.27
659.338,2598.0
659.5,2595.17
659.663,2594.8
659.825,2579.73
659.987,2600.7
660.149,2570.9
660.311,2574.07
660.474,2584.13
660.636,2592.57
660.798,2588.33
660.96,2585.8
661.041,2574.37