File: spectra/VLFR_08-PLA_nobio_Raman_af1cc8bc.csv
cm-1,Intensity
-123.878,1851.6
-117.855,1854.4
-111.836,1852.9
-105.821,1852.95
-99.8104,1852.65
-93.8036,1852.7
-87.8007,1852.2
-81.8019,1853.75
-75.807,1853.75
-69.8161,1852.4
-63.8293,1852.25
-57.8464,1852.4
-51.8675,1853.75
-45.8926,1854.3
-39.9216,1853.3
-33.9547,1853.65
-27.9917,1855.1
-22.0326,1857.0
-16.0776,1871.15
-10.1265,2109.65
-4.17932,2877.7
1.76388,2677.95
7.70313,1915.95
13.6384,1854.25
19.5698,1853.05
25.4972,1854.1
31.4207,1852.95
37.3403,1853.45
43.256,1854.75
49.1677,1864.45
55.0755,1938.0
60.9794,2064.0
66.8794,2136.95
72.7754,2137.7
78.6676,2136.95
84.5559,2123.9
90.4402,2133.2
96.3207,2120.15
102.197,2106.3
108.07,2121.65
113.939,2134.8
119.804,2132.8
125.665,2122.85
131.522,2115.65
137.375,2099.95
143.225,2104.55
149.07,2110.7
154.912,2124.85
160.75,2124.6
166.584,2104.0
172.414,2087.7
178.241,2107.65
184.063,2117.55
189.882,2114.05
195.697,2126.75
201.508,2116.8
207.315,2115.1
213.119,2110.5
218.918,2111.5
224.714,2106.8
230.506,2108.3
236.294,2114.4
242.078,2113.85
247.859,2115.1
253.636,2105.5
259.409,2114.6
265.178,2114.7
270.943,2102.75
276.705,2120.05
282.463,2116.85
288.217,2127.85
293.967,2147.0
299.713,2139.3
305.456,2145.5
311.195,2140.85
316.93,2135.5
322.662,2130.3
328.389,2133.25
334.113,2124.4
339.834,2129.35
345.55,2124.2
351.263,2147.5
356.972,2137.15
362.677,2133.55
368.379,2138.2
374.077,2143.4
379.771,2159.25
385.461,2172.0
391.148,2189.45
396.831,2205.4
402.51,2201.55
408.186,2185.95
413.858,2185.0
419.526,2172.45
425.19,2160.0
430.851,2157.0
436.508,2159.0
442.162,2151.9
447.811,2169.6
453.458,2156.2
459.1,2153.55
464.739,2150.55
470.374,2157.05
476.005,2169.95
481.633,2169.25
487.257,2165.5
492.878,2164.05
498.494,2171.9
504.107,2164.65
509.717,2170.3
515.323,2178.35
520.925,2173.45
526.524,2173.7
532.119,2175.95
537.71,2176.55
543.298,2182.55
548.882,2179.05
554.462,2181.65
560.039,2195.4
565.613,2192.5
571.182,2190.05
576.748,2195.85
582.311,2182.2
587.87,2193.6
593.425,2194.75
598.977,2190.35
604.525,2201.3
610.069,2193.45
615.61,2193.45
621.148,2202.45
626.682,2209.8
632.212,2194.6
637.739,2212.25
643.262,2211.5
648.781,2218.65
654.297,2214.15
659.81,2212.9
665.319,2218.5
670.824,2221.65
676.326,2221.5
681.824,2219.9
687.319,2224.5
692.81,2216.0
698.298,2231.8
703.782,2231.45
709.262,2227.8
714.739,2227.15
720.213,2236.7
725.683,2222.75
731.15,2223.85
736.613,2242.1
742.072,2247.3
747.528,2240.8
752.981,2230.25
758.43,2230.75
763.875,2230.15
769.317,2235.25
774.756,2245.1
780.191,2230.1
785.623,2230.55
791.051,2232.35
796.475,2221.8
801.897,2223.55
807.314,2231.1
812.729,2235.35
818.139,2226.8
823.547,2232.0
828.951,2233.85
834.351,2233.5
839.748,2247.15
845.142,2231.05
850.532,2253.8
855.918,2280.6
861.302,2311.75
866.681,2380.7
872.058,2443.45
877.431,2416.25
882.8,2340.5
888.166,2283.8
893.529,2269.8
898.888,2271.75
904.244,2261.95
909.596,2278.05
914.945,2278.1
920.291,2274.6
925.633,2263.3
930.972,2267.8
936.308,2277.25
941.64,2256.2
946.968,2263.25
952.294,2259.85
957.615,2272.0
962.934,2265.75
968.249,2267.55
973.561,2263.55
978.869,2270.3
984.174,2265.7
989.476,2269.65
994.774,2275.45
1000.07,2270.5
1005.36,2265.6
1010.65,2273.25
1015.93,2285.75
1021.22,2294.75
1026.49,2296.1
1031.77,2304.05
1037.04,2325.05
1042.31,2360.55
1047.57,2348.1
1052.83,2325.05
1058.09,2313.65
1063.35,2296.65
1068.6,2305.95
1073.85,2303.7
1079.09,2315.1
1084.33,2333.2
1089.57,2339.7
1094.81,2331.65
1100.04,2324.9
1105.27,2343.6
1110.49,2338.05
1115.71,2352.15
1120.93,2354.15
1126.15,2357.0
1131.36,2377.75
1136.57,2351.25
1141.77,2345.35
1146.98,2316.6
1152.18,2324.75
1157.37,2324.0
1162.56,2308.1
1167.75,2316.9
1172.94,2315.8
1178.12,2324.8
1183.3,2339.1
1188.48,2324.15
1193.65,2319.1
1198.82,2321.35
1203.99,2328.9
1209.15,2326.55
1214.31,2344.65
1219.46,2338.5
1224.62,2328.9
1229.77,2334.8
1234.92,2320.7
1240.06,2335.4
1245.2,2321.95
1250.34,2330.35
1255.47,2332.95
1260.6,2320.0
1265.73,2342.0
1270.85,2338.0
1275.97,2337.1
1281.09,2332.85
1286.21,2362.75
1291.32,2393.9
1296.43,2388.75
1301.53,2389.6
1306.63,2381.4
1311.73,2368.2
1316.83,2381.3
1321.92,2369.85
1327.01,2348.3
1332.1,2364.7
1337.18,2352.7
1342.26,2368.0
1347.34,2363.5
1352.41,2371.0
1357.48,2368.8
1362.55,2372.65
1367.61,2379.35
1372.67,2360.8
1377.73,2363.4
1382.78,2369.5
1387.84,2374.2
1392.88,2364.2
1397.93,2357.2
1402.97,2354.8
1408.01,2360.8
1413.05,2345.65
1418.08,2356.9
1423.11,2355.3
1428.14,2362.05
1433.16,2372.1
1438.18,2385.75
1443.2,2408.1
1448.21,2454.3
1453.22,2461.8
1458.23,2438.05
1463.23,2437.2
1468.23,2396.0
1473.23,2390.65
1478.23,2360.7
1483.22,2367.9
1488.21,2362.55
1493.2,2349.7
1498.18,2339.95
1503.16,2362.0
1508.14,2351.7
1513.11,2340.05
1518.08,2344.1
1523.05,2358.8
1528.01,2334.15
1532.97,2350.1
1537.93,2361.9
1542.89,2354.7
1547.84,2355.6
1552.79,2354.15
1557.73,2360.35
1562.68,2345.3
1567.62,2367.2
1572.56,2362.5
1577.49,2356.85
1582.42,2342.7
1587.35,2356.5
1592.27,2344.35
1597.19,2342.35
1602.11,2353.2
1607.03,2368.95
1611.94,2366.5
1616.85,2352.5
1621.76,2358.5
1626.66,2366.4
1631.56,2353.9
1636.46,2349.75
1641.36,2345.95
1646.25,2366.15
1651.14,2345.55
1656.02,2362.85
1660.9,2341.4
1665.78,2339.05
1670.66,2363.25
1675.54,2364.05
1680.41,2360.3
1685.27,2358.9
1690.14,2349.1
1695.0,2356.85
1699.86,2349.2
1704.71,2364.05
1709.57,2348.65
1714.42,2346.9
1719.26,2340.75
1724.11,2344.85
1728.95,2355.85
1733.79,2363.55
1738.62,2351.55
1743.46,2384.15
1748.28,2408.5
1753.11,2398.45
1757.93,2432.2
1762.75,2462.45
1767.57,2449.0
1772.39,2453.25
1777.2,2447.65
1782.01,2425.05
1786.81,2393.8
1791.62,2373.4
1796.41,2362.6
1801.21,2342.35
1806.01,2346.0
1810.8,2367.4
1815.59,2349.35
1820.37,2343.3
1825.15,2339.5
1829.93,2342.6
1834.71,2335.05
1839.48,2349.2
1844.25,2336.05
1849.02,2332.05
1853.79,2359.2
1858.55,2335.8
1863.31,2355.2
1868.06,2337.45
1872.82,2345.5
1877.57,2347.1
1882.31,2350.95
1887.06,2355.0
1891.8,2355.15
1896.54,2341.8
1901.28,2350.9
1906.01,2357.55
1910.74,2354.1
1915.47,2346.65
1920.19,2352.55
1924.91,2342.95
1929.63,2355.15
1934.35,2331.85
1939.06,2335.55
1943.77,2342.7
1948.48,2351.3
1953.19,2351.4
1957.89,2338.6
1962.59,2344.15
1967.28,2340.75
1971.98,2346.6
1976.67,2333.55
1981.35,2345.6
1986.04,2346.3
1990.72,2353.1
1995.4,2348.8
2000.08,2346.75
2004.75,2341.9
2009.42,2341.75
2014.09,2354.85
2018.75,2349.95
2023.42,2343.35
2028.08,2358.75
2032.73,2349.2
2037.39,2346.4
2042.04,2342.4
2046.69,2345.45
2051.33,2334.8
2055.97,2347.65
2060.61,2348.05
2065.25,2337.3
2069.88,2364.4
2074.52,2324.1
2079.15,2336.85
2083.77,2361.9
2088.39,2348.7
2093.01,2355.15
2097.63,2350.6
2102.25,2347.7
2106.86,2356.05
2111.47,2353.75
2116.08,2341.65
2120.68,2353.7
2125.28,2361.8
2129.88,2358.75
2134.47,2359.5
2139.07,2352.65
2143.66,2354.85
2148.24,2348.8
2152.83,2354.15
2157.41,2332.9
2161.99,2348.5
2166.57,2338.1
2171.14,2355.85
2175.71,2344.7
2180.28,2345.95
2184.84,2342.25
2189.41,2352.4
2193.97,2339.45
2198.52,2347.45
2203.08,2358.85
2207.63,2358.2
2212.18,2366.5
2216.73,2351.05
2221.27,2352.7
2225.81,2344.7
2230.35,2344.05
2234.89,2345.3
2239.42,2348.8
2243.95,2361.65
2248.48,2339.15
2253.0,2348.55
2257.52,2348.6
2262.04,2343.7
2266.56,2346.9
2271.07,2348.45
2275.58,2336.6
2280.09,2359.95
2284.6,2346.55
2289.1,2329.35
2293.6,2353.5
2298.1,2351.55
2302.6,2339.7
2307.09,2338.6
2311.58,2348.55
2316.07,2359.65
2320.55,2362.95
2325.03,2368.65
2329.51,2339.35
2333.99,2336.55
2338.46,2341.1
2342.93,2354.2
2347.4,2333.7
2351.87,2334.75
2356.33,2340.6
2360.79,2352.65
2365.25,2341.6
2369.71,2343.6
2374.16,2331.7
2378.61,2336.4
2383.06,2344.2
2387.5,2335.2
2391.94,2327.55
2396.38,2348.3
2400.82,2341.8
2405.26,2344.75
2409.69,2348.6
2414.12,2332.25
2418.54,2340.45
2422.97,2326.45
2427.39,2355.2
2431.81,2352.95
2436.22,2350.1
2440.64,2329.15
2445.05,2331.8
2449.46,2343.2
2453.86,2330.0
2458.27,2327.25
2462.67,2339.2
2467.06,2329.8
2471.46,2320.45
2475.85,2335.8
2480.24,2332.55
2484.63,2329.6
2489.02,2324.85
2493.4,2336.5
2497.78,2342.55
2502.16,2328.25
2506.53,2323.3
2510.9,2346.7
2515.27,2332.85
2519.64,2330.7
2524.0,2323.7
2528.37,2327.0
2532.73,2322.8
2537.08,2337.35
2541.44,2313.55
2545.79,2319.2
2550.14,2318.05
2554.48,2328.5
2558.83,2332.15
2563.17,2325.75
2567.51,2309.65
2571.85,2321.8
2576.18,2320.8
2580.51,2313.65
2584.84,2322.25
2589.17,2322.7
2593.49,2314.55
2597.81,2307.2
2602.13,2308.85
2606.45,2328.65
2610.76,2315.8
2615.07,2310.85
2619.38,2324.1
2623.69,2319.65
2627.99,2306.85
2632.29,2309.95
2636.59,2312.35
2640.89,2300.65
2645.18,2316.5
2649.47,2315.25
2653.76,2314.9
2658.05,2325.85
2662.33,2300.95
2666.61,2311.55
2670.89,2302.6
2675.17,2297.3
2679.44,2320.4
2683.71,2308.05
2687.98,2315.05
2692.25,2311.2
2696.51,2295.25
2700.77,2301.35
2705.03,2305.7
2709.29,2306.7
2713.54,2323.45
2717.79,2305.7
2722.04,2313.45
2726.29,2319.2
2730.53,2323.5
2734.77,2331.95
2739.01,2340.4
2743.25,2325.6
2747.48,2314.1
2751.71,2328.95
2755.94,2320.5
2760.17,2329.3
2764.39,2310.35
2768.61,2318.9
2772.83,2304.65
2777.05,2298.1
2781.27,2301.1
2785.48,2292.95
2789.69,2282.6
2793.89,2289.55
2798.1,2304.5
2802.3,2297.65
2806.5,2282.4
2810.7,2279.5
2814.89,2292.6
2819.09,2293.2
2823.28,2296.85
2827.46,2291.25
2831.65,2280.95
2835.83,2291.55
2840.01,2289.1
2844.19,2282.55
2848.37,2260.4
2852.54,2296.5
2856.71,2294.75
2860.88,2294.2
2865.05,2312.5
2869.21,2339.1
2873.37,2383.65
2877.53,2409.1
2881.69,2418.25
2885.84,2408.8
2889.99,2420.65
2894.14,2401.05
2898.29,2415.7
2902.43,2401.45
2906.58,2403.9
2910.72,2397.95
2914.85,2393.85
2918.99,2394.1
2923.12,2428.9
2927.25,2459.05
2931.38,2521.6
2935.5,2682.15
2939.63,2916.85
2943.75,3199.5
2947.87,3208.95
2951.98,3074.8
2956.1,2879.4
2960.21,2697.35
2964.32,2612.35
2968.42,2559.05
2972.53,2501.0
2976.63,2477.9
2980.73,2455.3
2984.83,2469.75
2988.92,2505.3
2993.01,2571.95
2997.1,2628.2
3001.19,2646.95
3005.28,2640.05
3009.36,2590.0
3013.44,2529.8
3017.52,2477.05
3021.6,2419.05
3025.67,2360.8
3029.74,2324.35
3033.81,2308.4
3037.88,2284.7
3041.94,2291.4
3046.01,2275.25
3050.07,2254.9
3054.12,2252.6
3058.18,2237.4
3062.23,2242.25
3066.28,2239.3
3070.33,2242.4
3074.38,2243.45
3078.42,2238.2
3082.46,2248.8
3086.5,2237.2
3090.54,2236.15
3094.57,2229.7
3098.6,2225.1
3102.63,2224.4
3106.66,2236.0
3110.69,2220.5
3114.71,2219.35
3118.73,2224.45
3122.75,2220.5
3126.77,2214.2
3130.78,2222.7
3134.79,2222.95
3138.8,2218.35
3142.81,2211.2
3146.81,2210.1
3150.82,2214.85
3154.82,2199.55
3158.81,2210.15
3162.81,2209.5
3166.8,2220.1
3170.79,2219.75
3174.78,2201.1
3178.77,2204.1
3182.75,2193.95
3186.74,2201.15
3190.72,2201.95
3194.69,2207.5
3198.67,2193.1
3202.64,2200.55
3206.61,2200.05
3210.58,2198.95
3214.55,2203.35
3218.51,2208.7
3222.47,2194.55
3226.43,2199.95
3230.39,2197.3
3234.35,2211.05
3238.3,2176.95
3242.25,2186.35
3246.2,2186.05
3250.15,2183.45
3254.09,2183.6
3258.03,2184.25
3261.97,2181.95
3265.91,2179.45
3269.84,2193.0
3273.78,2172.0
3277.71,2174.85
3281.64,2184.1
3285.56,2181.95
3289.49,2177.65
3293.41,2179.15
3297.33,2170.95
3301.25,2168.65
3305.16,2171.1
3309.07,2165.85
3312.99,2169.2
3316.89,2168.4
3320.8,2176.4
3324.7,2159.65
3328.61,2151.45
3332.51,2171.75
3336.4,2160.85
3340.3,2148.8
3344.19,2158.2
3348.08,2145.0
3351.97,2161.0
3355.86,2168.2
3359.74,2150.45
3363.63,2143.9
3367.51,2149.7
3371.39,2139.65
3375.26,2141.75
3379.13,2141.65
3383.01,2156.2
3386.88,2144.05
3390.74,2139.4
3394.61,2136.35
3398.47,2135.5
3402.33,2136.7
3406.19,2141.05
3410.05,2139.0
3413.9,2149.4
3417.75,2146.0
3421.6,2144.9
3425.45,2135.75
3429.3,2134.7
3433.14,2129.85
3436.98,2138.2
3440.82,2135.8
3444.66,2126.95
3448.49,2124.3
3452.32,2125.95
3456.15,2135.1
3459.98,2132.6
3463.81,2125.55
3467.63,2121.7
3471.46,2123.2
3475.28,2125.4
3479.09,2114.3
3482.91,2118.0
3486.72,2123.2
3490.53,2113.2
3494.34,2112.5
3498.15,2114.65
3501.96,2116.85
3505.76,2114.75
3509.56,2103.0
3513.36,2117.4
3517.15,2111.6
3520.95,2095.9
3524.74,2107.35
3528.53,2103.45
3532.32,2099.15
3536.11,2119.0
3539.89,2096.35
3543.67,2110.15
3547.45,2094.6
3551.23,2092.95
3555.0,2098.1
3558.78,2097.6
3562.55,2098.85
3566.32,2096.1
3570.09,2097.15
3573.85,2100.35
3577.61,2106.65
3581.37,2088.9
3585.13,2087.9
3588.89,2084.7
3592.64,2093.65
3596.4,2080.4
3600.15,2083.6
3603.9,2094.95
3607.64,2087.9
3611.39,2087.1
3615.13,2090.0
3618.87,2083.35
3622.61,2069.65
3626.34,2070.4
3630.08,2079.0
3633.81,2068.85
3637.54,2068.1
3641.27,2076.5
3644.99,2076.1
3648.72,2079.4
3652.44,2079.15
3656.16,2074.95
3659.87,2069.5
3663.59,2074.1
3665.45,2069.6