File: spectra/VLFR_09-PET_bio_Raman_55a1e595.csv
nm,Intensity
528.626,1869.4
528.795,1869.2
528.963,1871.4
529.132,1871.1
529.3,1869.5
529.469,1871.5
529.637,1870.7
529.806,1868.8
529.974,1869.9
530.143,1870.3
530.311,1869.4
530.48,1872.2
530.648,1870.5
530.816,1873.1
530.985,1875.3
531.153,1881.0
531.322,1890.0
531.49,1909.1
531.658,2030.4
531.827,3973.9
531.995,11036.1
532.164,10368.6
532.332,3183.3
532.5,1898.2
532.669,1881.9
532.837,1885.0
533.006,1887.7
533.174,1895.4
533.342,1937.3
533.511,2214.4
533.679,4364.6
533.847,8576.3
534.016,11525.7
534.184,12231.4
534.352,11643.8
534.521,10851.6
534.689,10149.9
534.857,9622.8
535.025,9078.6
535.194,8649.7
535.362,8270.0
535.53,7705.6
535.699,7213.5
535.867,6754.4
536.035,6278.6
536.203,6092.6
536.372,5880.7
536.54,5791.5
536.708,5794.2
536.876,5546.1
537.044,5472.0
537.213,5439.9
537.381,5276.7
537.549,5254.9
537.717,5224.2
537.885,5197.0
538.054,5118.6
538.222,5176.6
538.39,5229.6
538.558,5106.4
538.726,5119.2
538.894,5166.2
539.063,5160.2
539.231,5334.7
539.399,5362.2
539.567,5413.3
539.735,5640.3
539.903,5778.4
540.071,5685.2
540.239,5551.3
540.408,5406.4
540.576,5402.7
540.744,5373.3
540.912,5277.2
541.08,5137.5
541.248,5147.3
541.416,5216.2
541.584,5168.9
541.752,5216.9
541.92,5179.9
542.088,5114.8
542.256,5211.8
542.424,5261.3
542.592,5245.8
542.76,5236.3
542.928,5322.0
543.096,5325.3
543.264,5374.6
543.432,5325.2
543.6,5357.7
543.768,5331.2
543.936,5436.8
544.104,5508.7
544.272,5456.3
544.44,5319.6
544.608,5367.1
544.776,5463.1
544.944,5496.7
545.112,5461.8
545.28,5534.3
545.448,5471.1
545.616,5475.3
545.784,5598.9
545.951,5616.2
546.119,5560.4
546.287,5559.8
546.455,5658.2
546.623,5655.3
546.791,5700.7
546.959,5634.4
547.127,5630.5
547.294,5725.5
547.462,5664.1
547.63,5673.4
547.798,5845.1
547.966,5783.4
548.134,5819.7
548.301,5833.0
548.469,5928.1
548.637,6061.4
548.805,6044.9
548.972,6072.1
549.14,5875.3
549.308,5828.7
549.476,5888.2
549.644,5973.5
549.811,5872.8
549.979,6021.7
550.147,6094.3
550.315,6401.7
550.482,7876.5
550.65,9441.6
550.818,7871.0
550.985,6455.6
551.153,6205.4
551.321,6172.3
551.488,6161.4
551.656,6356.4
551.824,6226.2
551.991,6300.7
552.159,6412.6
552.327,6388.8
552.494,6420.6
552.662,7018.7
552.83,7263.8
552.997,6891.9
553.165,6508.2
553.333,6368.1
553.5,6444.0
553.668,6404.5
553.835,6531.9
554.003,6523.5
554.171,6498.5
554.338,6548.3
554.506,6589.9
554.673,6756.9
554.841,6706.5
555.008,6780.6
555.176,6977.6
555.343,7199.0
555.511,7424.2
555.679,7428.5
555.846,7499.5
556.014,7372.6
556.181,7521.2
556.349,7565.8
556.516,7611.0
556.684,7669.1
556.851,7739.2
557.018,7937.7
557.186,8843.3
557.353,10555.9
557.521,12435.8
557.688,12733.9
557.856,10581.0
558.023,8466.7
558.191,8097.0
558.358,7979.1
558.525,7807.9
558.693,7697.5
558.86,7584.6
559.028,7569.8
559.195,7366.4
559.362,7364.8
559.53,7265.8
559.697,7251.8
559.864,7194.1
560.032,7176.2
560.199,7364.1
560.366,7266.0
560.534,7271.3
560.701,7334.9
560.868,7558.5
561.036,7555.8
561.203,7733.5
561.37,7846.2
561.538,7970.3
561.705,8203.5
561.872,8618.7
562.039,8963.6
562.207,8831.9
562.374,8451.9
562.541,8167.0
562.708,8069.3
562.876,8031.9
563.043,7960.9
563.21,7918.6
563.377,7965.3
563.545,7784.3
563.712,7878.0
563.879,7898.1
564.046,8090.0
564.213,8259.5
564.38,8484.1
564.548,8823.9
564.715,9591.8
564.882,10395.0
565.049,11244.2
565.216,11290.4
565.383,10370.6
565.551,10558.6
565.718,10638.0
565.885,10707.3
566.052,9948.3
566.219,9278.3
566.386,8913.9
566.553,8560.2
566.72,8460.8
566.887,8227.9
567.054,8229.5
567.221,8516.2
567.388,8904.2
567.555,9371.2
567.722,9642.0
567.889,9746.6
568.057,9262.3
568.224,8893.9
568.391,8765.8
568.558,8510.2
568.725,8319.7
568.892,8400.2
569.058,8470.4
569.225,8521.5
569.392,8602.5
569.559,8810.0
569.726,8852.2
569.893,8875.3
570.06,8944.3
570.227,9298.1
570.394,9798.6
570.561,10609.9
570.728,11561.9
570.895,13148.1
571.062,14782.6
571.229,16299.1
571.395,17174.7
571.562,15520.1
571.729,13912.3
571.896,12178.7
572.063,11429.7
572.23,10736.6
572.397,9946.9
572.563,9688.6
572.73,9401.3
572.897,9109.7
573.064,9275.9
573.231,9106.3
573.397,9102.6
573.564,9093.7
573.731,8966.2
573.898,9230.8
574.064,9196.1
574.231,9122.9
574.398,9160.7
574.565,9075.3
574.731,9178.8
574.898,9372.7
575.065,9572.5
575.232,10207.0
575.398,10654.3
575.565,10565.6
575.732,9917.3
575.898,9564.5
576.065,9359.4
576.232,9762.3
576.398,9807.0
576.565,10106.3
576.732,9937.9
576.898,10281.3
577.065,10020.0
577.232,9970.7
577.398,9652.5
577.565,9508.9
577.731,9282.1
577.898,9210.4
578.065,9160.1
578.231,9118.1
578.398,9278.9
578.564,9174.1
578.731,9373.6
578.897,9317.7
579.064,9293.2
579.23,9316.8
579.397,9448.5
579.563,9405.3
579.73,9351.1
579.896,9496.0
580.063,9433.4
580.229,9545.0
580.396,9615.5
580.562,9831.0
580.729,9981.1
580.895,10455.7
581.062,10056.3
581.228,10425.4
581.395,10925.3
581.561,12709.6
581.728,16465.7
581.894,24293.9
582.06,34612.6
582.227,35769.3
582.393,24354.1
582.56,14143.5
582.726,11302.5
582.892,10602.4
583.059,10477.1
583.225,9993.2
583.391,9886.5
583.558,9868.9
583.724,9804.9
583.89,9805.9
584.057,9830.5
584.223,9937.6
584.389,10155.5
584.556,10126.6
584.722,10038.7
584.888,10203.4
585.054,10498.8
585.221,10922.8
585.387,12553.0
585.553,15366.3
585.719,19525.2
585.886,22956.4
586.052,24800.2
586.218,22352.9
586.384,18900.4
586.55,15238.1
586.717,13094.2
586.883,11530.2
587.049,10788.2
587.215,10463.2
587.381,10376.5
587.548,10028.9
587.714,10060.8
587.88,10059.0
588.046,10218.3
588.212,10045.6
588.378,10117.3
588.544,9888.9
588.71,10044.0
588.876,9802.7
589.043,9867.9
589.209,10116.8
589.375,10011.9
589.541,9729.7
589.707,9985.2
589.873,9674.7
590.039,9667.0
590.205,9811.4
590.371,9860.8
590.537,9852.0
590.703,9857.5
590.869,9819.6
591.035,9827.8
591.201,9993.1
591.367,10007.5
591.533,9924.2
591.699,9912.1
591.865,10031.4
592.031,9947.1
592.197,9859.9
592.363,9973.9
592.529,9978.6
592.694,9929.5
592.86,10102.4
593.026,10032.0
593.192,9923.0
593.358,9900.6
593.524,9946.2
593.69,10066.5
593.856,9894.6
594.021,9872.6
594.187,9853.8
594.353,10042.3
594.519,10058.6
594.685,10115.7
594.851,10058.8
595.016,10108.9
595.182,10032.5
595.348,10201.4
595.514,10026.8
595.68,10230.7
595.845,10407.6
596.011,10208.6
596.177,10303.4
596.342,10259.1
596.508,10137.9
596.674,10301.4
596.84,10260.1
597.005,10191.5
597.171,10445.0
597.337,10256.7
597.502,10194.2
597.668,10421.9
597.834,10256.4
597.999,10404.0
598.165,10264.8
598.331,10442.8
598.496,10446.4
598.662,10377.8
598.828,10358.3
598.993,10345.0
599.159,10557.6
599.324,10230.4
599.49,10399.9
599.656,10704.2
599.821,10577.8
599.987,10565.0
600.152,10470.0
600.318,10557.9
600.483,10566.3
600.649,10299.1
600.814,10654.2
600.98,10890.5
601.145,10706.8
601.311,10540.3
601.476,10649.8
601.642,10819.7
601.807,10626.0
601.973,10689.4
602.138,10623.9
602.304,10934.4
602.469,10646.4
602.635,10739.6
602.8,10798.6
602.965,10787.9
603.131,10959.4
603.296,10964.1
603.462,10654.2
603.627,11042.2
603.792,10847.0
603.958,11001.8
604.123,11016.9
604.288,10894.5
604.454,10999.9
604.619,10982.8
604.784,10912.0
604.95,11074.4
605.115,11000.2
605.28,11130.0
605.446,11029.6
605.611,11054.2
605.776,11280.6
605.941,11247.2
606.107,11135.3
606.272,11236.2
606.437,11254.1
606.602,11257.7
606.767,11404.0
606.933,11451.2
607.098,11281.8
607.263,11212.0
607.428,11374.8
607.593,11624.1
607.759,11220.4
607.924,11329.1
608.089,11527.4
608.254,11627.5
608.419,11436.9
608.584,11465.7
608.749,11647.2
608.915,11725.2
609.08,11524.2
609.245,11505.6
609.41,11594.5
609.575,11812.3
609.74,11890.3
609.905,11800.3
610.07,11976.5
610.235,11734.3
610.4,11718.1
610.565,11987.7
610.73,12187.0
610.895,11989.4
611.06,11730.1
611.225,11874.8
611.39,11961.5
611.555,12102.7
611.72,12076.7
611.885,12171.9
612.05,12252.7
612.215,11994.0
612.38,12096.0
612.545,12298.4
612.71,12535.6
612.875,12125.1
613.04,12234.6
613.204,12236.2
613.369,12517.3
613.534,12490.5
613.699,12425.9
613.864,12137.7
614.029,12538.3
614.194,12686.8
614.358,12726.1
614.523,12576.4
614.688,12622.8
614.853,12524.6
615.018,12612.5
615.182,12959.9
615.347,13017.7
615.512,12794.4
615.677,13002.9
615.841,12972.8
616.006,12980.6
616.171,12886.8
616.336,12864.7
616.5,13011.6
616.665,13109.9
616.83,13095.1
616.994,13272.9
617.159,13242.5
617.324,13269.0
617.489,13151.8
617.653,13683.5
617.818,13510.7
617.982,13520.9
618.147,13543.3
618.312,13560.2
618.476,13529.3
618.641,13809.5
618.805,13739.9
618.97,13518.0
619.135,13704.6
619.299,13473.7
619.464,13642.3
619.628,14001.8
619.793,13688.1
619.957,13745.4
620.122,13938.0
620.286,13721.8
620.451,13435.2
620.615,13838.5
620.78,13989.8
620.944,13810.7
621.109,13896.0
621.273,13751.2
621.438,14092.2
621.602,14036.0
621.767,13873.3
621.931,14052.2
622.095,14285.2
622.26,13986.4
622.424,14134.7
622.589,14210.9
622.753,14076.7
622.917,14246.5
623.082,14359.2
623.246,14171.1
623.41,14174.4
623.575,14655.5
623.739,14706.7
623.903,14189.8
624.068,14563.5
624.232,14699.7
624.396,14667.9
624.561,14471.6
624.725,14544.0
624.889,14453.8
625.053,14785.7
625.218,14778.6
625.382,14696.6
625.546,14789.4
625.71,14734.7
625.875,15011.5
626.039,14672.5
626.203,14996.4
626.367,14850.0
626.531,14660.3
626.695,14652.3
626.86,14996.5
627.024,14986.7
627.188,14378.7
627.352,14861.0
627.516,15275.7
627.68,15067.5
627.844,14982.2
628.008,15252.6
628.172,15120.7
628.337,15274.5
628.501,15314.3
628.665,15485.7
628.829,15363.1
628.993,15551.0
629.157,15693.0
629.321,15957.1
629.485,15898.7
629.649,15775.1
629.813,16111.3
629.977,16043.2
630.141,15730.8
630.305,16109.3
630.469,15365.8
630.633,15982.9
630.797,15935.9
630.96,16296.0
631.124,16560.7
631.288,16590.6
631.452,16862.4
631.616,17544.0
631.78,17627.4
631.944,17915.6
632.108,18050.3
632.272,17318.4
632.435,17331.4
632.599,16804.5
632.763,17167.3
632.927,17203.8
633.091,17111.8
633.254,16943.1
633.418,16652.5
633.582,16831.5
633.746,16597.1
633.91,16696.0
634.073,16736.2
634.237,16154.0
634.401,15485.7
634.564,16299.6
634.728,16124.0
634.892,16306.2
635.056,16193.3
635.219,16241.8
635.383,16231.6
635.547,16569.7
635.71,16657.6
635.874,17528.8
636.038,17798.8
636.201,19319.7
636.365,20148.7
636.528,20514.7
636.692,19735.6
636.856,18777.3
637.019,17626.5
637.183,17499.3
637.346,16827.7
637.51,16466.3
637.673,16299.7
637.837,16402.1
638.0,16233.1
638.164,16208.7
638.327,16346.7
638.491,16264.7
638.654,15957.4
638.818,16391.7
638.981,16257.1
639.145,16083.8
639.308,16047.4
639.472,16029.1
639.635,15768.3
639.799,16105.4
639.962,15599.1
640.125,15809.7
640.289,15887.6
640.452,16019.2
640.616,15987.5
640.779,16029.7
640.942,16102.6
641.106,15686.2
641.269,15807.0
641.432,15938.9
641.596,15562.7
641.759,16197.4
641.922,15868.1
642.085,16368.0
642.249,15943.5
642.412,15930.2
642.575,16388.5
642.738,16107.6
642.902,15692.4
643.065,15672.6
643.228,15848.6
643.391,15722.7
643.555,16148.0
643.718,15951.7
643.881,15582.1
644.044,15598.0
644.207,16247.8
644.37,15796.9
644.534,15990.8
644.697,15535.0
644.86,15284.9
645.023,15871.0
645.186,16019.3
645.349,15841.5
645.512,15794.0
645.675,15501.0
645.838,15742.4
646.001,15856.3
646.164,15602.4
646.327,15602.8
646.49,15551.4
646.653,15706.0
646.816,15556.8
646.979,15490.2
647.142,15687.1
647.305,15787.1
647.468,15234.8
647.631,15649.6
647.794,15601.4
647.957,15479.3
648.12,15684.8
648.283,15115.9
648.446,15457.7
648.609,15210.3
648.772,15154.0
648.935,15434.2
649.098,15394.0
649.26,15140.6
649.423,15172.6
649.586,15049.6
649.749,15001.5
649.912,15398.7
650.075,15088.7
650.237,14989.7
650.4,14998.2
650.563,14962.7
650.726,14997.3
650.888,14862.7
651.051,14921.1
651.214,15462.0
651.377,15108.0
651.539,15226.1
651.702,14991.4
651.865,14578.1
652.027,14992.4
652.19,15086.7
652.353,14512.8
652.515,14660.2
652.678,14689.9
652.841,14615.3
653.003,14758.2
653.166,14501.0
653.329,14800.9
653.491,14672.2
653.654,14464.7
653.816,14650.1
653.979,14132.8
654.142,14164.3
654.304,14310.0
654.467,14563.3
654.629,13881.9
654.792,13968.4
654.954,14481.0
655.117,14417.0
655.279,14029.3
655.442,13912.6
655.604,14271.2
655.767,14447.5
655.929,14433.2
656.091,13964.6
656.254,14105.5
656.416,14149.8
656.579,14033.5
656.741,13988.1
656.904,13904.6
657.066,13675.3
657.228,13837.1
657.391,14161.7
657.553,13331.0
657.715,13457.9
657.878,13210.3
658.04,13498.8
658.202,13519.1
658.365,13335.7
658.527,13138.4
658.689,13253.3
658.851,13405.2
659.014,13068.6
659.176,12762.6
659.338,13155.9
659.5,13175.7
659.663,12999.3
659.825,12697.3
659.987,12850.3
660.149,12926.1
660.311,13052.2
660.474,12947.3
660.636,12800.5
660.798,13067.6
660.96,13299.9
661.041,12852.1