File: spectra/VLFR_06-PET_bio_Raman_da42305d.csv
nm,Intensity
528.635,1842.3
528.803,1840.3
528.972,1841.2
529.14,1841.3
529.308,1842.6
529.477,1843.9
529.645,1841.4
529.814,1842.3
529.982,1843.6
530.151,1842.1
530.319,1844.8
530.487,1842.0
530.656,1844.8
530.824,1842.9
530.993,1844.5
531.161,1846.8
531.329,1847.2
531.498,1853.8
531.666,1889.8
531.835,2275.9
532.003,4089.5
532.171,3735.2
532.34,2043.3
532.508,1852.3
532.676,1851.0
532.845,1852.2
533.013,1856.9
533.181,1864.7
533.35,1906.4
533.518,2297.2
533.686,4786.2
533.854,9213.7
534.023,11520.2
534.191,11141.6
534.359,10317.5
534.528,9670.6
534.696,9014.3
534.864,8068.8
535.032,7238.9
535.201,6652.1
535.369,6099.0
535.537,5494.4
535.705,4965.6
535.874,4509.4
536.042,4104.4
536.21,3889.4
536.378,3751.1
536.546,3597.7
536.715,3477.2
536.883,3404.5
537.051,3374.6
537.219,3322.1
537.387,3295.1
537.556,3234.4
537.724,3274.3
537.892,3227.6
538.06,3241.8
538.228,3302.0
538.396,3318.0
538.565,3290.5
538.733,3287.5
538.901,3225.4
539.069,3286.8
539.237,3346.9
539.405,3429.3
539.573,3485.8
539.741,3603.7
539.909,3559.6
540.077,3474.9
540.246,3341.6
540.414,3244.1
540.582,3148.9
540.75,3114.3
540.918,3091.0
541.086,3033.5
541.254,2973.9
541.422,2986.7
541.59,3012.4
541.758,3002.9
541.926,2971.9
542.094,3005.7
542.262,3003.0
542.43,2994.3
542.598,3037.2
542.766,3049.4
542.934,3036.4
543.102,3006.3
543.27,3024.5
543.438,3006.5
543.606,3022.5
543.774,3118.8
543.942,3120.9
544.11,3083.1
544.278,3075.6
544.445,3094.4
544.613,3093.8
544.781,3085.4
544.949,3102.8
545.117,3134.4
545.285,3124.1
545.453,3087.9
545.621,3115.1
545.789,3141.7
545.957,3157.5
546.124,3174.1
546.292,3194.2
546.46,3147.3
546.628,3181.5
546.796,3193.5
546.964,3137.0
547.131,3194.7
547.299,3166.5
547.467,3225.9
547.635,3222.9
547.803,3263.0
547.97,3237.3
548.138,3271.0
548.306,3297.8
548.474,3261.6
548.642,3297.6
548.809,3290.1
548.977,3270.7
549.145,3309.5
549.313,3272.4
549.48,3303.5
549.648,3279.2
549.816,3281.8
549.983,3311.0
550.151,3355.3
550.319,3565.4
550.487,4285.1
550.654,4937.2
550.822,4117.0
550.99,3463.2
551.157,3444.9
551.325,3456.0
551.493,3424.2
551.66,3480.3
551.828,3447.0
551.996,3487.8
552.163,3529.8
552.331,3461.2
552.499,3536.1
552.666,4004.2
552.834,4149.4
553.001,3899.4
553.169,3623.9
553.337,3570.4
553.504,3538.1
553.672,3614.7
553.839,3556.9
554.007,3581.0
554.174,3622.8
554.342,3647.9
554.509,3652.9
554.677,3626.5
554.845,3653.2
555.012,3687.3
555.18,3808.2
555.347,3995.4
555.515,4348.3
555.682,4447.0
555.85,4326.9
556.017,4440.9
556.185,4417.3
556.352,4455.5
556.52,4572.2
556.687,4561.9
556.854,4590.5
557.022,4844.4
557.189,5268.1
557.357,5935.6
557.524,6497.6
557.692,6027.6
557.859,5254.8
558.026,4885.2
558.194,4855.0
558.361,4921.8
558.529,4839.8
558.696,4676.9
558.863,4550.8
559.031,4367.0
559.198,4237.1
559.365,4167.1
559.533,4048.1
559.7,4057.6
559.867,4079.0
560.035,4064.5
560.202,4081.3
560.369,3981.4
560.537,4068.1
560.704,4094.8
560.871,4137.8
561.039,4204.0
561.206,4159.1
561.373,4208.9
561.54,4287.2
561.708,4341.0
561.875,4294.6
562.042,4462.7
562.209,4502.1
562.377,4450.5
562.544,4498.5
562.711,4527.2
562.878,4607.1
563.046,4612.5
563.213,4693.1
563.38,4653.5
563.547,4537.4
563.714,4460.9
563.881,4514.4
564.049,4516.9
564.216,4502.0
564.383,4566.6
564.55,4744.6
564.717,4754.1
564.884,5043.2
565.052,5366.1
565.219,5534.5
565.386,5756.5
565.553,5939.2
565.72,6066.6
565.887,6160.7
566.054,5828.0
566.221,5517.5
566.388,5127.0
566.555,4866.6
566.722,4830.5
566.889,4677.2
567.056,4687.6
567.224,4818.4
567.391,5049.3
567.558,5469.1
567.725,5617.3
567.892,5333.7
568.059,5087.4
568.226,4865.1
568.393,4819.4
568.56,4903.2
568.727,4845.1
568.893,4813.1
569.06,4910.9
569.227,4937.8
569.394,4947.3
569.561,5143.7
569.728,5167.6
569.895,5248.3
570.062,5454.3
570.229,5601.5
570.396,5900.2
570.563,6407.5
570.73,6928.6
570.897,7308.8
571.063,8068.5
571.23,8350.3
571.397,8500.1
571.564,7850.9
571.731,7231.5
571.898,6731.6
572.064,6480.7
572.231,6103.7
572.398,5702.2
572.565,5505.2
572.732,5418.7
572.899,5346.8
573.065,5243.4
573.232,5278.5
573.399,5288.8
573.566,5333.0
573.732,5407.8
573.899,5499.3
574.066,5593.3
574.233,5519.2
574.399,5526.5
574.566,5436.6
574.733,5455.1
574.9,5495.4
575.066,5648.3
575.233,5910.8
575.4,6003.5
575.566,5752.5
575.733,5584.2
575.9,5620.4
576.066,5719.8
576.233,5895.7
576.4,6007.7
576.566,6054.7
576.733,6151.5
576.899,5966.3
577.066,5803.4
577.233,5708.0
577.399,5590.9
577.566,5593.7
577.732,5651.3
577.899,5455.1
578.066,5578.6
578.232,5590.4
578.399,5621.2
578.565,5681.7
578.732,5594.1
578.898,5491.3
579.065,5716.7
579.231,5642.4
579.398,5723.2
579.564,5741.4
579.731,5809.8
579.897,5622.4
580.064,5779.0
580.23,5800.5
580.397,5889.5
580.563,5908.9
580.73,6011.0
580.896,6133.7
581.063,6125.2
581.229,6157.8
581.396,6609.8
581.562,7185.6
581.728,8837.4
581.895,12583.2
582.061,17551.4
582.228,16745.0
582.394,11189.8
582.56,7402.5
582.727,6493.3
582.893,6242.4
583.059,6184.1
583.226,6102.9
583.392,6055.9
583.558,6053.9
583.725,6110.6
583.891,6216.7
584.057,6179.8
584.224,6176.0
584.39,6234.9
584.556,6392.0
584.722,6261.3
584.889,6377.1
585.055,6619.4
585.221,7370.8
585.387,8074.4
585.554,10022.6
585.72,12064.1
585.886,12939.7
586.052,12846.3
586.219,12024.4
586.385,10433.1
586.551,8826.2
586.717,7588.2
586.883,6840.9
587.049,6653.2
587.216,6486.5
587.382,6550.4
587.548,6317.5
587.714,6293.9
587.88,6386.1
588.046,6394.5
588.212,6358.0
588.379,6258.1
588.545,6326.9
588.711,6331.1
588.877,6356.4
589.043,6312.6
589.209,6370.0
589.375,6282.9
589.541,6238.6
589.707,6314.8
589.873,6346.0
590.039,6204.2
590.205,6265.8
590.371,6326.9
590.537,6211.6
590.703,6373.9
590.869,6229.5
591.035,6374.2
591.201,6371.0
591.367,6305.0
591.533,6456.4
591.699,6331.9
591.865,6431.8
592.031,6411.3
592.197,6531.2
592.363,6369.6
592.529,6357.9
592.695,6398.4
592.86,6347.6
593.026,6497.2
593.192,6431.2
593.358,6405.1
593.524,6489.8
593.69,6424.9
593.856,6409.2
594.022,6480.2
594.187,6340.1
594.353,6477.3
594.519,6631.9
594.685,6516.2
594.851,6427.6
595.016,6533.1
595.182,6421.4
595.348,6525.5
595.514,6669.7
595.679,6577.5
595.845,6652.5
596.011,6512.2
596.177,6600.7
596.342,6630.2
596.508,6499.0
596.674,6566.8
596.84,6733.0
597.005,6540.5
597.171,6452.1
597.337,6620.2
597.502,6710.0
597.668,6578.9
597.834,6647.5
597.999,6590.7
598.165,6589.3
598.331,6646.2
598.496,6685.8
598.662,6529.9
598.827,6663.1
598.993,6623.8
599.159,6729.6
599.324,6683.0
599.49,6587.2
599.655,6800.7
599.821,6702.8
599.987,6791.7
600.152,6695.7
600.318,6636.1
600.483,6810.5
600.649,6586.7
600.814,6652.8
600.98,6732.6
601.145,6762.5
601.311,6705.1
601.476,6793.2
601.642,6673.9
601.807,6750.5
601.973,6731.5
602.138,6724.0
602.303,6724.0
602.469,6772.7
602.634,6774.8
602.8,6796.7
602.965,6832.3
603.13,6830.0
603.296,6741.4
603.461,6838.4
603.627,6778.8
603.792,6693.9
603.957,6885.9
604.123,6840.5
604.288,6710.8
604.453,6829.9
604.619,6868.0
604.784,6842.6
604.949,6778.1
605.115,6780.9
605.28,6692.2
605.445,6893.0
605.61,6743.8
605.776,6799.2
605.941,6782.9
606.106,6876.6
606.272,6902.9
606.437,6854.1
606.602,6778.3
606.767,6882.1
606.932,6854.5
607.098,6819.3
607.263,6871.1
607.428,6828.8
607.593,6862.8
607.758,6802.4
607.923,6863.2
608.089,6826.5
608.254,6899.3
608.419,6912.9
608.584,6852.4
608.749,6844.5
608.914,6913.4
609.079,6854.7
609.244,6798.6
609.41,6887.1
609.575,6867.2
609.74,6805.4
609.905,6894.2
610.07,6852.8
610.235,6989.3
610.4,6976.1
610.565,6929.9
610.73,6871.5
610.895,6993.7
611.06,6842.3
611.225,6719.0
611.39,6908.2
611.555,6999.7
611.72,6972.9
611.885,6903.7
612.05,6894.7
612.215,6972.6
612.38,6880.8
612.545,6952.5
612.709,6935.9
612.874,6961.6
613.039,6957.1
613.204,6967.6
613.369,6745.5
613.534,6962.6
613.699,6990.0
613.864,6959.8
614.028,7003.5
614.193,6990.6
614.358,7023.1
614.523,6889.1
614.688,6992.5
614.853,7047.3
615.017,7001.6
615.182,6960.8
615.347,7074.4
615.512,7081.4
615.676,6971.1
615.841,7049.2
616.006,7153.1
616.171,7059.5
616.335,7133.4
616.5,7044.4
616.665,7093.0
616.829,7070.7
616.994,7040.7
617.159,7071.1
617.324,7147.4
617.488,7069.4
617.653,7171.0
617.818,7237.6
617.982,7279.8
618.147,7242.1
618.311,7130.3
618.476,7207.3
618.641,7181.5
618.805,7126.4
618.97,7187.7
619.134,7280.6
619.299,7212.6
619.463,7295.5
619.628,7090.5
619.793,7189.2
619.957,7191.1
620.122,7196.3
620.286,7270.6
620.451,7114.1
620.615,7239.4
620.78,7214.1
620.944,7274.8
621.109,7170.7
621.273,7075.3
621.438,7160.9
621.602,7453.4
621.766,7228.3
621.931,7254.1
622.095,7243.7
622.26,7117.9
622.424,7325.8
622.588,7458.6
622.753,7288.0
622.917,7352.9
623.082,7357.5
623.246,7277.2
623.41,7423.3
623.575,7367.8
623.739,7362.4
623.903,7284.7
624.068,7475.6
624.232,7487.6
624.396,7561.3
624.56,7510.2
624.725,7642.4
624.889,7502.2
625.053,7543.0
625.218,7487.2
625.382,7428.3
625.546,7506.3
625.71,7671.7
625.874,7553.0
626.039,7541.5
626.203,7651.2
626.367,7396.4
626.531,7574.8
626.695,7396.2
626.86,7454.3
627.024,7600.2
627.188,7612.8
627.352,7685.6
627.516,7702.5
627.68,7541.8
627.844,7780.3
628.008,7720.3
628.172,7782.6
628.337,7943.8
628.501,7873.9
628.665,7968.6
628.829,8235.8
628.993,8136.8
629.157,8234.1
629.321,8058.2
629.485,8133.0
629.649,8268.1
629.813,8073.7
629.977,8133.7
630.141,8042.3
630.305,8006.1
630.469,8135.3
630.633,8289.9
630.797,8587.0
630.961,8719.6
631.124,9021.3
631.288,9500.5
631.452,9782.1
631.616,10315.5
631.78,10466.5
631.944,10065.3
632.108,9825.8
632.272,9700.1
632.436,9352.1
632.599,9163.5
632.763,9160.2
632.927,8973.0
633.091,9234.3
633.255,9112.6
633.418,8804.1
633.582,8939.1
633.746,8886.5
633.91,8796.5
634.074,8522.5
634.237,8568.7
634.401,8708.2
634.565,8453.3
634.728,8359.6
634.892,8406.1
635.056,8588.5
635.22,8544.3
635.383,8643.5
635.547,8783.7
635.711,9038.6
635.874,9342.7
636.038,9467.4
636.202,10082.1
636.365,10509.6
636.529,10980.3
636.692,10923.1
636.856,9884.2
637.02,9574.9
637.183,9155.0
637.347,8921.7
637.51,8874.8
637.674,8673.2
637.837,8731.6
638.001,8695.8
638.164,8608.0
638.328,8804.8
638.491,8413.6
638.655,8469.7
638.818,8505.8
638.982,8657.0
639.145,8593.9
639.309,8551.3
639.472,8795.7
639.636,8346.3
639.799,8613.7
639.963,8574.7
640.126,8701.1
640.289,8519.8
640.453,8413.1
640.616,8607.5
640.78,8497.9
640.943,8554.9
641.106,8529.6
641.27,8529.2
641.433,8482.5
641.596,8594.1
641.76,8494.2
641.923,8699.6
642.086,8807.7
642.249,8601.0
642.413,8811.8
642.576,8822.9
642.739,8595.5
642.903,8395.3
643.066,8604.6
643.229,8443.6
643.392,8728.9
643.555,8466.6
643.719,8507.2
643.882,8801.2
644.045,8605.4
644.208,8786.6
644.371,8658.5
644.534,8433.9
644.698,8454.2
644.861,8530.8
645.024,8671.3
645.187,8535.5
645.35,8649.3
645.513,8622.7
645.676,8710.7
645.839,8751.0
646.002,8582.5
646.165,8668.5
646.329,8496.6
646.492,8806.5
646.655,8581.1
646.818,8652.2
646.981,8801.9
647.144,8569.9
647.307,8537.3
647.47,8715.5
647.633,8602.5
647.796,8649.5
647.958,8660.5
648.121,8672.4
648.284,8406.9
648.447,8400.9
648.61,8426.8
648.773,8480.1
648.936,8438.8
649.099,8605.6
649.262,8528.1
649.425,8191.8
649.587,8361.5
649.75,8617.4
649.913,8482.1
650.076,8397.9
650.239,8447.1
650.402,8264.8
650.564,8658.3
650.727,8594.0
650.89,8317.4
651.053,8470.2
651.215,8340.7
651.378,8476.5
651.541,8154.0
651.704,8416.8
651.866,8297.2
652.029,8177.1
652.192,8350.0
652.354,8277.4
652.517,8102.7
652.68,8347.5
652.842,8183.6
653.005,8100.9
653.168,8054.4
653.33,8230.0
653.493,7778.5
653.656,8077.1
653.818,8083.0
653.981,7985.7
654.143,7942.0
654.306,8060.2
654.468,7970.5
654.631,7892.9
654.794,8182.3
654.956,8100.1
655.119,8104.5
655.281,8110.6
655.444,7835.2
655.606,8015.2
655.769,8048.1
655.931,7906.9
656.093,7992.5
656.256,7987.6
656.418,7726.7
656.581,7797.3
656.743,7675.2
656.906,7678.1
657.068,7834.5
657.23,7942.7
657.393,7682.2
657.555,7643.8
657.718,7729.0
657.88,7470.0
658.042,7573.4
658.205,7584.7
658.367,7526.4
658.529,7427.6
658.691,7424.5
658.854,7498.7
659.016,7387.0
659.178,7290.3
659.341,7373.1
659.503,7197.7
659.665,7216.6
659.827,7258.1
659.989,7201.2
660.152,7149.2
660.314,7276.1
660.476,7236.6
660.638,7368.4
660.8,7242.6
660.963,7160.9
661.044,7147.3