File: spectra/VLFR_01-LDPE_nobio_Raman_e2076e4c.csv
cm-1,Intensity
-123.878,1852.5
-117.855,1853.9
-111.836,1852.75
-105.821,1852.95
-99.8104,1854.45
-93.8036,1854.5
-87.8007,1854.25
-81.8019,1855.35
-75.807,1854.15
-69.8161,1853.15
-63.8293,1854.95
-57.8464,1854.7
-51.8675,1853.2
-45.8926,1854.9
-39.9216,1854.0
-33.9547,1854.8
-27.9917,1854.6
-22.0326,1858.35
-16.0776,1870.3
-10.1265,2087.7
-4.17932,2811.45
1.76388,2702.25
7.70313,1926.45
13.6384,1856.75
19.5698,1853.8
25.4972,1854.05
31.4207,1854.2
37.3403,1855.35
43.256,1856.75
49.1677,1869.25
55.0755,1940.15
60.9794,2071.2
66.8794,2163.9
72.7754,2192.05
78.6676,2202.2
84.5559,2204.15
90.4402,2212.65
96.3207,2225.35
102.197,2207.6
108.07,2221.3
113.939,2231.15
119.804,2243.0
125.665,2233.85
131.522,2224.05
137.375,2218.9
143.225,2217.7
149.07,2224.25
154.912,2223.85
160.75,2231.5
166.584,2224.25
172.414,2226.35
178.241,2218.8
184.063,2246.6
189.882,2242.0
195.697,2245.6
201.508,2243.8
207.315,2249.0
213.119,2243.1
218.918,2242.7
224.714,2248.85
230.506,2236.6
236.294,2247.4
242.078,2256.75
247.859,2253.25
253.636,2248.05
259.409,2264.55
265.178,2265.75
270.943,2254.6
276.705,2270.45
282.463,2253.4
288.217,2264.1
293.967,2263.1
299.713,2259.25
305.456,2272.65
311.195,2272.55
316.93,2268.85
322.662,2263.55
328.389,2265.35
334.113,2277.75
339.834,2281.95
345.55,2279.0
351.263,2285.3
356.972,2276.6
362.677,2287.15
368.379,2290.3
374.077,2296.7
379.771,2272.2
385.461,2280.8
391.148,2281.9
396.831,2291.8
402.51,2293.3
408.186,2296.6
413.858,2297.4
419.526,2289.4
425.19,2281.25
430.851,2297.95
436.508,2302.65
442.162,2305.55
447.811,2301.7
453.458,2299.45
459.1,2287.0
464.739,2299.8
470.374,2302.3
476.005,2311.3
481.633,2317.25
487.257,2326.6
492.878,2301.4
498.494,2307.3
504.107,2321.35
509.717,2329.05
515.323,2317.85
520.925,2301.7
526.524,2321.0
532.119,2318.95
537.71,2319.5
543.298,2330.65
548.882,2337.8
554.462,2337.65
560.039,2334.15
565.613,2331.7
571.182,2342.1
576.748,2339.2
582.311,2330.3
587.87,2331.55
593.425,2346.2
598.977,2334.65
604.525,2336.1
610.069,2329.35
615.61,2352.7
621.148,2338.0
626.682,2333.7
632.212,2352.95
637.739,2340.05
643.262,2362.75
648.781,2354.4
654.297,2354.35
659.81,2381.1
665.319,2358.7
670.824,2361.95
676.326,2365.0
681.824,2376.25
687.319,2367.1
692.81,2359.35
698.298,2375.7
703.782,2344.05
709.262,2361.55
714.739,2374.75
720.213,2368.25
725.683,2362.85
731.15,2373.45
736.613,2394.3
742.072,2385.4
747.528,2366.45
752.981,2370.7
758.43,2377.5
763.875,2368.3
769.317,2390.6
774.756,2394.05
780.191,2395.3
785.623,2388.05
791.051,2403.05
796.475,2390.3
801.897,2386.5
807.314,2399.1
812.729,2411.3
818.139,2408.25
823.547,2406.7
828.951,2397.9
834.351,2395.85
839.748,2398.7
845.142,2417.7
850.532,2413.05
855.918,2413.45
861.302,2413.8
866.681,2430.55
872.058,2416.2
877.431,2418.4
882.8,2435.55
888.166,2444.6
893.529,2427.8
898.888,2422.3
904.244,2436.9
909.596,2423.05
914.945,2440.75
920.291,2444.75
925.633,2438.15
930.972,2453.45
936.308,2442.65
941.64,2446.3
946.968,2455.75
952.294,2461.65
957.615,2451.5
962.934,2455.05
968.249,2480.8
973.561,2455.7
978.869,2467.9
984.174,2474.75
989.476,2461.8
994.774,2475.35
1000.07,2470.65
1005.36,2472.2
1010.65,2492.95
1015.93,2480.45
1021.22,2502.05
1026.49,2496.25
1031.77,2491.7
1037.04,2514.6
1042.31,2497.0
1047.57,2502.1
1052.83,2521.6
1058.09,2538.4
1063.35,2549.2
1068.6,2564.55
1073.85,2529.0
1079.09,2552.75
1084.33,2537.1
1089.57,2547.55
1094.81,2552.4
1100.04,2549.3
1105.27,2537.05
1110.49,2552.3
1115.71,2551.45
1120.93,2555.85
1126.15,2567.35
1131.36,2592.3
1136.57,2571.3
1141.77,2554.25
1146.98,2551.35
1152.18,2553.0
1157.37,2557.6
1162.56,2544.8
1167.75,2565.15
1172.94,2581.55
1178.12,2582.05
1183.3,2584.55
1188.48,2580.45
1193.65,2581.8
1198.82,2596.85
1203.99,2599.3
1209.15,2587.65
1214.31,2614.8
1219.46,2601.6
1224.62,2591.2
1229.77,2608.65
1234.92,2622.55
1240.06,2629.05
1245.2,2627.25
1250.34,2604.35
1255.47,2637.6
1260.6,2657.65
1265.73,2651.05
1270.85,2639.05
1275.97,2645.85
1281.09,2648.7
1286.21,2668.35
1291.32,2712.25
1296.43,2748.75
1301.53,2733.25
1306.63,2690.9
1311.73,2697.9
1316.83,2703.35
1321.92,2707.2
1327.01,2696.0
1332.1,2673.0
1337.18,2699.45
1342.26,2708.15
1347.34,2680.75
1352.41,2707.4
1357.48,2703.25
1362.55,2699.25
1367.61,2688.0
1372.67,2708.85
1377.73,2697.7
1382.78,2704.05
1387.84,2686.9
1392.88,2689.3
1397.93,2702.05
1402.97,2695.1
1408.01,2712.25
1413.05,2731.4
1418.08,2718.35
1423.11,2731.5
1428.14,2748.6
1433.16,2791.85
1438.18,2810.95
1443.2,2792.2
1448.21,2772.95
1453.22,2777.9
1458.23,2783.45
1463.23,2757.25
1468.23,2740.85
1473.23,2734.75
1478.23,2747.6
1483.22,2733.0
1488.21,2709.65
1493.2,2722.5
1498.18,2727.9
1503.16,2721.9
1508.14,2727.85
1513.11,2742.45
1518.08,2747.7
1523.05,2758.45
1528.01,2741.95
1532.97,2759.6
1537.93,2761.0
1542.89,2759.8
1547.84,2774.95
1552.79,2794.05
1557.73,2805.0
1562.68,2773.4
1567.62,2807.95
1572.56,2804.45
1577.49,2796.7
1582.42,2827.2
1587.35,2805.5
1592.27,2808.3
1597.19,2791.65
1602.11,2799.05
1607.03,2789.0
1611.94,2770.9
1616.85,2768.4
1621.76,2755.95
1626.66,2758.9
1631.56,2766.75
1636.46,2750.5
1641.36,2752.75
1646.25,2741.7
1651.14,2736.05
1656.02,2739.4
1660.9,2720.2
1665.78,2718.15
1670.66,2737.1
1675.54,2728.8
1680.41,2740.2
1685.27,2714.45
1690.14,2724.9
1695.0,2703.75
1699.86,2703.7
1704.71,2736.7
1709.57,2710.5
1714.42,2717.0
1719.26,2713.3
1724.11,2716.8
1728.95,2726.9
1733.79,2712.95
1738.62,2716.55
1743.46,2701.05
1748.28,2747.25
1753.11,2732.5
1757.93,2721.85
1762.75,2743.05
1767.57,2728.95
1772.39,2726.5
1777.2,2742.65
1782.01,2735.7
1786.81,2755.9
1791.62,2738.95
1796.41,2724.25
1801.21,2745.3
1806.01,2760.65
1810.8,2741.95
1815.59,2705.7
1820.37,2745.6
1825.15,2721.75
1829.93,2733.15
1834.71,2731.7
1839.48,2739.15
1844.25,2746.95
1849.02,2731.65
1853.79,2760.0
1858.55,2742.4
1863.31,2755.75
1868.06,2756.25
1872.82,2762.0
1877.57,2737.6
1882.31,2745.8
1887.06,2773.6
1891.8,2756.85
1896.54,2770.25
1901.28,2803.6
1906.01,2771.3
1910.74,2769.8
1915.47,2778.7
1920.19,2773.05
1924.91,2762.75
1929.63,2794.0
1934.35,2772.6
1939.06,2777.8
1943.77,2769.95
1948.48,2777.3
1953.19,2790.95
1957.89,2775.2
1962.59,2770.95
1967.28,2780.0
1971.98,2793.2
1976.67,2789.65
1981.35,2784.6
1986.04,2805.75
1990.72,2817.4
1995.4,2793.7
2000.08,2818.3
2004.75,2829.75
2009.42,2813.6
2014.09,2814.1
2018.75,2820.85
2023.42,2834.35
2028.08,2817.25
2032.73,2823.65
2037.39,2837.0
2042.04,2832.2
2046.69,2835.25
2051.33,2840.1
2055.97,2828.85
2060.61,2834.15
2065.25,2830.65
2069.88,2861.85
2074.52,2829.95
2079.15,2848.75
2083.77,2851.1
2088.39,2870.5
2093.01,2864.0
2097.63,2877.05
2102.25,2876.65
2106.86,2864.35
2111.47,2882.45
2116.08,2861.7
2120.68,2855.95
2125.28,2887.25
2129.88,2891.15
2134.47,2881.65
2139.07,2900.5
2143.66,2884.75
2148.24,2880.9
2152.83,2886.2
2157.41,2874.65
2161.99,2867.35
2166.57,2884.1
2171.14,2897.75
2175.71,2896.85
2180.28,2913.15
2184.84,2891.25
2189.41,2907.7
2193.97,2895.25
2198.52,2912.95
2203.08,2909.15
2207.63,2876.2
2212.18,2898.8
2216.73,2878.6
2221.27,2907.75
2225.81,2896.0
2230.35,2895.95
2234.89,2902.75
2239.42,2919.3
2243.95,2881.6
2248.48,2883.6
2253.0,2903.2
2257.52,2884.5
2262.04,2919.6
2266.56,2904.1
2271.07,2897.85
2275.58,2891.15
2280.09,2915.7
2284.6,2888.4
2289.1,2905.8
2293.6,2905.05
2298.1,2910.55
2302.6,2898.45
2307.09,2867.35
2311.58,2922.6
2316.07,2939.45
2320.55,2903.05
2325.03,2915.0
2329.51,2903.6
2333.99,2913.6
2338.46,2886.85
2342.93,2897.7
2347.4,2920.8
2351.87,2890.8
2356.33,2903.4
2360.79,2909.7
2365.25,2914.05
2369.71,2907.65
2374.16,2909.3
2378.61,2890.65
2383.06,2934.7
2387.5,2910.8
2391.94,2890.15
2396.38,2909.5
2400.82,2916.4
2405.26,2930.75
2409.69,2922.5
2414.12,2952.25
2418.54,2915.15
2422.97,2957.15
2427.39,2910.45
2431.81,2944.6
2436.22,2915.95
2440.64,2942.85
2445.05,2945.1
2449.46,2941.7
2453.86,2909.9
2458.27,2911.2
2462.67,2930.45
2467.06,2916.6
2471.46,2940.3
2475.85,2937.3
2480.24,2926.1
2484.63,2933.9
2489.02,2920.6
2493.4,2961.05
2497.78,2930.8
2502.16,2921.8
2506.53,2955.55
2510.9,2943.45
2515.27,2962.4
2519.64,2965.2
2524.0,2931.05
2528.37,2966.35
2532.73,2940.85
2537.08,2934.6
2541.44,2948.6
2545.79,2962.35
2550.14,2961.35
2554.48,2954.5
2558.83,2920.75
2563.17,2948.15
2567.51,2989.15
2571.85,2972.3
2576.18,2948.55
2580.51,2937.8
2584.84,2968.45
2589.17,2948.1
2593.49,2934.35
2597.81,2997.2
2602.13,2998.45
2606.45,2948.6
2610.76,2958.0
2615.07,2978.5
2619.38,2999.9
2623.69,2981.45
2627.99,2963.2
2632.29,2957.55
2636.59,2981.2
2640.89,2999.95
2645.18,2980.75
2649.47,3018.05
2653.76,3000.5
2658.05,3006.0
2662.33,2994.2
2666.61,2972.25
2670.89,3009.15
2675.17,3001.95
2679.44,2981.15
2683.71,3010.15
2687.98,3011.25
2692.25,2996.35
2696.51,3006.75
2700.77,3011.85
2705.03,3045.0
2709.29,3033.1
2713.54,3004.65
2717.79,3051.9
2722.04,3038.25
2726.29,3030.15
2730.53,3047.3
2734.77,3023.8
2739.01,2999.8
2743.25,3017.5
2747.48,3016.25
2751.71,3064.4
2755.94,2998.7
2760.17,3003.8
2764.39,3033.3
2768.61,2979.5
2772.83,3041.9
2777.05,3012.7
2781.27,3016.85
2785.48,3026.6
2789.69,3047.55
2793.89,3042.25
2798.1,3042.9
2802.3,3046.35
2806.5,3038.45
2810.7,3008.6
2814.89,3055.15
2819.09,3056.65
2823.28,3030.2
2827.46,3094.1
2831.65,3116.0
2835.83,3203.3
2840.01,3302.15
2844.19,3521.95
2848.37,3595.65
2852.54,3549.55
2856.71,3574.05
2860.88,3452.3
2865.05,3368.1
2869.21,3396.2
2873.37,3470.55
2877.53,3551.55
2881.69,3617.75
2885.84,3585.2
2889.99,3497.65
2894.14,3509.95
2898.29,3489.0
2902.43,3399.0
2906.58,3377.45
2910.72,3378.15
2914.85,3375.35
2918.99,3314.4
2923.12,3344.65
2927.25,3334.5
2931.38,3324.0
2935.5,3299.5
2939.63,3206.35
2943.75,3187.75
2947.87,3101.45
2951.98,3157.8
2956.1,3104.65
2960.21,3101.55
2964.32,3043.05
2968.42,3060.95
2972.53,3048.95
2976.63,3103.4
2980.73,3081.8
2984.83,3060.45
2988.92,3047.2
2993.01,3011.5
2997.1,3085.5
3001.19,3053.0
3005.28,3071.6
3009.36,3071.85
3013.44,3076.25
3017.52,3066.9
3021.6,3051.25
3025.67,3056.65
3029.74,3048.3
3033.81,3062.45
3037.88,3054.6
3041.94,3085.7
3046.01,3065.9
3050.07,3044.45
3054.12,3018.85
3058.18,3033.0
3062.23,3066.4
3066.28,3046.55
3070.33,3047.3
3074.38,3062.25
3078.42,3048.2
3082.46,3024.9
3086.5,3029.5
3090.54,3048.0
3094.57,3049.4
3098.6,3041.0
3102.63,3039.35
3106.66,3059.35
3110.69,3057.1
3114.71,3075.5
3118.73,3036.75
3122.75,3032.45
3126.77,3068.9
3130.78,3043.05
3134.79,3026.3
3138.8,3067.65
3142.81,3055.55
3146.81,3051.2
3150.82,3050.6
3154.82,3035.8
3158.81,3044.2
3162.81,3068.05
3166.8,3031.1
3170.79,3052.35
3174.78,3053.9
3178.77,3049.95
3182.75,3006.75
3186.74,3026.4
3190.72,3047.9
3194.69,3019.3
3198.67,3055.6
3202.64,3000.9
3206.61,3004.35
3210.58,3028.2
3214.55,3022.6
3218.51,3019.75
3222.47,3029.2
3226.43,3050.15
3230.39,3046.4
3234.35,3019.35
3238.3,2993.55
3242.25,3040.9
3246.2,3040.75
3250.15,3043.8
3254.09,3031.75
3258.03,3045.95
3261.97,3020.65
3265.91,3011.8
3269.84,3054.3
3273.78,3030.25
3277.71,3008.55
3281.64,3037.6
3285.56,3018.15
3289.49,3028.85
3293.41,3009.55
3297.33,3021.95
3301.25,3028.9
3305.16,3038.65
3309.07,3016.0
3312.99,2998.7
3316.89,2980.15
3320.8,3009.9
3324.7,2990.95
3328.61,3013.05
3332.51,3018.5
3336.4,3018.2
3340.3,3051.1
3344.19,3048.3
3348.08,3004.75
3351.97,2986.05
3355.86,2975.9
3359.74,2972.75
3363.63,3048.8
3367.51,3019.55
3371.39,2992.45
3375.26,2992.45
3379.13,3011.75
3383.01,2979.75
3386.88,2985.4
3390.74,2978.7
3394.61,2967.0
3398.47,2990.55
3402.33,2972.7
3406.19,3003.65
3410.05,2977.7
3413.9,3014.9
3417.75,2978.45
3421.6,2996.1
3425.45,2986.65
3429.3,2973.5
3433.14,3011.1
3436.98,2974.9
3440.82,2973.2
3444.66,2982.35
3448.49,2987.5
3452.32,3010.7
3456.15,2994.35
3459.98,2964.45
3463.81,2976.85
3467.63,2981.4
3471.46,2994.0
3475.28,2978.6
3479.09,2949.7
3482.91,2926.45
3486.72,2980.25
3490.53,2961.1
3494.34,2937.5
3498.15,2958.85
3501.96,2939.9
3505.76,2966.9
3509.56,2947.85
3513.36,2959.3
3517.15,2949.9
3520.95,2940.15
3524.74,2944.45
3528.53,2937.45
3532.32,2939.15
3536.11,2970.45
3539.89,2886.75
3543.67,2943.4
3547.45,2938.55
3551.23,2917.7
3555.0,2940.85
3558.78,2912.15
3562.55,2932.0
3566.32,2905.7
3570.09,2911.25
3573.85,2904.05
3577.61,2941.35
3581.37,2945.15
3585.13,2913.95
3588.89,2897.7
3592.64,2890.2
3596.4,2911.6
3600.15,2933.6
3603.9,2874.35
3607.64,2880.05
3611.39,2888.3
3615.13,2866.55
3618.87,2863.85
3622.61,2879.3
3626.34,2879.25
3630.08,2839.6
3633.81,2874.7
3637.54,2869.2
3641.27,2861.15
3644.99,2847.45
3648.72,2866.5
3652.44,2875.55
3656.16,2885.1
3659.87,2835.45
3663.59,2853.75
3665.45,2875.9