File: spectra/VLFR_01-LDPE_bio_Raman_46e5b816.csv
nm,Intensity
528.626,1868.1
528.795,1864.6
528.963,1865.3
529.132,1868.8
529.3,1866.0
529.469,1866.8
529.637,1867.2
529.806,1866.7
529.974,1866.6
530.143,1866.9
530.311,1869.0
530.48,1868.7
530.648,1869.2
530.816,1868.6
530.985,1869.9
531.153,1868.8
531.322,1870.5
531.49,1877.1
531.658,1910.9
531.827,2555.7
531.995,4602.5
532.164,4755.6
532.332,2212.3
532.5,1873.3
532.669,1870.2
532.837,1870.9
533.006,1867.3
533.174,1870.2
533.342,1868.8
533.511,1886.9
533.679,1973.5
533.847,2152.6
534.016,2285.8
534.184,2313.9
534.352,2285.8
534.521,2281.5
534.689,2288.3
534.857,2285.1
535.025,2264.8
535.194,2271.7
535.362,2243.2
535.53,2258.0
535.699,2228.6
535.867,2206.0
536.035,2206.2
536.203,2187.2
536.372,2204.3
536.54,2181.0
536.708,2206.8
536.876,2169.2
537.044,2175.3
537.213,2175.2
537.381,2197.3
537.549,2188.8
537.717,2199.5
537.885,2191.8
538.054,2178.1
538.222,2171.9
538.39,2185.8
538.558,2180.6
538.726,2176.9
538.894,2157.3
539.063,2167.9
539.231,2158.0
539.399,2161.7
539.567,2154.3
539.735,2148.6
539.903,2155.5
540.071,2158.2
540.239,2150.9
540.408,2129.5
540.576,2138.9
540.744,2149.3
540.912,2147.5
541.08,2135.6
541.248,2146.6
541.416,2136.2
541.584,2152.3
541.752,2153.3
541.92,2146.3
542.088,2159.2
542.256,2159.8
542.424,2150.3
542.592,2152.7
542.76,2148.0
542.928,2137.2
543.096,2156.8
543.264,2132.6
543.432,2134.1
543.6,2138.1
543.768,2156.3
543.936,2160.5
544.104,2156.0
544.272,2138.9
544.44,2143.3
544.608,2137.4
544.776,2142.7
544.944,2148.0
545.112,2150.0
545.28,2146.2
545.448,2142.1
545.616,2140.1
545.784,2157.8
545.951,2156.1
546.119,2150.8
546.287,2142.9
546.455,2146.7
546.623,2154.0
546.791,2163.1
546.959,2160.5
547.127,2158.1
547.294,2153.4
547.462,2137.0
547.63,2146.4
547.798,2156.9
547.966,2157.1
548.134,2166.1
548.301,2171.5
548.469,2172.9
548.637,2158.7
548.805,2148.6
548.972,2159.9
549.14,2171.5
549.308,2161.5
549.476,2160.3
549.644,2145.9
549.811,2160.4
549.979,2164.0
550.147,2159.4
550.315,2166.4
550.482,2164.1
550.65,2160.6
550.818,2160.7
550.985,2162.5
551.153,2171.2
551.321,2166.4
551.488,2178.2
551.656,2183.9
551.824,2191.9
551.991,2188.2
552.159,2181.9
552.327,2177.1
552.494,2176.9
552.662,2179.9
552.83,2175.8
552.997,2180.2
553.165,2199.3
553.333,2192.3
553.5,2214.6
553.668,2213.4
553.835,2206.5
554.003,2201.4
554.171,2207.8
554.338,2220.8
554.506,2206.4
554.673,2224.4
554.841,2219.3
555.008,2233.3
555.176,2239.4
555.343,2238.4
555.511,2245.3
555.679,2232.3
555.846,2245.3
556.014,2253.5
556.181,2249.2
556.349,2249.9
556.516,2254.0
556.684,2253.9
556.851,2267.0
557.018,2295.7
557.186,2279.3
557.353,2287.7
557.521,2289.1
557.688,2303.6
557.856,2304.5
558.023,2318.1
558.191,2329.7
558.358,2336.9
558.525,2344.4
558.693,2323.2
558.86,2321.2
559.028,2310.5
559.195,2327.6
559.362,2321.5
559.53,2312.7
559.697,2326.2
559.864,2335.8
560.032,2323.7
560.199,2325.6
560.366,2332.7
560.534,2359.2
560.701,2369.3
560.868,2378.5
561.036,2381.8
561.203,2370.2
561.37,2393.2
561.538,2381.9
561.705,2390.2
561.872,2403.4
562.039,2417.4
562.207,2453.1
562.374,2452.3
562.541,2433.9
562.708,2466.0
562.876,2478.7
563.043,2492.1
563.21,2499.5
563.377,2514.7
563.545,2557.8
563.712,2624.6
563.879,2817.5
564.046,2946.3
564.213,2823.2
564.38,2710.7
564.548,2687.9
564.715,2676.6
564.882,2665.0
565.049,2684.8
565.216,2660.4
565.383,2681.1
565.551,2674.3
565.718,2744.7
565.885,2852.4
566.052,3028.3
566.219,3056.9
566.386,2887.6
566.553,2765.6
566.72,2749.5
566.887,2764.1
567.054,2761.3
567.221,2759.1
567.388,2781.1
567.555,2815.4
567.722,2765.9
567.889,2799.0
568.057,2811.3
568.224,2827.8
568.391,2814.0
568.558,2836.7
568.725,2849.7
568.892,2881.3
569.058,2901.6
569.225,2931.9
569.392,2988.8
569.559,2930.8
569.726,2976.4
569.893,3016.6
570.06,3051.0
570.227,3084.8
570.394,3088.9
570.561,3139.6
570.728,3195.8
570.895,3190.8
571.062,3291.8
571.229,3486.5
571.395,3879.1
571.562,4021.2
571.729,3873.6
571.896,3686.3
572.063,3630.8
572.23,3573.2
572.397,3658.6
572.563,3554.0
572.73,3614.6
572.897,3671.1
573.064,3731.8
573.231,3687.7
573.397,3825.0
573.564,3851.6
573.731,3907.2
573.898,3959.8
574.064,4080.4
574.231,4039.4
574.398,4133.2
574.565,4204.2
574.731,4249.2
574.898,4330.1
575.065,4444.3
575.232,4552.8
575.398,4733.6
575.565,5018.9
575.732,5046.7
575.898,5198.7
576.065,5457.5
576.232,5831.0
576.398,5783.9
576.565,5791.2
576.732,5950.3
576.898,5982.3
577.065,6091.7
577.232,6101.0
577.398,6024.8
577.565,6084.9
577.731,6181.9
577.898,6280.6
578.065,6386.0
578.231,6486.1
578.398,6622.1
578.564,6745.2
578.731,6898.3
578.897,7114.8
579.064,7322.3
579.23,7400.4
579.397,7520.7
579.563,7689.2
579.73,8011.3
579.896,7992.5
580.063,8474.8
580.229,8449.5
580.396,8512.7
580.562,8814.8
580.729,8899.6
580.895,9052.2
581.062,9187.3
581.228,9498.2
581.395,9535.8
581.561,9593.8
581.728,9621.8
581.894,10120.6
582.06,10213.4
582.227,10300.9
582.393,10135.8
582.56,10398.1
582.726,10629.8
582.892,10642.3
583.059,11207.8
583.225,10956.3
583.391,11285.6
583.558,11465.1
583.724,11237.5
583.89,11634.2
584.057,11576.2
584.223,11811.2
584.389,11990.7
584.556,12347.7
584.722,12449.4
584.888,12272.3
585.054,12474.7
585.221,12541.0
585.387,12911.2
585.553,12806.9
585.719,12944.9
585.886,13147.0
586.052,13760.2
586.218,13256.0
586.384,13636.6
586.55,13916.7
586.717,14071.8
586.883,14376.4
587.049,14424.1
587.215,14554.9
587.381,15127.9
587.548,15184.0
587.714,15519.1
587.88,15490.3
588.046,15772.6
588.212,15927.0
588.378,16120.3
588.544,16187.3
588.71,16822.5
588.876,16551.7
589.043,16677.6
589.209,17246.6
589.375,16901.5
589.541,17679.1
589.707,17626.4
589.873,17898.4
590.039,17937.3
590.205,18129.4
590.371,18053.9
590.537,18663.0
590.703,18842.0
590.869,19155.7
591.035,19273.7
591.201,19089.6
591.367,19663.7
591.533,19198.5
591.699,20066.8
591.865,19639.5
592.031,20069.9
592.197,20439.0
592.363,20201.9
592.529,20685.3
592.694,20234.6
592.86,20482.4
593.026,20240.8
593.192,20640.8
593.358,20954.7
593.524,20658.3
593.69,20840.0
593.856,20515.6
594.021,20941.0
594.187,21259.1
594.353,21027.2
594.519,21255.7
594.685,21408.8
594.851,21199.3
595.016,21966.0
595.182,21776.0
595.348,22156.5
595.514,21912.1
595.68,22101.6
595.845,22531.1
596.011,22341.9
596.177,23020.6
596.342,22742.2
596.508,22562.9
596.674,23120.8
596.84,23237.1
597.005,23498.8
597.171,23125.8
597.337,23502.6
597.502,23894.0
597.668,23642.2
597.834,23268.7
597.999,24449.8
598.165,24216.1
598.331,24258.1
598.496,24507.0
598.662,25110.4
598.828,25548.5
598.993,25300.6
599.159,25314.5
599.324,25026.6
599.49,25537.2
599.656,26445.9
599.821,25759.7
599.987,25630.5
600.152,25759.3
600.318,25994.1
600.483,25403.6
600.649,25958.2
600.814,25860.4
600.98,26104.6
601.145,26216.9
601.311,25387.1
601.476,25853.2
601.642,25648.2
601.807,25842.2
601.973,25734.2
602.138,25481.1
602.304,25475.2
602.469,25214.9
602.635,24719.4
602.8,25274.4
602.965,24323.3
603.131,24555.0
603.296,24807.7
603.462,23907.4
603.627,23797.0
603.792,23738.9
603.958,23430.6
604.123,23411.7
604.288,22596.5
604.454,22857.8
604.619,22335.3
604.784,21856.6
604.95,21739.2
605.115,21404.7
605.28,21599.5
605.446,21008.2
605.611,20548.1
605.776,20701.1
605.941,20397.7
606.107,20151.9
606.272,20034.2
606.437,20115.6
606.602,19379.9
606.767,18839.1
606.933,19013.0
607.098,19173.2
607.263,18603.2
607.428,18344.1
607.593,18036.7
607.759,18084.8
607.924,17560.3
608.089,17256.3
608.254,17196.4
608.419,17152.2
608.584,16906.1
608.749,16669.6
608.915,16600.8
609.08,16468.2
609.245,15911.4
609.41,16205.0
609.575,15984.6
609.74,15577.9
609.905,15981.6
610.07,15467.4
610.235,15542.4
610.4,15155.7
610.565,15454.7
610.73,15321.5
610.895,15081.9
611.06,14937.7
611.225,14618.9
611.39,14739.2
611.555,14370.8
611.72,14276.4
611.885,14370.5
612.05,14339.3
612.215,14033.4
612.38,13996.7
612.545,13962.4
612.71,13957.1
612.875,13867.2
613.04,13438.5
613.204,13718.0
613.369,13445.8
613.534,13234.2
613.699,13126.1
613.864,13245.0
614.029,12943.5
614.194,13044.7
614.358,12860.9
614.523,12794.1
614.688,12969.9
614.853,12665.3
615.018,12546.7
615.182,12254.4
615.347,12468.9
615.512,12306.5
615.677,12200.4
615.841,12194.5
616.006,12141.3
616.171,12063.8
616.336,11831.2
616.5,11791.9
616.665,11780.2
616.83,11427.5
616.994,11556.5
617.159,11476.4
617.324,11542.7
617.489,11602.4
617.653,11222.1
617.818,11323.2
617.982,11120.4
618.147,11203.7
618.312,10831.8
618.476,11116.8
618.641,10859.9
618.805,10832.0
618.97,10897.2
619.135,10908.0
619.299,10903.1
619.464,10800.7
619.628,10478.8
619.793,10836.6
619.957,10773.4
620.122,10723.3
620.286,10535.6
620.451,10645.9
620.615,10731.7
620.78,10488.4
620.944,10184.8
621.109,10238.5
621.273,10523.9
621.438,10452.7
621.602,10431.6
621.767,10419.0
621.931,10338.7
622.095,10251.8
622.26,10470.2
622.424,10159.7
622.589,10353.7
622.753,10190.2
622.917,10363.3
623.082,10280.9
623.246,9804.7
623.41,10074.2
623.575,10294.8
623.739,9933.6
623.903,9817.7
624.068,9885.7
624.232,10060.8
624.396,9934.8
624.561,9874.5
624.725,9828.8
624.889,9978.0
625.053,9883.1
625.218,9846.5
625.382,9853.1
625.546,9853.9
625.71,9766.8
625.875,9858.6
626.039,10003.7
626.203,9979.1
626.367,10107.6
626.531,10284.7
626.695,10983.3
626.86,11912.5
627.024,13352.9
627.188,14421.1
627.352,14068.6
627.516,13369.3
627.68,12441.5
627.844,12692.4
628.008,12445.2
628.172,12839.6
628.337,13591.3
628.501,14523.3
628.665,14042.6
628.829,13652.6
628.993,12705.8
629.157,12876.3
629.321,12637.6
629.485,12249.0
629.649,12141.7
629.813,12084.8
629.977,11910.6
630.141,11312.1
630.305,11475.5
630.469,11764.2
630.633,11500.2
630.797,11208.5
630.96,10933.8
631.124,10869.0
631.288,10336.4
631.452,10590.2
631.616,10360.6
631.78,10331.6
631.944,10250.6
632.108,10564.8
632.272,10221.5
632.435,10230.9
632.599,10363.1
632.763,10550.9
632.927,10329.3
633.091,10619.8
633.254,10604.2
633.418,10405.2
633.582,10495.1
633.746,10704.5
633.91,10418.0
634.073,10560.5
634.237,10687.1
634.401,10692.6
634.564,10667.7
634.728,10658.3
634.892,10685.6
635.056,10621.8
635.219,10656.8
635.383,10630.8
635.547,10696.7
635.71,10630.1
635.874,10462.9
636.038,10867.4
636.201,10865.0
636.365,11005.7
636.528,10464.4
636.692,10676.0
636.856,10884.6
637.019,10844.3
637.183,11125.2
637.346,11144.8
637.51,10981.8
637.673,10891.4
637.837,11051.9
638.0,11043.7
638.164,10868.2
638.327,11121.5
638.491,11292.1
638.654,11277.6
638.818,11179.5
638.981,11099.7
639.145,11183.4
639.308,11278.0
639.472,11270.5
639.635,11217.8
639.799,11485.7
639.962,11201.7
640.125,11449.4
640.289,11569.5
640.452,11283.8
640.616,11270.8
640.779,11501.5
640.942,11419.8
641.106,11630.6
641.269,11410.0
641.432,11856.4
641.596,11737.3
641.759,11292.0
641.922,11848.0
642.085,11678.9
642.249,11640.7
642.412,11802.3
642.575,11911.4
642.738,12025.6
642.902,11829.9
643.065,11592.4
643.228,11946.6
643.391,11961.9
643.555,12130.5
643.718,11709.9
643.881,12133.0
644.044,12120.5
644.207,11959.8
644.37,11844.2
644.534,12108.4
644.697,12062.5
644.86,12172.0
645.023,12125.4
645.186,11895.8
645.349,12177.1
645.512,12454.6
645.675,12135.2
645.838,12024.9
646.001,11921.2
646.164,11964.5
646.327,11978.6
646.49,11924.9
646.653,11872.0
646.816,12256.8
646.979,11839.3
647.142,11737.2
647.305,12106.7
647.468,12105.7
647.631,11748.7
647.794,11736.5
647.957,12045.1
648.12,11940.4
648.283,12055.3
648.446,11544.0
648.609,11650.0
648.772,11679.0
648.935,11790.7
649.098,12074.7
649.26,11306.7
649.423,11312.9
649.586,11832.8
649.749,11613.4
649.912,11332.8
650.075,11469.7
650.237,11646.5
650.4,11882.4
650.563,11379.2
650.726,11491.2
650.888,11386.1
651.051,11879.6
651.214,11533.1
651.377,11490.5
651.539,11370.7
651.702,11484.3
651.865,11304.6
652.027,11393.8
652.19,11490.8
652.353,11397.7
652.515,11193.9
652.678,11589.4
652.841,11298.2
653.003,11219.5
653.166,11486.1
653.329,11286.3
653.491,11141.9
653.654,11011.2
653.816,11142.0
653.979,10870.2
654.142,11242.4
654.304,10889.9
654.467,10734.1
654.629,10419.2
654.792,10748.3
654.954,10962.7
655.117,10918.6
655.279,10942.9
655.442,10669.0
655.604,10539.9
655.767,10725.7
655.929,10612.7
656.091,10560.9
656.254,10375.5
656.416,10344.3
656.579,10197.9
656.741,10166.7
656.904,10338.1
657.066,10319.8
657.228,10262.4
657.391,10070.2
657.553,9472.6
657.715,9706.0
657.878,9937.7
658.04,9711.4
658.202,9584.1
658.365,9254.1
658.527,9325.2
658.689,9119.3
658.851,9208.8
659.014,8998.3
659.176,8996.2
659.338,8482.3
659.5,8491.3
659.663,8814.9
659.825,8572.9
659.987,8358.0
660.149,8497.1
660.311,8463.8
660.474,8207.3
660.636,8248.4
660.798,8061.9
660.96,8083.0
661.041,8088.2