File: spectra/VLFR_06-PET_bio_Raman_b4413bef.csv
nm,Intensity
528.626,1865.3
528.795,1868.5
528.963,1864.8
529.132,1865.3
529.3,1865.3
529.469,1866.7
529.637,1865.6
529.806,1863.2
529.974,1865.1
530.143,1866.1
530.311,1866.3
530.48,1866.6
530.648,1867.7
530.816,1866.1
530.985,1869.3
531.153,1869.3
531.322,1869.9
531.49,1876.4
531.658,1910.8
531.827,2642.2
531.995,5694.3
532.164,6024.2
532.332,2417.5
532.5,1875.9
532.669,1872.7
532.837,1872.2
533.006,1872.0
533.174,1877.2
533.342,1896.8
533.511,2080.0
533.679,3343.0
533.847,5583.2
534.016,6845.9
534.184,6910.5
534.352,6410.9
534.521,6020.1
534.689,5630.7
534.857,5358.0
535.025,4853.6
535.194,4611.7
535.362,4310.4
535.53,4050.4
535.699,3719.3
535.867,3524.8
536.035,3343.0
536.203,3248.0
536.372,3169.2
536.54,3088.1
536.708,3024.3
536.876,3003.0
537.044,2946.8
537.213,2958.7
537.381,2983.5
537.549,2955.7
537.717,2934.0
537.885,2951.6
538.054,2936.7
538.222,2950.6
538.39,2963.7
538.558,2986.8
538.726,2967.9
538.894,2994.2
539.063,3011.4
539.231,3023.7
539.399,3051.7
539.567,3085.4
539.735,3095.1
539.903,3132.0
540.071,3130.0
540.239,3022.3
540.408,2964.2
540.576,2972.4
540.744,2936.0
540.912,2884.8
541.08,2889.9
541.248,2876.8
541.416,2875.3
541.584,2869.1
541.752,2888.0
541.92,2855.3
542.088,2881.9
542.256,2910.7
542.424,2891.2
542.592,2879.6
542.76,2940.0
542.928,2927.7
543.096,2910.8
543.264,2901.9
543.432,2899.6
543.6,2907.8
543.768,2971.5
543.936,2948.1
544.104,2978.4
544.272,2949.9
544.44,2932.5
544.608,2928.4
544.776,2965.8
544.944,2968.6
545.112,2958.3
545.28,3022.4
545.448,2979.7
545.616,2958.9
545.784,2988.5
545.951,3035.8
546.119,3007.0
546.287,3013.3
546.455,2992.8
546.623,3022.0
546.791,3035.2
546.959,3050.4
547.127,3021.7
547.294,3070.3
547.462,3040.3
547.63,3066.4
547.798,3078.0
547.966,3066.7
548.134,3065.3
548.301,3093.9
548.469,3094.2
548.637,3082.7
548.805,3118.5
548.972,3116.4
549.14,3095.3
549.308,3122.6
549.476,3116.4
549.644,3089.6
549.811,3121.9
549.979,3104.5
550.147,3116.3
550.315,3258.0
550.482,3558.5
550.65,3909.6
550.818,3617.0
550.985,3260.1
551.153,3197.0
551.321,3189.6
551.488,3201.7
551.656,3202.4
551.824,3195.7
551.991,3243.1
552.159,3231.2
552.327,3247.7
552.494,3268.8
552.662,3383.3
552.83,3522.5
552.997,3455.8
553.165,3297.3
553.333,3203.4
553.5,3280.3
553.668,3272.4
553.835,3270.9
554.003,3289.3
554.171,3297.2
554.338,3276.4
554.506,3321.5
554.673,3341.0
554.841,3340.2
555.008,3342.8
555.176,3422.9
555.343,3451.7
555.511,3639.3
555.679,3746.9
555.846,3630.8
556.014,3697.2
556.181,3712.6
556.349,3765.4
556.516,3711.3
556.684,3749.6
556.851,3777.7
557.018,3874.3
557.186,4123.0
557.353,4425.5
557.521,4650.0
557.688,4467.9
557.856,4147.6
558.023,3888.3
558.191,3876.2
558.358,3892.5
558.525,3897.9
558.693,3832.4
558.86,3780.9
559.028,3660.7
559.195,3606.4
559.362,3539.9
559.53,3533.1
559.697,3526.8
559.864,3534.5
560.032,3452.8
560.199,3535.9
560.366,3562.7
560.534,3528.7
560.701,3517.8
560.868,3600.8
561.036,3574.5
561.203,3587.5
561.37,3627.6
561.538,3621.3
561.705,3636.6
561.872,3643.0
562.039,3727.6
562.207,3782.2
562.374,3714.8
562.541,3745.5
562.708,3793.6
562.876,3829.8
563.043,3772.9
563.21,3775.6
563.377,3785.0
563.545,3804.8
563.712,3726.1
563.879,3742.3
564.046,3784.6
564.213,3778.4
564.38,3801.6
564.548,3853.0
564.715,3918.4
564.882,4022.9
565.049,4205.6
565.216,4327.2
565.383,4317.6
565.551,4539.4
565.718,4674.3
565.885,4603.7
566.052,4446.3
566.219,4236.6
566.386,4116.7
566.553,3996.6
566.72,3914.7
566.887,3871.8
567.054,3923.6
567.221,3942.2
567.388,4072.7
567.555,4245.4
567.722,4293.0
567.889,4225.9
568.057,4085.8
568.224,3973.8
568.391,3907.1
568.558,3924.5
568.725,4013.9
568.892,3908.7
569.058,3995.6
569.225,3965.5
569.392,3980.2
569.559,4073.1
569.726,4187.5
569.893,4142.5
570.06,4215.7
570.227,4342.5
570.394,4512.7
570.561,4765.4
570.728,5013.4
570.895,5299.9
571.062,5682.8
571.229,5938.1
571.395,5805.6
571.562,5589.0
571.729,5166.4
571.896,5024.7
572.063,4894.8
572.23,4597.0
572.397,4430.9
572.563,4394.3
572.73,4284.7
572.897,4190.9
573.064,4169.6
573.231,4195.4
573.397,4203.4
573.564,4182.3
573.731,4266.5
573.898,4302.4
574.064,4354.9
574.231,4323.6
574.398,4347.1
574.565,4204.2
574.731,4299.2
574.898,4345.2
575.065,4389.7
575.232,4497.0
575.398,4594.1
575.565,4412.2
575.732,4338.2
575.898,4362.2
576.065,4427.5
576.232,4500.2
576.398,4627.3
576.565,4569.9
576.732,4596.6
576.898,4584.6
577.065,4490.6
577.232,4449.1
577.398,4386.1
577.565,4393.8
577.731,4340.5
577.898,4381.0
578.065,4315.0
578.231,4344.3
578.398,4370.3
578.564,4342.8
578.731,4293.4
578.897,4375.7
579.064,4383.6
579.23,4410.4
579.397,4433.2
579.563,4389.3
579.73,4418.7
579.896,4457.0
580.063,4519.4
580.229,4454.3
580.396,4514.6
580.562,4490.6
580.729,4575.4
580.895,4617.1
581.062,4690.5
581.228,4701.2
581.395,4833.5
581.561,5173.9
581.728,6016.8
581.894,7790.2
582.06,10154.6
582.227,10561.4
582.393,7492.9
582.56,5342.0
582.726,4840.6
582.892,4703.2
583.059,4685.8
583.225,4608.5
583.391,4627.5
583.558,4634.6
583.724,4585.3
583.89,4677.4
584.057,4639.8
584.223,4671.4
584.389,4655.0
584.556,4703.5
584.722,4716.8
584.888,4856.5
585.054,4826.0
585.221,4949.1
585.387,5539.0
585.553,6547.2
585.719,7512.6
585.886,8013.5
586.052,8081.2
586.218,7596.6
586.384,6853.6
586.55,6013.6
586.717,5402.0
586.883,5041.7
587.049,4938.0
587.215,4769.1
587.381,4789.5
587.548,4800.7
587.714,4751.4
587.88,4784.1
588.046,4758.5
588.212,4783.1
588.378,4721.2
588.544,4755.0
588.71,4721.8
588.876,4713.1
589.043,4665.5
589.209,4681.6
589.375,4751.9
589.541,4696.0
589.707,4611.0
589.873,4708.0
590.039,4740.0
590.205,4683.0
590.371,4660.8
590.537,4744.7
590.703,4725.7
590.869,4729.0
591.035,4703.5
591.201,4709.4
591.367,4743.1
591.533,4717.6
591.699,4760.0
591.865,4784.7
592.031,4772.8
592.197,4776.1
592.363,4829.6
592.529,4785.9
592.694,4844.9
592.86,4836.1
593.026,4834.1
593.192,4780.6
593.358,4788.9
593.524,4778.2
593.69,4735.5
593.856,4811.8
594.021,4850.6
594.187,4814.0
594.353,4766.1
594.519,4875.8
594.685,4800.4
594.851,4801.9
595.016,4846.7
595.182,4901.9
595.348,4898.7
595.514,4951.5
595.68,4852.2
595.845,4881.8
596.011,4878.4
596.177,4947.9
596.342,4898.1
596.508,4910.7
596.674,4924.7
596.84,4965.6
597.005,4993.8
597.171,4932.7
597.337,4871.5
597.502,4909.7
597.668,4879.4
597.834,4964.2
597.999,4949.4
598.165,4884.2
598.331,5019.3
598.496,4979.2
598.662,5004.8
598.828,4971.4
598.993,4987.8
599.159,4923.9
599.324,5031.3
599.49,5069.4
599.656,5015.4
599.821,4972.4
599.987,5003.8
600.152,5015.2
600.318,5113.6
600.483,5034.8
600.649,5001.3
600.814,5057.1
600.98,5000.2
601.145,5125.9
601.311,5074.9
601.476,5070.6
601.642,5093.7
601.807,5146.2
601.973,5123.0
602.138,5048.6
602.304,5074.8
602.469,5169.8
602.635,5145.0
602.8,5099.8
602.965,5103.5
603.131,5105.2
603.296,5148.2
603.462,5233.0
603.627,5133.0
603.792,5166.0
603.958,5125.6
604.123,5135.9
604.288,5131.4
604.454,5229.0
604.619,5175.9
604.784,5140.0
604.95,5231.9
605.115,5168.0
605.28,5185.7
605.446,5195.7
605.611,5227.2
605.776,5149.3
605.941,5244.6
606.107,5177.5
606.272,5193.0
606.437,5300.5
606.602,5163.3
606.767,5274.5
606.933,5293.2
607.098,5242.7
607.263,5208.2
607.428,5322.4
607.593,5211.0
607.759,5245.2
607.924,5314.2
608.089,5307.1
608.254,5227.2
608.419,5271.2
608.584,5253.7
608.749,5340.4
608.915,5321.1
609.08,5319.3
609.245,5297.7
609.41,5331.0
609.575,5271.5
609.74,5372.8
609.905,5307.1
610.07,5377.4
610.235,5362.2
610.4,5318.5
610.565,5290.5
610.73,5375.9
610.895,5401.0
611.06,5378.3
611.225,5328.4
611.39,5387.6
611.555,5375.0
611.72,5360.8
611.885,5273.8
612.05,5337.1
612.215,5415.8
612.38,5394.0
612.545,5370.3
612.71,5347.5
612.875,5424.4
613.04,5349.6
613.204,5379.9
613.369,5430.4
613.534,5465.1
613.699,5346.6
613.864,5420.5
614.029,5411.3
614.194,5407.9
614.358,5449.3
614.523,5522.5
614.688,5429.3
614.853,5414.6
615.018,5537.9
615.182,5472.8
615.347,5497.3
615.512,5421.4
615.677,5410.5
615.841,5451.0
616.006,5503.7
616.171,5504.5
616.336,5422.5
616.5,5421.3
616.665,5480.7
616.83,5501.9
616.994,5470.7
617.159,5527.4
617.324,5463.4
617.489,5584.6
617.653,5678.2
617.818,5522.1
617.982,5614.0
618.147,5464.7
618.312,5526.9
618.476,5531.2
618.641,5640.0
618.805,5568.4
618.97,5619.0
619.135,5535.4
619.299,5463.5
619.464,5545.0
619.628,5536.6
619.793,5564.0
619.957,5575.2
620.122,5610.5
620.286,5511.4
620.451,5462.0
620.615,5595.4
620.78,5576.6
620.944,5519.6
621.109,5525.7
621.273,5540.6
621.438,5525.8
621.602,5492.5
621.767,5555.5
621.931,5598.6
622.095,5540.5
622.26,5574.6
622.424,5553.5
622.589,5512.9
622.753,5617.8
622.917,5611.3
623.082,5612.6
623.246,5608.4
623.41,5544.8
623.575,5585.4
623.739,5679.2
623.903,5583.5
624.068,5660.5
624.232,5618.7
624.396,5590.2
624.561,5626.6
624.725,5768.9
624.889,5789.2
625.053,5579.7
625.218,5645.6
625.382,5594.0
625.546,5664.8
625.71,5606.5
625.875,5571.0
626.039,5684.5
626.203,5707.6
626.367,5579.5
626.531,5519.1
626.695,5641.5
626.86,5680.7
627.024,5636.7
627.188,5680.5
627.352,5650.2
627.516,5792.5
627.68,5762.9
627.844,5719.2
628.008,5736.5
628.172,5784.7
628.337,5784.7
628.501,5864.6
628.665,5905.3
628.829,6009.7
628.993,5865.9
629.157,5826.1
629.321,6025.6
629.485,6004.2
629.649,5913.7
629.813,5850.8
629.977,5875.6
630.141,5761.6
630.305,5996.1
630.469,5926.7
630.633,5958.9
630.797,6025.2
630.96,6123.4
631.124,6500.1
631.288,6626.4
631.452,6715.5
631.616,6917.5
631.78,6987.2
631.944,6919.4
632.108,6852.5
632.272,6591.9
632.435,6465.8
632.599,6352.7
632.763,6343.0
632.927,6427.2
633.091,6428.7
633.254,6395.5
633.418,6128.1
633.582,6298.1
633.746,6353.1
633.91,6252.7
634.073,6038.4
634.237,6040.4
634.401,5977.6
634.564,6004.3
634.728,6084.7
634.892,5940.3
635.056,6157.7
635.219,6140.0
635.383,6021.1
635.547,6109.0
635.71,6395.2
635.874,6529.7
636.038,6516.9
636.201,6696.1
636.365,7177.7
636.528,7198.6
636.692,7093.1
636.856,6861.1
637.019,6474.7
637.183,6363.0
637.346,6294.1
637.51,6253.6
637.673,6015.9
637.837,6004.6
638.0,6030.1
638.164,6108.1
638.327,6076.9
638.491,6052.8
638.654,6063.3
638.818,6095.2
638.981,5886.9
639.145,6092.7
639.308,6094.3
639.472,6007.2
639.635,5941.4
639.799,5950.9
639.962,6018.1
640.125,6000.0
640.289,5938.5
640.452,5913.8
640.616,6010.9
640.779,5924.3
640.942,5948.0
641.106,6002.1
641.269,6077.1
641.432,6030.6
641.596,6025.8
641.759,5884.1
641.922,5864.7
642.085,6104.3
642.249,6046.1
642.412,6038.0
642.575,6100.4
642.738,5968.6
642.902,6006.0
643.065,6093.6
643.228,5905.2
643.391,5933.5
643.555,5914.0
643.718,5909.1
643.881,6035.5
644.044,5985.2
644.207,6065.8
644.37,5874.9
644.534,5935.0
644.697,5936.4
644.86,5802.1
645.023,6007.8
645.186,6054.8
645.349,5913.1
645.512,6060.0
645.675,6079.0
645.838,5919.9
646.001,5904.3
646.164,6018.5
646.327,5927.3
646.49,5905.7
646.653,6032.4
646.816,5888.8
646.979,5968.2
647.142,5948.3
647.305,6038.5
647.468,6013.3
647.631,5831.9
647.794,5784.4
647.957,5864.2
648.12,5740.8
648.283,5951.2
648.446,5960.5
648.609,5934.3
648.772,5974.5
648.935,5894.4
649.098,5829.7
649.26,5940.8
649.423,5857.2
649.586,5679.8
649.749,5786.1
649.912,5853.6
650.075,5813.7
650.237,5776.7
650.4,5892.5
650.563,5798.6
650.726,5739.9
650.888,5825.9
651.051,5694.8
651.214,5868.6
651.377,5902.3
651.539,5644.4
651.702,5814.5
651.865,5768.4
652.027,5794.3
652.19,5750.1
652.353,5704.3
652.515,5794.8
652.678,5742.8
652.841,5598.5
653.003,5772.0
653.166,5599.8
653.329,5674.4
653.491,5716.8
653.654,5590.9
653.816,5569.5
653.979,5596.3
654.142,5574.9
654.304,5562.4
654.467,5497.8
654.629,5488.7
654.792,5427.3
654.954,5650.6
655.117,5602.2
655.279,5596.5
655.442,5604.0
655.604,5562.8
655.767,5518.1
655.929,5634.0
656.091,5504.0
656.254,5469.3
656.416,5430.9
656.579,5515.9
656.741,5483.9
656.904,5396.2
657.066,5397.0
657.228,5455.8
657.391,5523.6
657.553,5366.3
657.715,5284.0
657.878,5350.7
658.04,5410.5
658.202,5313.5
658.365,5276.2
658.527,5300.6
658.689,5224.5
658.851,5279.7
659.014,5300.3
659.176,5231.6
659.338,5232.2
659.5,5183.9
659.663,5332.3
659.825,5144.7
659.987,5075.3
660.149,5159.7
660.311,5196.7
660.474,5304.3
660.636,5096.4
660.798,5164.3
660.96,5234.2
661.041,5127.7