File: spectra/VLFR_08-PLA_bio_Raman_314abfa4.csv
nm,Intensity
528.626,1864.9
528.795,1862.9
528.963,1862.8
529.132,1862.7
529.3,1863.4
529.469,1864.1
529.637,1864.6
529.806,1864.0
529.974,1862.3
530.143,1863.5
530.311,1865.1
530.48,1864.7
530.648,1865.3
530.816,1867.0
530.985,1866.9
531.153,1867.4
531.322,1871.9
531.49,1873.3
531.658,1908.8
531.827,2602.6
531.995,4683.4
532.164,4725.6
532.332,2143.7
532.5,1870.5
532.669,1866.9
532.837,1864.2
533.006,1867.1
533.174,1867.9
533.342,1867.8
533.511,1904.1
533.679,2095.2
533.847,2464.7
534.016,2679.9
534.184,2768.6
534.352,2751.5
534.521,2722.9
534.689,2742.1
534.857,2741.8
535.025,2744.7
535.194,2742.6
535.362,2767.9
535.53,2739.9
535.699,2751.4
535.867,2706.0
536.035,2716.0
536.203,2729.2
536.372,2689.0
536.54,2698.3
536.708,2699.4
536.876,2690.8
537.044,2665.6
537.213,2713.9
537.381,2744.1
537.549,2761.0
537.717,2755.9
537.885,2746.7
538.054,2735.7
538.222,2733.7
538.39,2722.6
538.558,2718.7
538.726,2730.6
538.894,2770.7
539.063,2756.7
539.231,2770.7
539.399,2760.3
539.567,2709.3
539.735,2684.9
539.903,2707.1
540.071,2718.9
540.239,2718.5
540.408,2712.5
540.576,2740.4
540.744,2758.5
540.912,2737.1
541.08,2776.1
541.248,2762.8
541.416,2786.4
541.584,2761.3
541.752,2782.9
541.92,2757.2
542.088,2778.4
542.256,2795.2
542.424,2757.5
542.592,2819.9
542.76,2788.3
542.928,2797.7
543.096,2846.1
543.264,2840.5
543.432,2855.0
543.6,2855.5
543.768,2889.4
543.936,2904.9
544.104,2856.3
544.272,2837.8
544.44,2823.3
544.608,2775.1
544.776,2803.7
544.944,2834.4
545.112,2822.0
545.28,2832.7
545.448,2795.1
545.616,2793.3
545.784,2845.4
545.951,2826.2
546.119,2830.6
546.287,2793.6
546.455,2844.6
546.623,2841.9
546.791,2831.3
546.959,2867.6
547.127,2849.4
547.294,2856.1
547.462,2827.4
547.63,2835.8
547.798,2850.7
547.966,2874.8
548.134,2866.1
548.301,2874.3
548.469,2927.6
548.637,2894.3
548.805,2887.3
548.972,2907.2
549.14,2893.3
549.308,2929.1
549.476,2914.3
549.644,2888.6
549.811,2912.3
549.979,2927.5
550.147,2959.4
550.315,2897.1
550.482,2923.9
550.65,2934.8
550.818,2968.0
550.985,2969.9
551.153,2954.9
551.321,2979.4
551.488,2981.2
551.656,3016.5
551.824,3030.7
551.991,3026.6
552.159,3003.6
552.327,3045.7
552.494,2981.1
552.662,2967.7
552.83,2964.6
552.997,2990.1
553.165,2999.5
553.333,2969.4
553.5,2977.0
553.668,2992.8
553.835,3015.0
554.003,3037.2
554.171,3000.8
554.338,3014.7
554.506,3015.1
554.673,3007.0
554.841,3005.8
555.008,3051.2
555.176,3016.5
555.343,3005.2
555.511,2994.4
555.679,2999.5
555.846,3023.3
556.014,3022.6
556.181,2978.8
556.349,3002.5
556.516,3028.0
556.684,3010.5
556.851,3001.5
557.018,3013.3
557.186,3003.6
557.353,3066.8
557.521,3102.1
557.688,3146.3
557.856,3280.6
558.023,3345.0
558.191,3334.2
558.358,3181.7
558.525,3094.3
558.693,3046.6
558.86,3030.2
559.028,3065.8
559.195,3059.1
559.362,3045.7
559.53,3065.4
559.697,3044.4
559.864,3067.2
560.032,3037.5
560.199,3013.4
560.366,3029.7
560.534,3102.9
560.701,3088.2
560.868,3089.5
561.036,3104.5
561.203,3110.5
561.37,3059.9
561.538,3047.9
561.705,3075.0
561.872,3083.6
562.039,3116.1
562.207,3122.6
562.374,3082.4
562.541,3108.5
562.708,3129.7
562.876,3165.2
563.043,3183.7
563.21,3199.3
563.377,3229.3
563.545,3209.3
563.712,3180.4
563.879,3154.8
564.046,3162.9
564.213,3147.6
564.38,3148.4
564.548,3179.2
564.715,3198.5
564.882,3230.8
565.049,3253.0
565.216,3226.4
565.383,3221.6
565.551,3192.3
565.718,3206.4
565.885,3192.6
566.052,3263.3
566.219,3247.1
566.386,3206.4
566.553,3212.6
566.72,3172.6
566.887,3172.0
567.054,3201.8
567.221,3165.8
567.388,3173.7
567.555,3168.7
567.722,3200.9
567.889,3210.1
568.057,3234.5
568.224,3180.1
568.391,3186.7
568.558,3194.0
568.725,3204.8
568.892,3211.7
569.058,3229.2
569.225,3228.7
569.392,3239.8
569.559,3223.4
569.726,3233.2
569.893,3248.3
570.06,3255.2
570.227,3206.4
570.394,3233.5
570.561,3227.4
570.728,3253.0
570.895,3194.5
571.062,3229.1
571.229,3251.3
571.395,3323.1
571.562,3360.6
571.729,3334.5
571.896,3355.4
572.063,3364.5
572.23,3322.2
572.397,3331.9
572.563,3373.5
572.73,3350.3
572.897,3328.4
573.064,3319.8
573.231,3348.2
573.397,3315.0
573.564,3315.9
573.731,3317.0
573.898,3347.8
574.064,3303.8
574.231,3309.5
574.398,3311.1
574.565,3317.6
574.731,3317.4
574.898,3277.3
575.065,3248.2
575.232,3263.4
575.398,3273.5
575.565,3267.0
575.732,3262.9
575.898,3274.8
576.065,3300.6
576.232,3285.0
576.398,3360.2
576.565,3427.5
576.732,3484.1
576.898,3502.3
577.065,3427.5
577.232,3356.7
577.398,3314.0
577.565,3301.5
577.731,3302.8
577.898,3274.7
578.065,3232.9
578.231,3228.8
578.398,3242.4
578.564,3246.1
578.731,3281.1
578.897,3255.1
579.064,3285.3
579.23,3273.6
579.397,3291.5
579.563,3282.8
579.73,3290.2
579.896,3279.5
580.063,3317.8
580.229,3278.4
580.396,3267.4
580.562,3294.0
580.729,3310.5
580.895,3296.5
581.062,3293.6
581.228,3319.6
581.395,3265.6
581.561,3288.2
581.728,3303.7
581.894,3307.1
582.06,3348.2
582.227,3269.6
582.393,3288.3
582.56,3301.3
582.726,3315.1
582.892,3288.2
583.059,3282.2
583.225,3314.9
583.391,3268.5
583.558,3331.3
583.724,3300.8
583.89,3270.5
584.057,3305.0
584.223,3296.2
584.389,3271.3
584.556,3300.6
584.722,3271.7
584.888,3282.0
585.054,3251.2
585.221,3277.1
585.387,3290.8
585.553,3224.9
585.719,3229.6
585.886,3274.1
586.052,3290.3
586.218,3259.2
586.384,3260.1
586.55,3323.2
586.717,3344.4
586.883,3361.4
587.049,3397.0
587.215,3447.2
587.381,3409.0
587.548,3425.9
587.714,3365.3
587.88,3377.1
588.046,3320.2
588.212,3284.7
588.378,3271.6
588.544,3254.5
588.71,3231.0
588.876,3174.7
589.043,3175.5
589.209,3187.8
589.375,3204.6
589.541,3150.7
589.707,3170.7
589.873,3211.1
590.039,3227.2
590.205,3270.3
590.371,3213.0
590.537,3236.4
590.703,3219.8
590.869,3257.2
591.035,3221.8
591.201,3246.8
591.367,3241.8
591.533,3205.6
591.699,3259.4
591.865,3254.7
592.031,3256.7
592.197,3262.0
592.363,3240.1
592.529,3256.6
592.694,3241.7
592.86,3237.0
593.026,3217.4
593.192,3242.6
593.358,3233.8
593.524,3233.4
593.69,3231.2
593.856,3283.6
594.021,3222.7
594.187,3204.6
594.353,3205.1
594.519,3235.4
594.685,3248.7
594.851,3172.0
595.016,3215.2
595.182,3254.1
595.348,3236.2
595.514,3274.5
595.68,3254.1
595.845,3235.1
596.011,3267.2
596.177,3263.8
596.342,3253.2
596.508,3268.2
596.674,3246.1
596.84,3257.6
597.005,3245.6
597.171,3282.7
597.337,3284.2
597.502,3232.8
597.668,3235.1
597.834,3226.1
597.999,3280.2
598.165,3246.7
598.331,3266.9
598.496,3236.6
598.662,3251.0
598.828,3213.3
598.993,3295.2
599.159,3266.1
599.324,3272.5
599.49,3267.0
599.656,3284.4
599.821,3221.6
599.987,3283.4
600.152,3287.6
600.318,3260.0
600.483,3278.7
600.649,3234.8
600.814,3240.9
600.98,3263.6
601.145,3223.4
601.311,3252.7
601.476,3243.7
601.642,3250.9
601.807,3246.9
601.973,3249.2
602.138,3230.3
602.304,3265.6
602.469,3257.2
602.635,3247.0
602.8,3275.8
602.965,3269.8
603.131,3280.4
603.296,3304.1
603.462,3256.6
603.627,3287.2
603.792,3262.7
603.958,3277.5
604.123,3264.9
604.288,3261.6
604.454,3257.2
604.619,3300.9
604.784,3288.7
604.95,3255.0
605.115,3279.1
605.28,3270.2
605.446,3248.1
605.611,3247.6
605.776,3284.0
605.941,3252.8
606.107,3259.4
606.272,3260.0
606.437,3261.9
606.602,3246.2
606.767,3257.9
606.933,3295.1
607.098,3277.6
607.263,3307.9
607.428,3281.2
607.593,3264.7
607.759,3245.3
607.924,3235.9
608.089,3255.4
608.254,3265.5
608.419,3254.6
608.584,3269.9
608.749,3260.4
608.915,3271.3
609.08,3276.3
609.245,3257.9
609.41,3256.3
609.575,3263.8
609.74,3280.6
609.905,3261.5
610.07,3250.8
610.235,3242.3
610.4,3230.3
610.565,3296.1
610.73,3285.0
610.895,3254.2
611.06,3262.2
611.225,3298.4
611.39,3275.0
611.555,3242.5
611.72,3226.3
611.885,3299.4
612.05,3231.4
612.215,3234.5
612.38,3298.9
612.545,3248.3
612.71,3249.9
612.875,3245.5
613.04,3265.6
613.204,3261.8
613.369,3268.0
613.534,3254.4
613.699,3189.0
613.864,3252.0
614.029,3241.1
614.194,3272.6
614.358,3290.4
614.523,3250.5
614.688,3225.4
614.853,3271.1
615.018,3260.8
615.182,3222.4
615.347,3258.2
615.512,3287.2
615.677,3264.5
615.841,3243.1
616.006,3241.0
616.171,3216.5
616.336,3215.3
616.5,3220.7
616.665,3270.5
616.83,3191.1
616.994,3213.4
617.159,3200.1
617.324,3277.1
617.489,3234.7
617.653,3247.1
617.818,3247.1
617.982,3253.3
618.147,3279.9
618.312,3249.3
618.476,3253.8
618.641,3218.4
618.805,3244.1
618.97,3249.2
619.135,3200.1
619.299,3279.4
619.464,3237.8
619.628,3227.4
619.793,3241.8
619.957,3260.3
620.122,3232.4
620.286,3230.1
620.451,3225.4
620.615,3256.8
620.78,3273.3
620.944,3252.8
621.109,3248.3
621.273,3220.6
621.438,3251.6
621.602,3201.7
621.767,3210.6
621.931,3234.7
622.095,3216.3
622.26,3228.8
622.424,3247.1
622.589,3218.6
622.753,3259.1
622.917,3268.3
623.082,3273.5
623.246,3254.6
623.41,3261.8
623.575,3233.4
623.739,3219.6
623.903,3229.8
624.068,3234.5
624.232,3214.2
624.396,3220.4
624.561,3176.1
624.725,3213.0
624.889,3193.8
625.053,3179.6
625.218,3174.2
625.382,3170.7
625.546,3210.9
625.71,3140.7
625.875,3219.8
626.039,3199.4
626.203,3186.7
626.367,3182.7
626.531,3198.5
626.695,3166.1
626.86,3192.0
627.024,3161.5
627.188,3174.4
627.352,3212.7
627.516,3163.8
627.68,3135.5
627.844,3180.6
628.008,3200.2
628.172,3244.7
628.337,3321.0
628.501,3333.4
628.665,3376.5
628.829,3288.5
628.993,3283.4
629.157,3302.6
629.321,3310.6
629.485,3329.9
629.649,3264.3
629.813,3292.0
629.977,3272.2
630.141,3332.6
630.305,3340.9
630.469,3411.9
630.633,3612.7
630.797,3808.7
630.96,4050.1
631.124,4150.6
631.288,3940.1
631.452,3727.8
631.616,3591.2
631.78,3471.8
631.944,3431.9
632.108,3407.5
632.272,3345.3
632.435,3370.4
632.599,3355.2
632.763,3425.2
632.927,3493.6
633.091,3503.6
633.254,3532.2
633.418,3536.6
633.582,3500.6
633.746,3385.5
633.91,3352.6
634.073,3274.8
634.237,3197.2
634.401,3198.9
634.564,3161.4
634.728,3128.7
634.892,3131.3
635.056,3076.8
635.219,3105.3
635.383,3094.1
635.547,3068.1
635.71,3092.1
635.874,3045.3
636.038,3073.5
636.201,3059.6
636.365,3038.9
636.528,3056.4
636.692,3046.7
636.856,3072.6
637.019,3015.3
637.183,3046.4
637.346,3072.4
637.51,3049.4
637.673,2976.0
637.837,3069.7
638.0,3043.6
638.164,3026.1
638.327,3021.1
638.491,3035.3
638.654,3049.8
638.818,2997.9
638.981,3022.5
639.145,3002.5
639.308,3008.5
639.472,3015.3
639.635,3014.4
639.799,2983.7
639.962,2972.9
640.125,2984.6
640.289,2998.2
640.452,2944.4
640.616,2943.5
640.779,2954.7
640.942,2947.2
641.106,2941.0
641.269,2937.8
641.432,2982.1
641.596,2916.4
641.759,2927.2
641.922,2937.5
642.085,2924.5
642.249,2934.8
642.412,2954.8
642.575,2939.5
642.738,2942.8
642.902,2930.6
643.065,2910.8
643.228,2891.0
643.391,2906.8
643.555,2928.5
643.718,2910.3
643.881,2891.0
644.044,2898.9
644.207,2928.4
644.37,2882.4
644.534,2907.2
644.697,2891.3
644.86,2880.3
645.023,2860.4
645.186,2871.5
645.349,2872.5
645.512,2893.5
645.675,2874.6
645.838,2874.6
646.001,2853.3
646.164,2853.1
646.327,2819.3
646.49,2830.7
646.653,2843.2
646.816,2821.4
646.979,2834.1
647.142,2823.9
647.305,2824.9
647.468,2814.6
647.631,2815.6
647.794,2807.2
647.957,2805.2
648.12,2809.6
648.283,2782.0
648.446,2770.3
648.609,2829.4
648.772,2826.3
648.935,2795.2
649.098,2762.9
649.26,2730.6
649.423,2720.1
649.586,2770.5
649.749,2754.4
649.912,2779.7
650.075,2719.6
650.237,2756.7
650.4,2755.9
650.563,2759.1
650.726,2768.9
650.888,2767.4
651.051,2739.4
651.214,2743.9
651.377,2746.8
651.539,2722.8
651.702,2697.3
651.865,2731.1
652.027,2755.5
652.19,2727.1
652.353,2735.8
652.515,2708.0
652.678,2706.2
652.841,2703.4
653.003,2710.8
653.166,2693.9
653.329,2697.2
653.491,2674.6
653.654,2665.5
653.816,2693.6
653.979,2688.7
654.142,2642.9
654.304,2651.5
654.467,2652.5
654.629,2625.3
654.792,2641.0
654.954,2646.5
655.117,2651.4
655.279,2652.9
655.442,2671.1
655.604,2608.8
655.767,2601.7
655.929,2613.0
656.091,2555.9
656.254,2522.8
656.416,2520.3
656.579,2595.4
656.741,2587.1
656.904,2584.4
657.066,2599.7
657.228,2625.0
657.391,2560.0
657.553,2588.0
657.715,2590.3
657.878,2597.9
658.04,2551.0
658.202,2584.2
658.365,2589.5
658.527,2580.6
658.689,2542.6
658.851,2589.3
659.014,2566.7
659.176,2590.8
659.338,2557.4
659.5,2555.0
659.663,2544.7
659.825,2540.4
659.987,2564.0
660.149,2554.3
660.311,2538.5
660.474,2550.0
660.636,2558.6
660.798,2548.3
660.96,2578.8
661.041,2551.6