File: spectra/VLFR_02-HDPE_bio_Raman_d7708473.csv
nm,Intensity
526.549,831.85
526.686,831.45
526.823,831.85
526.959,830.95
527.096,832.15
527.233,832.35
527.37,831.7
527.506,831.9
527.643,831.7
527.78,831.8
527.917,831.35
528.053,831.95
528.19,831.7
528.327,831.3
528.463,833.6
528.6,831.8
528.737,832.65
528.873,832.4
529.01,831.6
529.147,832.7
529.283,831.7
529.42,832.0
529.556,831.9
529.693,833.0
529.83,832.55
529.966,833.2
530.103,830.8
530.239,832.05
530.376,831.35
530.512,832.4
530.649,832.6
530.785,831.55
530.922,832.05
531.058,832.0
531.195,832.8
531.331,832.6
531.468,831.0
531.604,831.1
531.741,831.3
531.877,833.65
532.014,843.25
532.15,888.75
532.287,878.15
532.423,838.75
532.559,832.3
532.696,830.85
532.832,832.1
532.968,830.75
533.105,832.05
533.241,831.85
533.378,831.7
533.514,832.0
533.65,832.55
533.787,837.5
533.923,856.35
534.059,874.8
534.196,881.55
534.332,880.5
534.468,877.2
534.604,875.1
534.741,875.25
534.877,873.4
535.013,873.7
535.149,873.25
535.286,871.1
535.422,866.0
535.558,866.75
535.694,861.3
535.83,860.8
535.967,860.95
536.103,858.0
536.239,857.6
536.375,858.2
536.511,856.75
536.647,855.2
536.784,855.4
536.92,855.1
537.056,855.15
537.192,856.4
537.328,853.75
537.464,855.1
537.6,854.05
537.736,856.45
537.872,854.6
538.008,855.55
538.145,854.9
538.281,851.3
538.417,852.5
538.553,852.95
538.689,852.1
538.825,852.1
538.961,851.45
539.097,850.15
539.233,851.45
539.369,850.15
539.505,850.75
539.641,850.6
539.777,849.2
539.912,849.3
540.048,849.2
540.184,849.5
540.32,849.25
540.456,849.2
540.592,850.3
540.728,847.85
540.864,849.9
541.0,848.55
541.136,848.05
541.271,850.65
541.407,848.8
541.543,848.15
541.679,848.6
541.815,850.25
541.951,848.2
542.087,848.9
542.222,848.9
542.358,848.7
542.494,848.55
542.63,848.4
542.765,849.95
542.901,847.2
543.037,846.8
543.173,848.25
543.308,848.75
543.444,849.05
543.58,848.55
543.716,847.65
543.851,850.2
543.987,849.7
544.123,848.65
544.258,849.75
544.394,848.4
544.53,847.75
544.665,848.55
544.801,847.95
544.937,848.8
545.072,848.95
545.208,849.25
545.344,849.45
545.479,848.15
545.615,848.45
545.75,847.35
545.886,848.55
546.022,847.95
546.157,848.9
546.293,849.3
546.428,849.1
546.564,848.55
546.699,848.5
546.835,849.0
546.971,848.75
547.106,848.85
547.242,849.05
547.377,849.9
547.513,848.0
547.648,850.1
547.784,848.5
547.919,847.7
548.054,848.0
548.19,848.35
548.325,848.8
548.461,848.75
548.596,848.95
548.732,848.8
548.867,848.4
549.003,849.65
549.138,849.65
549.273,848.55
549.409,848.75
549.544,848.5
549.679,850.45
549.815,849.85
549.95,847.8
550.086,848.9
550.221,848.9
550.356,848.85
550.492,849.65
550.627,848.35
550.762,850.1
550.898,850.15
551.033,848.45
551.168,850.4
551.303,850.65
551.439,849.7
551.574,850.05
551.709,848.7
551.844,849.85
551.98,850.85
552.115,848.95
552.25,849.8
552.385,849.75
552.521,850.65
552.656,850.3
552.791,848.55
552.926,849.6
553.061,850.75
553.197,849.9
553.332,851.6
553.467,850.45
553.602,851.55
553.737,852.75
553.872,850.8
554.007,851.5
554.143,850.95
554.278,852.65
554.413,853.15
554.548,852.25
554.683,853.4
554.818,850.8
554.953,852.05
555.088,851.4
555.223,852.75
555.358,852.8
555.493,852.3
555.629,853.55
555.764,852.2
555.899,853.9
556.034,853.3
556.169,852.4
556.304,854.6
556.439,854.15
556.574,852.9
556.709,854.5
556.844,854.1
556.979,855.75
557.114,855.35
557.248,855.9
557.383,855.5
557.518,856.05
557.653,857.1
557.788,857.75
557.923,855.9
558.058,858.45
558.193,857.15
558.328,856.8
558.463,857.25
558.598,858.05
558.733,859.4
558.867,856.8
559.002,854.95
559.137,857.75
559.272,856.45
559.407,855.75
559.542,854.25
559.677,856.05
559.811,856.85
559.946,854.95
560.081,855.25
560.216,855.0
560.351,855.45
560.485,855.45
560.62,856.05
560.755,857.05
560.89,855.45
561.024,856.1
561.159,856.5
561.294,855.75
561.429,856.3
561.563,855.15
561.698,855.2
561.833,855.95
561.968,856.9
562.102,856.35
562.237,855.75
562.372,858.8
562.506,858.65
562.641,857.85
562.776,858.15
562.91,858.6
563.045,860.95
563.18,861.2
563.314,860.25
563.449,861.3
563.584,862.65
563.718,868.35
563.853,881.65
563.987,926.45
564.122,945.25
564.257,901.3
564.391,877.25
564.526,871.1
564.66,875.2
564.795,872.6
564.93,872.25
565.064,867.65
565.199,867.55
565.333,864.9
565.468,866.0
565.602,866.8
565.737,869.75
565.871,877.35
566.006,903.75
566.14,969.6
566.275,994.9
566.409,925.5
566.544,880.75
566.678,869.65
566.813,864.7
566.947,863.8
567.082,863.4
567.216,862.55
567.351,864.45
567.485,871.05
567.619,868.7
567.754,861.75
567.888,860.15
568.023,860.2
568.157,858.0
568.291,859.25
568.426,859.45
568.56,858.8
568.695,859.9
568.829,858.0
568.963,860.55
569.098,860.25
569.232,861.7
569.366,860.65
569.501,861.6
569.635,861.6
569.769,861.4
569.904,860.45
570.038,860.4
570.172,862.65
570.307,863.05
570.441,863.95
570.575,865.5
570.709,867.75
570.844,867.95
570.978,867.8
571.112,867.2
571.247,875.15
571.381,900.5
571.515,1008.05
571.649,1035.25
571.783,926.55
571.918,887.65
572.052,878.95
572.186,874.8
572.32,870.5
572.455,867.25
572.589,866.35
572.723,865.05
572.857,861.8
572.991,862.45
573.125,862.6
573.26,862.05
573.394,862.85
573.528,861.95
573.662,862.4
573.796,865.8
573.93,870.75
574.064,871.1
574.199,867.85
574.333,863.75
574.467,860.85
574.601,862.4
574.735,861.65
574.869,861.85
575.003,862.3
575.137,864.2
575.271,867.75
575.405,887.8
575.539,927.7
575.673,925.35
575.807,900.45
575.941,894.75
576.075,906.9
576.209,929.1
576.344,950.2
576.478,943.3
576.612,923.55
576.746,915.15
576.88,916.7
577.014,918.15
577.147,912.3
577.281,906.2
577.415,895.4
577.549,883.2
577.683,876.1
577.817,875.05
577.951,872.2
578.085,868.4
578.219,867.1
578.353,869.05
578.487,866.85
578.621,867.35
578.755,866.95
578.889,866.4
579.023,867.85
579.156,868.7
579.29,868.2
579.424,870.3
579.558,868.3
579.692,868.4
579.826,868.55
579.96,870.6
580.094,868.75
580.227,868.8
580.361,870.25
580.495,871.45
580.629,871.95
580.763,870.6
580.897,871.0
581.03,871.5
581.164,871.4
581.298,871.35
581.432,873.7
581.565,873.9
581.699,873.3
581.833,874.25
581.967,877.3
582.101,877.5
582.234,877.1
582.368,878.4
582.502,876.15
582.636,879.0
582.769,876.4
582.903,880.95
583.037,880.0
583.17,880.9
583.304,881.5
583.438,882.6
583.572,880.5
583.705,882.3
583.839,880.5
583.973,883.6
584.106,884.4
584.24,884.35
584.374,884.6
584.507,883.45
584.641,884.6
584.775,885.95
584.908,884.65
585.042,885.3
585.175,887.55
585.309,886.9
585.443,885.3
585.576,886.65
585.71,886.75
585.844,889.5
585.977,886.3
586.111,885.8
586.244,889.05
586.378,888.7
586.511,890.2
586.645,888.95
586.779,887.4
586.912,888.55
587.046,889.4
587.179,893.45
587.313,890.45
587.446,888.3
587.58,887.8
587.713,886.6
587.847,890.45
587.98,889.7
588.114,888.5
588.247,890.35
588.381,890.3
588.514,887.0
588.648,888.45
588.781,888.85
588.915,886.3
589.048,885.25
589.182,887.2
589.315,891.2
589.449,888.9
589.582,889.15
589.716,887.3
589.849,888.3
589.982,889.8
590.116,888.35
590.249,890.45
590.383,888.95
590.516,887.95
590.65,893.25
590.783,892.1
590.916,891.1
591.05,891.45
591.183,891.9
591.316,891.15
591.45,892.85
591.583,888.45
591.717,891.0
591.85,892.75
591.983,893.1
592.117,890.7
592.25,889.6
592.383,892.6
592.517,891.2
592.65,895.9
592.783,893.6
592.917,894.6
593.05,893.3
593.183,894.05
593.316,890.7
593.45,893.7
593.583,893.65
593.716,895.6
593.85,892.65
593.983,892.55
594.116,894.65
594.249,894.25
594.383,894.25
594.516,895.75
594.649,892.3
594.782,893.8
594.916,893.05
595.049,893.45
595.182,897.15
595.315,898.2
595.449,897.0
595.582,895.65
595.715,896.65
595.848,896.0
595.981,896.8
596.115,895.95
596.248,894.1
596.381,897.55
596.514,896.2
596.647,896.5
596.78,893.65
596.914,895.9
597.047,896.3
597.18,897.35
597.313,897.1
597.446,894.95
597.579,893.35
597.712,895.85
597.846,895.95
597.979,896.05
598.112,896.95
598.245,895.5
598.378,897.45
598.511,894.75
598.644,896.4
598.777,896.5
598.91,896.3
599.043,897.6
599.177,895.75
599.31,897.5
599.443,896.9
599.576,897.1
599.709,896.7
599.842,899.45
599.975,898.9
600.108,897.0
600.241,895.45
600.374,894.25
600.507,895.7
600.64,895.4
600.773,894.15
600.906,895.05
601.039,895.7
601.172,895.5
601.305,898.75
601.438,895.15
601.571,896.7
601.704,893.95
601.837,897.3
601.97,899.45
602.103,897.2
602.236,899.25
602.369,896.6
602.502,896.8
602.635,894.1
602.768,894.0
602.901,896.35
603.034,894.1
603.166,893.9
603.299,894.6
603.432,895.3
603.565,893.85
603.698,892.8
603.831,895.05
603.964,894.55
604.097,894.15
604.23,893.35
604.363,895.8
604.496,893.35
604.628,894.3
604.761,895.35
604.894,893.9
605.027,889.85
605.16,891.25
605.293,893.0
605.426,891.65
605.558,891.5
605.691,890.3
605.824,891.7
605.957,889.05
606.09,891.95
606.223,892.15
606.355,889.05
606.488,888.3
606.621,891.4
606.754,889.2
606.887,890.3
607.019,888.1
607.152,889.3
607.285,889.85
607.418,889.6
607.551,890.2
607.683,890.0
607.816,889.15
607.949,890.85
608.082,888.75
608.214,888.3
608.347,888.9
608.48,890.6
608.613,890.25
608.745,888.35
608.878,891.15
609.011,887.9
609.143,890.15
609.276,889.3
609.409,889.35
609.542,891.5
609.674,888.5
609.807,890.05
609.94,890.2
610.072,889.45
610.205,886.15
610.338,888.15
610.47,888.55
610.603,888.15
610.736,887.35
610.868,889.7
611.001,891.3
611.134,889.9
611.266,891.25
611.399,890.4
611.532,890.3
611.664,887.35
611.797,889.25
611.93,889.7
612.062,888.0
612.195,887.0
612.327,887.25
612.46,887.15
612.593,886.35
612.725,888.7
612.858,887.0
612.99,885.75
613.123,885.55
613.256,890.9
613.388,888.1
613.521,889.3
613.653,885.45
613.786,885.45
613.919,887.9
614.051,888.35
614.184,887.6
614.316,887.25
614.449,889.75
614.581,886.5
614.714,885.65
614.846,889.65
614.979,887.95
615.111,886.45
615.244,886.85
615.376,888.25
615.509,884.8
615.641,887.2
615.774,887.05
615.906,885.25
616.039,889.05
616.171,884.8
616.304,886.5
616.436,887.25
616.569,885.95
616.701,887.1
616.834,891.05
616.966,890.0
617.099,889.9
617.231,890.65
617.364,891.0
617.496,890.95
617.629,892.0
617.761,892.5
617.894,888.45
618.026,890.7
618.158,890.15
618.291,889.8
618.423,890.4
618.556,890.2
618.688,887.7
618.82,887.1
618.953,887.65
619.085,890.35
619.218,889.9
619.35,890.75
619.482,891.4
619.615,892.4
619.747,891.15
619.88,892.4
620.012,891.0
620.144,889.25
620.277,891.35
620.409,892.95
620.541,891.9
620.674,891.8
620.806,895.55
620.939,892.8
621.071,896.9
621.203,896.55
621.336,899.6
621.468,901.0
621.6,905.55
621.733,908.15
621.865,913.35
621.997,917.15
622.13,926.35
622.262,926.95
622.394,928.7
622.526,923.65
622.659,918.45
622.791,912.55
622.923,904.6
623.056,900.7
623.188,898.95
623.32,896.1
623.452,892.5
623.585,891.2
623.717,891.25
623.849,891.85
623.981,891.5
624.114,892.1
624.246,891.2
624.378,890.4
624.511,892.05
624.643,890.85
624.775,890.95
624.907,892.05
625.039,893.0
625.172,895.25
625.304,892.8
625.436,894.15
625.568,897.45
625.701,901.2
625.833,899.45
625.965,905.45
626.097,909.25
626.229,915.7
626.362,926.1
626.494,944.6
626.626,979.75
626.758,1046.65
626.89,1155.6
627.022,1305.25
627.155,1454.65
627.287,1509.15
627.419,1452.0
627.551,1370.05
627.683,1303.45
627.815,1255.45
627.948,1220.95
628.08,1210.3
628.212,1220.05
628.344,1269.85
628.476,1425.85
628.608,1550.5
628.74,1414.9
628.873,1286.75
629.005,1232.25
629.137,1217.8
629.269,1206.4
629.401,1186.0
629.533,1160.2
629.665,1131.25
629.797,1107.4
629.929,1088.95
630.061,1084.2
630.194,1077.0
630.326,1077.55
630.458,1070.75
630.59,1057.2
630.722,1041.6
630.854,1016.9
630.986,990.65
631.118,961.85
631.25,937.9
631.382,924.9
631.514,915.25
631.646,911.85
631.778,905.3
631.91,904.25
632.042,903.05
632.175,900.25
632.307,895.75
632.439,896.4
632.571,894.2
632.703,893.45
632.835,893.9
632.967,894.3
633.099,893.65
633.231,889.9
633.363,889.7
633.495,890.3
633.627,891.75
633.759,888.3
633.891,887.8
634.023,888.0
634.155,886.55
634.287,888.7
634.419,888.2
634.551,886.45
634.683,886.65
634.815,888.05
634.947,887.6
635.079,885.6
635.21,887.0
635.342,885.25
635.474,884.5
635.606,884.4
635.738,887.4
635.87,885.3
636.002,886.25
636.134,885.8
636.266,886.95
636.398,887.25
636.53,886.0
636.662,885.55
636.794,886.1
636.926,884.75
637.058,883.8
637.19,884.8
637.321,883.85
637.453,881.2
637.585,881.85
637.717,883.3
637.849,882.55
637.981,881.35
638.113,882.4
638.245,882.65
638.377,882.65
638.509,881.95
638.64,883.3
638.772,884.0
638.904,881.15
639.036,882.3
639.168,880.4
639.3,881.0
639.432,883.75
639.563,879.75
639.695,882.35
639.827,880.5
639.959,879.25
640.091,880.0
640.223,881.9
640.355,882.2
640.486,878.6
640.618,879.35
640.75,880.0
640.882,879.8
641.014,880.45
641.146,880.0
641.277,881.35
641.409,880.7
641.541,881.4
641.673,881.5
641.805,879.2
641.936,880.85
642.068,880.35
642.2,881.65
642.332,878.75
642.464,880.35
642.595,882.05
642.727,880.45
642.859,881.8
642.991,879.4
643.123,879.8
643.254,880.95
643.386,881.95
643.518,878.85
643.65,878.95
643.781,878.95
643.913,877.8
644.045,881.65
644.177,879.1
644.309,880.5
644.44,879.65
644.572,880.35
644.704,879.85
644.836,880.0
644.967,877.75
645.099,877.65
645.231,878.25
645.362,878.25
645.494,878.0
645.626,878.5
645.758,877.2
645.889,880.0
646.021,876.7
646.153,878.3
646.285,879.45
646.416,877.1
646.548,879.7
646.68,879.6
646.811,879.4
646.943,879.35
647.075,879.6
647.206,878.2
647.338,878.7
647.47,877.05
647.602,878.0
647.733,880.2
647.865,879.85
647.997,879.6
648.128,878.15
648.26,877.8
648.392,877.2
648.523,877.45
648.655,879.85
648.787,879.6
648.918,877.9
649.05,878.4
649.182,877.2
649.313,876.15
649.445,876.35
649.577,877.15
649.708,877.35
649.84,877.65
649.972,876.8
650.103,878.3
650.235,876.9
650.366,878.25
650.498,876.75
650.63,876.15
650.761,876.75
650.893,876.9
651.025,877.5
651.156,874.75
651.288,877.0
651.419,875.2
651.551,873.95
651.683,875.6
651.814,876.35
651.946,875.35
652.077,877.1
652.209,877.35
652.341,874.7
652.472,875.85
652.604,874.4
652.735,874.0
652.867,877.25
652.999,877.3
653.13,877.6
653.262,873.9
653.393,875.65
653.525,876.05
653.657,875.15
653.788,875.4
653.92,876.2
654.051,875.0
654.183,873.6
654.314,876.45
654.446,874.15
654.578,873.75
654.709,874.85
654.841,874.85
654.972,874.1
655.104,875.85
655.235,874.15
655.367,874.6
655.498,875.6
655.63,872.95
655.762,874.4
655.893,872.7
656.025,872.6
656.156,870.85
656.288,872.2
656.419,871.65
656.551,871.95
656.682,873.15
656.814,873.15
656.945,872.2
657.077,871.85
657.208,872.75
657.34,872.6
657.471,873.35
657.603,872.75
657.734,875.6
657.866,872.85
657.997,872.35
658.129,874.5
658.26,871.95
658.392,873.6
658.523,872.3
658.655,872.25
658.786,872.6
658.918,871.35
659.049,872.6
659.181,871.15
659.312,870.45
659.444,871.75
659.575,873.45
659.707,873.1
659.838,873.9
659.97,872.2
660.101,874.85
660.233,872.05
660.364,874.45
660.496,874.0
660.627,872.25
660.759,873.45
660.89,870.6
661.022,869.2
661.153,871.7
661.285,871.15
661.416,870.2
661.547,869.7
661.679,870.15
661.81,869.4
661.942,870.15
662.073,869.5
662.205,869.3
662.336,869.55
662.468,868.95
662.599,869.1
662.731,871.35
662.862,870.8
662.993,868.65
663.125,868.35