File: spectra/VLFR_01-LDPE_bio_Raman_06634192.csv
nm,Intensity
528.635,1835.3
528.803,1836.1
528.972,1832.6
529.14,1835.3
529.308,1835.6
529.477,1836.3
529.645,1834.5
529.814,1836.2
529.982,1835.3
530.151,1835.5
530.319,1835.6
530.487,1835.4
530.656,1835.8
530.824,1836.4
530.993,1837.0
531.161,1836.6
531.329,1840.9
531.498,1846.3
531.666,1883.7
531.835,2447.6
532.003,4136.1
532.171,3785.4
532.34,2053.0
532.508,1837.7
532.676,1838.6
532.845,1835.0
533.013,1837.2
533.181,1838.2
533.35,1836.6
533.518,1869.1
533.686,2029.8
533.854,2267.2
534.023,2420.7
534.191,2413.2
534.359,2382.3
534.528,2378.5
534.696,2370.9
534.864,2344.1
535.032,2318.9
535.201,2286.9
535.369,2239.8
535.537,2211.8
535.705,2182.5
535.874,2171.8
536.042,2152.0
536.21,2128.6
536.378,2121.0
536.546,2116.1
536.715,2140.9
536.883,2130.7
537.051,2114.9
537.219,2110.1
537.387,2116.5
537.556,2127.8
537.724,2114.6
537.892,2110.5
538.06,2104.8
538.228,2092.5
538.396,2082.9
538.565,2075.8
538.733,2067.2
538.901,2061.0
539.069,2065.5
539.237,2052.6
539.405,2061.9
539.573,2049.4
539.741,2039.2
539.909,2034.7
540.077,2031.5
540.246,2031.9
540.414,2032.5
540.582,2035.1
540.75,2028.4
540.918,2018.9
541.086,2019.4
541.254,2032.6
541.422,2010.8
541.59,2012.6
541.758,2022.9
541.926,2010.9
542.094,2024.3
542.262,2023.4
542.43,2019.5
542.598,2014.7
542.766,2006.6
542.934,2007.6
543.102,2013.0
543.27,2006.7
543.438,2012.5
543.606,2008.5
543.774,2012.2
543.942,2018.4
544.11,2012.2
544.278,2012.1
544.445,1997.8
544.613,2002.7
544.781,2009.6
544.949,1997.6
545.117,2001.1
545.285,2004.5
545.453,2007.9
545.621,1997.1
545.789,1999.4
545.957,2002.0
546.124,2007.4
546.292,2009.0
546.46,1998.9
546.628,1994.1
546.796,1999.2
546.964,1997.6
547.131,1995.1
547.299,1993.7
547.467,1995.9
547.635,1993.2
547.803,1999.0
547.97,1999.9
548.138,1990.2
548.306,1993.4
548.474,1997.2
548.642,1993.1
548.809,1995.6
548.977,1989.8
549.145,1993.5
549.313,1986.4
549.48,1994.8
549.648,1988.7
549.816,1988.4
549.983,1987.3
550.151,1985.5
550.319,1978.9
550.487,1984.6
550.654,1986.2
550.822,1992.4
550.99,1990.3
551.157,1988.7
551.325,1994.1
551.493,1997.5
551.66,2000.2
551.828,1989.5
551.996,1988.4
552.163,1988.7
552.331,1999.8
552.499,1990.6
552.666,2000.8
552.834,2005.4
553.001,2000.4
553.169,2015.7
553.337,2029.6
553.504,2035.7
553.672,2039.5
553.839,2022.0
554.007,2034.7
554.174,2030.3
554.342,2042.4
554.509,2039.3
554.677,2043.6
554.845,2044.2
555.012,2052.1
555.18,2053.1
555.347,2048.1
555.515,2066.5
555.682,2059.0
555.85,2065.4
556.017,2071.5
556.185,2078.4
556.352,2085.5
556.52,2086.3
556.687,2083.9
556.854,2114.3
557.022,2106.4
557.189,2121.3
557.357,2119.7
557.524,2128.2
557.692,2139.3
557.859,2158.9
558.026,2167.6
558.194,2163.8
558.361,2180.3
558.529,2181.7
558.696,2183.8
558.863,2155.4
559.031,2130.6
559.198,2134.7
559.365,2126.3
559.533,2128.1
559.7,2119.7
559.867,2116.0
560.035,2119.9
560.202,2108.7
560.369,2105.7
560.537,2098.5
560.704,2113.5
560.871,2099.9
561.039,2110.8
561.206,2105.1
561.373,2133.6
561.54,2125.7
561.708,2136.3
561.875,2131.1
562.042,2150.8
562.209,2146.5
562.377,2162.9
562.544,2194.2
562.711,2180.8
562.878,2195.8
563.046,2204.1
563.213,2223.1
563.38,2265.4
563.547,2297.3
563.714,2480.2
563.881,2849.2
564.049,3025.9
564.216,2756.8
564.383,2488.8
564.55,2434.1
564.717,2435.3
564.884,2407.0
565.052,2333.9
565.219,2295.8
565.386,2319.8
565.553,2348.5
565.72,2420.3
565.887,2671.7
566.054,3043.8
566.221,3022.8
566.388,2596.0
566.555,2393.3
566.722,2329.1
566.889,2295.9
567.056,2277.3
567.224,2308.1
567.391,2348.4
567.558,2334.6
567.725,2284.0
567.892,2250.1
568.059,2234.0
568.226,2229.6
568.393,2247.1
568.56,2251.4
568.727,2239.3
568.893,2247.6
569.06,2240.0
569.227,2243.2
569.394,2260.5
569.561,2261.5
569.728,2258.9
569.895,2269.2
570.062,2291.5
570.229,2297.7
570.396,2329.1
570.563,2329.7
570.73,2379.3
570.897,2392.9
571.063,2464.4
571.23,2719.5
571.397,3346.0
571.564,3865.0
571.731,3141.3
571.898,2749.6
572.064,2623.7
572.231,2582.1
572.398,2476.8
572.565,2429.8
572.732,2389.1
572.899,2374.7
573.065,2371.5
573.232,2375.0
573.399,2361.7
573.566,2407.4
573.732,2429.2
573.899,2458.5
574.066,2450.7
574.233,2402.3
574.399,2386.5
574.566,2385.7
574.733,2402.8
574.9,2405.0
575.066,2424.9
575.233,2519.5
575.4,2757.1
575.566,2966.5
575.733,2955.3
575.9,3041.9
576.066,3440.7
576.233,3868.7
576.4,3774.4
576.566,3489.8
576.733,3406.1
576.899,3400.8
577.066,3327.2
577.233,3163.2
577.399,2994.9
577.566,2784.1
577.732,2766.6
577.899,2716.5
578.066,2717.9
578.232,2741.3
578.399,2768.1
578.565,2736.1
578.732,2785.0
578.898,2808.8
579.065,2850.5
579.231,2849.4
579.398,2870.7
579.564,2900.1
579.731,2947.3
579.897,2938.8
580.064,3037.4
580.23,3043.3
580.397,3017.4
580.563,3090.8
580.73,3102.4
580.896,3191.2
581.063,3158.9
581.229,3164.4
581.396,3263.1
581.562,3303.8
581.728,3306.8
581.895,3322.8
582.061,3345.7
582.228,3361.6
582.394,3449.0
582.56,3441.3
582.727,3422.2
582.893,3484.4
583.059,3556.3
583.226,3528.9
583.392,3526.1
583.558,3531.8
583.725,3581.2
583.891,3546.7
584.057,3619.2
584.224,3669.5
584.39,3644.6
584.556,3668.7
584.722,3631.5
584.889,3720.4
585.055,3657.2
585.221,3711.4
585.387,3692.3
585.554,3641.4
585.72,3728.3
585.886,3683.8
586.052,3732.1
586.219,3796.8
586.385,3723.5
586.551,3755.5
586.717,3773.5
586.883,3766.9
587.049,3834.3
587.216,3773.2
587.382,3760.3
587.548,3902.1
587.714,3844.8
587.88,3750.5
588.046,3868.6
588.212,3825.7
588.379,3817.1
588.545,3827.8
588.711,3946.7
588.877,3835.5
589.043,3901.7
589.209,3905.8
589.375,3823.2
589.541,3895.4
589.707,3984.1
589.873,3896.8
590.039,3910.9
590.205,3912.3
590.371,3919.4
590.537,3932.3
590.703,4025.1
590.869,4064.1
591.035,3987.6
591.201,3946.2
591.367,4051.9
591.533,4059.3
591.699,4116.2
591.865,4092.5
592.031,3976.5
592.197,4086.6
592.363,4037.0
592.529,4025.5
592.695,4095.4
592.86,4047.5
593.026,4077.6
593.192,4067.3
593.358,4061.7
593.524,4082.7
593.69,4036.5
593.856,4096.1
594.022,4098.4
594.187,4022.7
594.353,4099.7
594.519,4086.9
594.685,4122.1
594.851,4107.4
595.016,4114.6
595.182,4105.7
595.348,4094.6
595.514,4152.4
595.679,4153.8
595.845,4081.7
596.011,4101.6
596.177,4191.7
596.342,4100.8
596.508,4106.2
596.674,4160.4
596.84,4123.4
597.005,4198.7
597.171,4170.0
597.337,4115.9
597.502,4131.4
597.668,4154.0
597.834,4201.0
597.999,4220.6
598.165,4146.1
598.331,4205.4
598.496,4197.7
598.662,4241.9
598.827,4250.2
598.993,4226.9
599.159,4294.1
599.324,4271.3
599.49,4302.5
599.655,4305.3
599.821,4293.0
599.987,4318.8
600.152,4276.6
600.318,4225.2
600.483,4296.3
600.649,4262.2
600.814,4348.3
600.98,4371.8
601.145,4329.3
601.311,4341.9
601.476,4244.8
601.642,4307.6
601.807,4306.2
601.973,4331.4
602.138,4297.7
602.303,4279.2
602.469,4231.8
602.634,4258.8
602.8,4238.9
602.965,4165.3
603.13,4196.5
603.296,4234.0
603.461,4147.8
603.627,4108.1
603.792,4129.6
603.957,4050.1
604.123,4054.8
604.288,4047.0
604.453,3993.4
604.619,3983.6
604.784,3945.3
604.949,3945.4
605.115,3909.2
605.28,3906.7
605.445,3882.2
605.61,3793.4
605.776,3766.4
605.941,3825.9
606.106,3803.4
606.272,3783.7
606.437,3733.3
606.602,3692.7
606.767,3661.3
606.932,3649.4
607.098,3566.0
607.263,3645.1
607.428,3606.1
607.593,3586.6
607.758,3558.3
607.923,3495.3
608.089,3474.9
608.254,3486.4
608.419,3477.0
608.584,3470.9
608.749,3392.4
608.914,3358.8
609.079,3332.3
609.244,3383.6
609.41,3400.1
609.575,3278.2
609.74,3336.2
609.905,3288.2
610.07,3264.4
610.235,3306.1
610.4,3302.8
610.565,3232.4
610.73,3255.1
610.895,3260.5
611.06,3243.7
611.225,3226.5
611.39,3205.7
611.555,3174.7
611.72,3188.1
611.885,3154.6
612.05,3187.4
612.215,3105.6
612.38,3137.4
612.545,3106.3
612.709,3078.1
612.874,3094.4
613.039,3064.0
613.204,3058.9
613.369,3101.1
613.534,3070.7
613.699,3021.3
613.864,3022.7
614.028,3023.9
614.193,3003.7
614.358,3023.3
614.523,3005.0
614.688,2964.0
614.853,2974.5
615.017,2972.5
615.182,2994.3
615.347,2975.6
615.512,2949.4
615.676,2981.0
615.841,2961.6
616.006,2973.9
616.171,2919.4
616.335,2921.0
616.5,2961.9
616.665,2921.7
616.829,2953.7
616.994,2924.4
617.159,2943.9
617.324,2932.7
617.488,2943.5
617.653,2930.2
617.818,2921.5
617.982,2916.5
618.147,2921.4
618.311,2907.3
618.476,2900.4
618.641,2929.0
618.805,2894.3
618.97,2885.2
619.134,2877.6
619.299,2941.2
619.463,2920.6
619.628,2923.2
619.793,2914.8
619.957,2929.1
620.122,2888.4
620.286,2900.5
620.451,2907.3
620.615,2912.5
620.78,2965.6
620.944,2943.5
621.109,2961.5
621.273,3006.4
621.438,3012.8
621.602,3057.4
621.766,3110.4
621.931,3150.9
622.095,3224.4
622.26,3243.9
622.424,3241.1
622.588,3172.0
622.753,3071.2
622.917,3005.8
623.082,2959.2
623.246,2901.7
623.41,2884.4
623.575,2864.6
623.739,2889.5
623.903,2879.6
624.068,2865.9
624.232,2875.4
624.396,2862.1
624.56,2910.0
624.725,2873.4
624.889,2872.6
625.053,2888.6
625.218,2912.1
625.382,2957.3
625.546,2976.3
625.71,2978.1
625.874,3023.5
626.039,3061.5
626.203,3226.7
626.367,3438.4
626.531,3922.0
626.695,4898.4
626.86,6463.8
627.024,8079.3
627.188,9230.7
627.352,8944.0
627.516,7888.5
627.68,6987.4
627.844,6787.2
628.008,6866.0
628.172,7336.8
628.337,8749.0
628.501,9927.6
628.665,9188.8
628.829,7994.7
628.993,7377.9
629.157,7179.7
629.321,6669.7
629.485,6427.5
629.649,6116.0
629.813,5733.9
629.977,5638.3
630.141,5384.2
630.305,5407.2
630.469,5342.5
630.633,5019.3
630.797,4803.1
630.961,4192.5
631.124,3741.6
631.288,3618.0
631.452,3432.5
631.616,3320.1
631.78,3252.8
631.944,3207.5
632.108,3156.0
632.272,3131.4
632.436,3113.0
632.599,3022.6
632.763,3010.5
632.927,3103.8
633.091,3008.7
633.255,3013.0
633.418,2991.6
633.582,2989.9
633.746,2985.0
633.91,2966.4
634.074,2982.1
634.237,2997.5
634.401,2977.2
634.565,2950.5
634.728,2881.8
634.892,2954.1
635.056,2977.5
635.22,2929.2
635.383,2931.3
635.547,2911.2
635.711,2896.1
635.874,2936.4
636.038,2953.3
636.202,2875.5
636.365,2936.0
636.529,2909.2
636.692,2882.8
636.856,2891.8
637.02,2900.0
637.183,2903.7
637.347,2887.4
637.51,2863.2
637.674,2846.3
637.837,2879.5
638.001,2884.1
638.164,2871.1
638.328,2857.8
638.491,2873.1
638.655,2846.6
638.818,2799.4
638.982,2863.5
639.145,2848.1
639.309,2822.1
639.472,2831.8
639.636,2828.9
639.799,2837.9
639.963,2807.1
640.126,2802.4
640.289,2822.7
640.453,2792.1
640.616,2772.7
640.78,2808.7
640.943,2809.9
641.106,2766.1
641.27,2771.1
641.433,2799.4
641.596,2809.1
641.76,2763.7
641.923,2803.2
642.086,2807.6
642.249,2791.0
642.413,2792.8
642.576,2815.3
642.739,2782.6
642.903,2751.7
643.066,2766.0
643.229,2745.4
643.392,2776.2
643.555,2763.8
643.719,2800.1
643.882,2799.5
644.045,2760.2
644.208,2792.4
644.371,2781.4
644.534,2738.9
644.698,2780.4
644.861,2812.2
645.024,2762.0
645.187,2757.8
645.35,2766.8
645.513,2778.2
645.676,2779.7
645.839,2757.7
646.002,2694.5
646.165,2753.0
646.329,2781.0
646.492,2772.6
646.655,2763.4
646.818,2713.4
646.981,2718.6
647.144,2748.2
647.307,2724.2
647.47,2789.3
647.633,2712.6
647.796,2708.7
647.958,2701.5
648.121,2754.8
648.284,2723.7
648.447,2731.5
648.61,2711.5
648.773,2694.8
648.936,2701.1
649.099,2670.6
649.262,2678.6
649.425,2635.6
649.587,2667.3
649.75,2666.8
649.913,2695.5
650.076,2674.8
650.239,2658.7
650.402,2688.7
650.564,2647.9
650.727,2640.5
650.89,2646.5
651.053,2628.5
651.215,2654.6
651.378,2639.9
651.541,2651.7
651.704,2626.3
651.866,2639.0
652.029,2640.6
652.192,2654.8
652.354,2633.1
652.517,2598.5
652.68,2634.9
652.842,2635.9
653.005,2644.9
653.168,2595.5
653.33,2623.6
653.493,2602.1
653.656,2612.7
653.818,2576.5
653.981,2607.6
654.143,2592.6
654.306,2580.6
654.468,2586.2
654.631,2579.5
654.794,2556.0
654.956,2596.5
655.119,2560.2
655.281,2551.4
655.444,2575.7
655.606,2576.8
655.769,2559.9
655.931,2570.6
656.093,2557.9
656.256,2527.2
656.418,2553.2
656.581,2553.7
656.743,2535.4
656.906,2504.6
657.068,2494.4
657.23,2474.2
657.393,2511.1
657.555,2490.0
657.718,2476.4
657.88,2458.0
658.042,2451.0
658.205,2451.1
658.367,2440.8
658.529,2414.3
658.691,2434.5
658.854,2448.8
659.016,2416.9
659.178,2426.0
659.341,2409.8
659.503,2398.8
659.665,2390.7
659.827,2421.3
659.989,2397.8
660.152,2390.2
660.314,2345.5
660.476,2351.6
660.638,2367.4
660.8,2348.6
660.963,2341.9
661.044,2332.5