File: spectra/VLFR_06-PET_bio_Raman_00515583.csv
nm,Intensity
528.626,1864.99
528.795,1864.86
528.963,1865.18
529.132,1865.23
529.3,1866.17
529.469,1865.61
529.637,1865.4
529.806,1865.5
529.974,1865.35
530.143,1866.11
530.311,1865.56
530.48,1866.33
530.648,1866.12
530.816,1866.3
530.985,1866.93
531.153,1868.47
531.322,1870.42
531.49,1876.23
531.658,1910.94
531.827,2513.42
531.995,6291.48
532.164,5444.65
532.332,2385.3
532.5,1874.01
532.669,1868.61
532.837,1868.01
533.006,1867.73
533.174,1867.09
533.342,1868.78
533.511,1888.12
533.679,2014.01
533.847,2278.93
534.016,2481.9
534.184,2563.92
534.352,2538.34
534.521,2505.93
534.689,2484.94
534.857,2502.1
535.025,2465.45
535.194,2459.0
535.362,2436.18
535.53,2424.29
535.699,2395.77
535.867,2372.4
536.035,2353.54
536.203,2342.99
536.372,2340.25
536.54,2324.63
536.708,2315.81
536.876,2303.87
537.044,2302.82
537.213,2295.84
537.381,2309.4
537.549,2305.57
537.717,2301.59
537.885,2303.42
538.054,2298.33
538.222,2288.29
538.39,2298.85
538.558,2303.03
538.726,2299.6
538.894,2298.77
539.063,2301.17
539.231,2307.09
539.399,2308.84
539.567,2303.34
539.735,2304.08
539.903,2311.71
540.071,2308.34
540.239,2311.94
540.408,2309.77
540.576,2318.89
540.744,2306.32
540.912,2314.54
541.08,2305.72
541.248,2309.51
541.416,2309.93
541.584,2304.99
541.752,2315.4
541.92,2330.35
542.088,2330.94
542.256,2328.13
542.424,2329.61
542.592,2330.88
542.76,2333.3
542.928,2338.88
543.096,2336.97
543.264,2338.97
543.432,2343.36
543.6,2339.51
543.768,2348.57
543.936,2360.24
544.104,2353.83
544.272,2342.68
544.44,2353.9
544.608,2359.55
544.776,2354.76
544.944,2360.58
545.112,2366.08
545.28,2358.0
545.448,2364.74
545.616,2370.54
545.784,2372.37
545.951,2372.16
546.119,2374.65
546.287,2375.75
546.455,2382.62
546.623,2386.61
546.791,2395.57
546.959,2402.04
547.127,2397.51
547.294,2396.96
547.462,2411.19
547.63,2411.02
547.798,2408.77
547.966,2414.08
548.134,2406.3
548.301,2411.78
548.469,2418.91
548.637,2427.06
548.805,2419.87
548.972,2423.27
549.14,2428.47
549.308,2425.87
549.476,2430.35
549.644,2421.99
549.811,2427.43
549.979,2427.03
550.147,2429.92
550.315,2441.5
550.482,2444.61
550.65,2456.64
550.818,2460.25
550.985,2454.61
551.153,2461.42
551.321,2454.64
551.488,2459.11
551.656,2464.56
551.824,2461.81
551.991,2480.2
552.159,2466.09
552.327,2472.28
552.494,2468.11
552.662,2486.0
552.83,2459.8
552.997,2468.6
553.165,2474.35
553.333,2474.05
553.5,2487.92
553.668,2483.65
553.835,2493.75
554.003,2493.53
554.171,2495.43
554.338,2519.44
554.506,2504.54
554.673,2510.6
554.841,2511.97
555.008,2503.68
555.176,2515.35
555.343,2523.32
555.511,2519.04
555.679,2513.45
555.846,2531.08
556.014,2529.18
556.181,2534.72
556.349,2535.47
556.516,2544.75
556.684,2539.08
556.851,2548.62
557.018,2557.05
557.186,2559.04
557.353,2575.39
557.521,2573.82
557.688,2577.39
557.856,2566.39
558.023,2562.48
558.191,2571.77
558.358,2574.79
558.525,2575.54
558.693,2576.11
558.86,2582.81
559.028,2581.6
559.195,2572.88
559.362,2587.47
559.53,2573.86
559.697,2587.75
559.864,2600.15
560.032,2593.6
560.199,2592.0
560.366,2582.08
560.534,2590.38
560.701,2606.19
560.868,2604.85
561.036,2597.05
561.203,2611.9
561.37,2622.12
561.538,2623.63
561.705,2633.17
561.872,2623.75
562.039,2633.56
562.207,2659.16
562.374,2646.98
562.541,2635.31
562.708,2620.1
562.876,2644.17
563.043,2658.9
563.21,2646.84
563.377,2651.33
563.545,2647.55
563.712,2643.39
563.879,2649.57
564.046,2655.34
564.213,2653.88
564.38,2648.17
564.548,2663.5
564.715,2685.03
564.882,2668.82
565.049,2659.1
565.216,2668.25
565.383,2667.79
565.551,2681.71
565.718,2677.99
565.885,2697.18
566.052,2688.82
566.219,2680.96
566.386,2671.59
566.553,2685.1
566.72,2675.85
566.887,2662.78
567.054,2683.09
567.221,2670.86
567.388,2690.83
567.555,2702.48
567.722,2719.72
567.889,2712.48
568.057,2711.13
568.224,2693.21
568.391,2734.51
568.558,2711.27
568.725,2733.88
568.892,2717.28
569.058,2733.69
569.225,2749.27
569.392,2768.12
569.559,2787.16
569.726,2775.17
569.893,2773.47
570.06,2784.34
570.227,2778.09
570.394,2792.47
570.561,2805.46
570.728,2802.3
570.895,2802.77
571.062,2825.54
571.229,2836.14
571.395,2830.73
571.562,2849.99
571.729,2857.37
571.896,2878.11
572.063,2847.46
572.23,2856.91
572.397,2864.3
572.563,2840.93
572.73,2849.05
572.897,2847.51
573.064,2847.91
573.231,2836.53
573.397,2843.6
573.564,2835.06
573.731,2816.45
573.898,2826.23
574.064,2835.51
574.231,2825.6
574.398,2809.27
574.565,2825.26
574.731,2848.23
574.898,2831.76
575.065,2831.12
575.232,2851.62
575.398,2873.48
575.565,2875.11
575.732,2889.38
575.898,2903.73
576.065,2919.93
576.232,2955.1
576.398,2949.4
576.565,2962.03
576.732,2929.92
576.898,2947.58
577.065,2939.58
577.232,2910.55
577.398,2887.12
577.565,2868.88
577.731,2859.56
577.898,2870.93
578.065,2854.7
578.231,2857.33
578.398,2873.69
578.564,2860.88
578.731,2865.74
578.897,2852.55
579.064,2863.11
579.23,2856.03
579.397,2887.43
579.563,2868.47
579.73,2895.7
579.896,2890.91
580.063,2863.65
580.229,2871.99
580.396,2891.23
580.562,2882.33
580.729,2891.84
580.895,2888.11
581.062,2901.31
581.228,2910.03
581.395,2898.36
581.561,2952.64
581.728,2986.27
581.894,3032.75
582.06,3048.42
582.227,3032.57
582.393,2975.5
582.56,2937.21
582.726,2939.28
582.892,2932.76
583.059,2946.45
583.225,2939.71
583.391,2945.75
583.558,2966.08
583.724,2945.62
583.89,2930.54
584.057,2937.05
584.223,2960.27
584.389,2907.4
584.556,2918.53
584.722,2909.47
584.888,2905.56
585.054,2904.05
585.221,2901.37
585.387,2875.22
585.553,2923.27
585.719,2914.22
585.886,2919.94
586.052,2914.54
586.218,2899.92
586.384,2905.21
586.55,2897.08
586.717,2876.2
586.883,2882.61
587.049,2864.14
587.215,2854.55
587.381,2873.15
587.548,2867.2
587.714,2863.97
587.88,2877.74
588.046,2868.49
588.212,2857.0
588.378,2867.74
588.544,2853.12
588.71,2879.43
588.876,2869.67
589.043,2857.22
589.209,2854.06
589.375,2830.27
589.541,2854.24
589.707,2852.87
589.873,2848.85
590.039,2852.81
590.205,2847.52
590.371,2850.87
590.537,2861.33
590.703,2850.84
590.869,2868.96
591.035,2849.52
591.201,2863.33
591.367,2854.95
591.533,2866.57
591.699,2835.32
591.865,2858.94
592.031,2853.67
592.197,2850.3
592.363,2865.14
592.529,2879.37
592.694,2859.36
592.86,2860.52
593.026,2874.8
593.192,2853.99
593.358,2856.25
593.524,2866.58
593.69,2861.95
593.856,2837.96
594.021,2856.59
594.187,2875.05
594.353,2851.59
594.519,2859.38
594.685,2869.68
594.851,2863.1
595.016,2860.16
595.182,2857.41
595.348,2870.56
595.514,2881.28
595.68,2877.73
595.845,2860.42
596.011,2878.02
596.177,2864.08
596.342,2870.71
596.508,2892.09
596.674,2869.9
596.84,2885.96
597.005,2902.16
597.171,2871.21
597.337,2861.07
597.502,2872.67
597.668,2875.15
597.834,2882.23
597.999,2887.19
598.165,2885.85
598.331,2880.65
598.496,2873.92
598.662,2888.06
598.828,2895.26
598.993,2900.82
599.159,2868.51
599.324,2884.56
599.49,2893.0
599.656,2887.35
599.821,2897.86
599.987,2904.51
600.152,2867.58
600.318,2903.76
600.483,2878.39
600.649,2898.7
600.814,2901.06
600.98,2893.14
601.145,2911.54
601.311,2886.69
601.476,2905.82
601.642,2900.84
601.807,2903.23
601.973,2918.53
602.138,2892.04
602.304,2899.51
602.469,2898.32
602.635,2931.82
602.8,2906.55
602.965,2908.55
603.131,2908.42
603.296,2917.31
603.462,2916.95
603.627,2908.4
603.792,2939.29
603.958,2900.3
604.123,2918.97
604.288,2929.76
604.454,2912.57
604.619,2920.02
604.784,2924.89
604.95,2922.1
605.115,2921.63
605.28,2913.28
605.446,2917.97
605.611,2919.24
605.776,2937.6
605.941,2928.86
606.107,2938.4
606.272,2922.15
606.437,2945.29
606.602,2944.59
606.767,2923.89
606.933,2937.36
607.098,2937.42
607.263,2926.93
607.428,2933.16
607.593,2952.6
607.759,2920.55
607.924,2952.03
608.089,2933.83
608.254,2932.66
608.419,2947.07
608.584,2931.23
608.749,2946.55
608.915,2952.08
609.08,2946.2
609.245,2947.88
609.41,2924.2
609.575,2940.71
609.74,2954.77
609.905,2952.07
610.07,2939.06
610.235,2954.9
610.4,2942.94
610.565,2963.54
610.73,2960.31
610.895,2954.96
611.06,2954.27
611.225,2964.52
611.39,2951.13
611.555,2961.02
611.72,2960.29
611.885,2957.35
612.05,2947.92
612.215,2975.31
612.38,2940.11
612.545,2954.17
612.71,2958.63
612.875,2958.56
613.04,2942.41
613.204,2957.13
613.369,2971.31
613.534,2935.97
613.699,2951.99
613.864,2970.24
614.029,2961.3
614.194,2964.29
614.358,2959.8
614.523,2967.32
614.688,2984.66
614.853,2968.54
615.018,2959.03
615.182,2967.79
615.347,2962.71
615.512,2961.64
615.677,2980.84
615.841,2977.55
616.006,2965.32
616.171,2964.97
616.336,2963.92
616.5,2958.54
616.665,2975.99
616.83,2973.63
616.994,2946.63
617.159,2978.68
617.324,2978.97
617.489,2975.89
617.653,2960.24
617.818,2991.73
617.982,2965.61
618.147,2970.88
618.312,2974.84
618.476,2968.51
618.641,2956.98
618.805,2986.4
618.97,2976.4
619.135,2961.94
619.299,2973.47
619.464,2977.18
619.628,2997.63
619.793,2983.56
619.957,2990.26
620.122,2968.22
620.286,2983.06
620.451,2987.63
620.615,2988.71
620.78,2944.0
620.944,2987.81
621.109,2975.19
621.273,2991.73
621.438,2966.39
621.602,2975.05
621.767,2964.16
621.931,2979.68
622.095,2971.54
622.26,2976.09
622.424,2990.5
622.589,2985.87
622.753,2989.01
622.917,2981.74
623.082,2956.93
623.246,2989.41
623.41,2988.76
623.575,2944.77
623.739,2962.43
623.903,2976.55
624.068,2964.87
624.232,2977.73
624.396,2943.12
624.561,2962.44
624.725,2940.75
624.889,2986.13
625.053,2961.88
625.218,2952.13
625.382,2941.34
625.546,2934.54
625.71,2961.95
625.875,2965.78
626.039,2937.69
626.203,2958.78
626.367,2967.34
626.531,2944.48
626.695,2986.14
626.86,3016.09
627.024,3070.47
627.188,3079.62
627.352,3130.85
627.516,3151.94
627.68,3168.01
627.844,3135.16
628.008,3138.79
628.172,3169.28
628.337,3167.72
628.501,3203.34
628.665,3215.07
628.829,3164.1
628.993,3196.16
629.157,3206.77
629.321,3199.05
629.485,3185.47
629.649,3178.37
629.813,3181.28
629.977,3213.42
630.141,3232.28
630.305,3201.38
630.469,3232.65
630.633,3221.49
630.797,3199.3
630.96,3141.08
631.124,3152.52
631.288,3138.94
631.452,3097.12
631.616,3085.09
631.78,3076.41
631.944,3035.3
632.108,3034.52
632.272,3043.47
632.435,2991.16
632.599,2977.98
632.763,2992.52
632.927,2967.97
633.091,2960.79
633.254,2952.0
633.418,2951.43
633.582,2925.82
633.746,2904.01
633.91,2916.74
634.073,2925.35
634.237,2867.49
634.401,2875.64
634.564,2879.67
634.728,2874.72
634.892,2910.21
635.056,2865.68
635.219,2875.47
635.383,2890.57
635.547,2839.61
635.71,2854.68
635.874,2870.16
636.038,2880.72
636.201,2865.87
636.365,2889.21
636.528,2836.28
636.692,2871.03
636.856,2861.62
637.019,2840.35
637.183,2847.42
637.346,2853.22
637.51,2841.41
637.673,2824.45
637.837,2820.97
638.0,2819.1
638.164,2824.06
638.327,2838.56
638.491,2841.74
638.654,2832.74
638.818,2809.21
638.981,2812.28
639.145,2815.1
639.308,2813.05
639.472,2797.58
639.635,2800.92
639.799,2826.09
639.962,2793.5
640.125,2789.12
640.289,2787.08
640.452,2803.45
640.616,2798.41
640.779,2785.43
640.942,2757.86
641.106,2792.85
641.269,2772.69
641.432,2783.43
641.596,2804.59
641.759,2760.98
641.922,2742.91
642.085,2771.15
642.249,2799.87
642.412,2775.93
642.575,2745.67
642.738,2765.36
642.902,2770.54
643.065,2767.18
643.228,2753.89
643.391,2750.58
643.555,2749.22
643.718,2768.85
643.881,2745.01
644.044,2765.02
644.207,2775.23
644.37,2747.72
644.534,2764.6
644.697,2735.21
644.86,2739.79
645.023,2735.87
645.186,2755.35
645.349,2762.56
645.512,2768.28
645.675,2720.5
645.838,2727.99
646.001,2733.55
646.164,2711.73
646.327,2726.96
646.49,2695.59
646.653,2713.79
646.816,2719.34
646.979,2705.8
647.142,2711.4
647.305,2702.58
647.468,2712.64
647.631,2703.29
647.794,2698.43
647.957,2678.93
648.12,2689.11
648.283,2708.14
648.446,2668.06
648.609,2675.47
648.772,2670.86
648.935,2683.44
649.098,2653.91
649.26,2661.34
649.423,2659.5
649.586,2637.76
649.749,2671.6
649.912,2657.22
650.075,2636.76
650.237,2651.9
650.4,2643.38
650.563,2635.79
650.726,2646.57
650.888,2627.32
651.051,2648.73
651.214,2658.61
651.377,2622.04
651.539,2634.68
651.702,2619.2
651.865,2609.08
652.027,2634.23
652.19,2623.99
652.353,2586.48
652.515,2598.76
652.678,2592.43
652.841,2601.37
653.003,2613.58
653.166,2607.52
653.329,2588.87
653.491,2586.9
653.654,2571.63
653.816,2574.06
653.979,2577.87
654.142,2572.75
654.304,2585.5
654.467,2561.86
654.629,2535.73
654.792,2554.05
654.954,2535.14
655.117,2552.32
655.279,2554.81
655.442,2550.6
655.604,2544.91
655.767,2546.1
655.929,2554.22
656.091,2555.25
656.254,2521.87
656.416,2529.48
656.579,2517.81
656.741,2521.37
656.904,2536.56
657.066,2516.03
657.228,2519.3
657.391,2526.12
657.553,2510.41
657.715,2505.66
657.878,2505.8
658.04,2509.58
658.202,2497.54
658.365,2492.31
658.527,2501.19
658.689,2489.75
658.851,2485.83
659.014,2473.8
659.176,2480.05
659.338,2455.36
659.5,2474.68
659.663,2471.27
659.825,2456.25
659.987,2471.22
660.149,2465.61
660.311,2470.43
660.474,2462.11
660.636,2457.09
660.798,2441.3
660.96,2451.93
661.041,2445.43