File: spectra/VLFR_08-PLA_bio_Raman_3c1c2dac.csv
nm,Intensity
528.65,1826.25
528.819,1827.5
528.987,1827.0
529.155,1826.65
529.324,1826.7
529.492,1827.95
529.66,1828.45
529.829,1827.4
529.997,1826.95
530.165,1828.05
530.334,1827.1
530.502,1828.8
530.67,1827.1
530.839,1827.1
531.007,1827.85
531.175,1830.4
531.344,1831.9
531.512,1836.4
531.68,1873.85
531.848,2533.1
532.017,4794.95
532.185,4366.2
532.353,2034.9
532.521,1831.9
532.69,1828.95
532.858,1829.15
533.026,1829.25
533.194,1829.1
533.363,1831.5
533.531,1852.45
533.699,1969.3
533.867,2211.3
534.036,2370.6
534.204,2427.8
534.372,2407.75
534.54,2385.55
534.708,2405.15
534.877,2394.9
535.045,2387.0
535.213,2398.9
535.381,2399.15
535.549,2396.65
535.717,2374.25
535.886,2375.7
536.054,2375.0
536.222,2378.15
536.39,2388.85
536.558,2406.05
536.726,2410.75
536.894,2393.9
537.062,2392.25
537.231,2406.55
537.399,2396.45
537.567,2412.85
537.735,2409.05
537.903,2422.7
538.071,2435.0
538.239,2410.8
538.407,2409.5
538.575,2428.5
538.743,2396.25
538.911,2436.35
539.079,2440.65
539.247,2430.8
539.415,2433.55
539.583,2429.7
539.751,2414.8
539.919,2383.2
540.087,2424.0
540.255,2454.4
540.423,2461.15
540.591,2460.25
540.759,2482.35
540.927,2488.85
541.095,2487.3
541.263,2481.35
541.431,2481.0
541.599,2466.55
541.767,2472.3
541.935,2464.25
542.103,2482.35
542.271,2486.05
542.439,2477.3
542.607,2489.45
542.775,2506.6
542.943,2523.3
543.111,2520.05
543.279,2557.95
543.446,2536.45
543.614,2563.2
543.782,2583.6
543.95,2575.25
544.118,2568.85
544.286,2572.0
544.454,2530.45
544.622,2559.75
544.789,2523.75
544.957,2550.2
545.125,2540.1
545.293,2551.7
545.461,2548.6
545.629,2542.35
545.796,2566.5
545.964,2583.3
546.132,2584.2
546.3,2592.5
546.468,2585.4
546.635,2600.25
546.803,2601.6
546.971,2606.55
547.139,2616.05
547.306,2614.0
547.474,2607.05
547.642,2613.2
547.81,2613.8
547.977,2626.65
548.145,2628.1
548.313,2657.3
548.481,2648.55
548.648,2639.85
548.816,2659.25
548.984,2660.6
549.151,2690.95
549.319,2659.3
549.487,2650.5
549.655,2652.2
549.822,2670.65
549.99,2654.95
550.158,2652.95
550.325,2689.75
550.493,2685.25
550.66,2683.45
550.828,2714.25
550.996,2707.6
551.163,2717.6
551.331,2715.6
551.499,2740.3
551.666,2725.7
551.834,2746.5
552.001,2738.3
552.169,2741.15
552.337,2736.15
552.504,2747.3
552.672,2742.3
552.839,2762.2
553.007,2737.55
553.174,2760.3
553.342,2753.2
553.509,2725.7
553.677,2770.85
553.844,2752.85
554.012,2791.05
554.179,2810.65
554.347,2795.1
554.514,2785.0
554.682,2788.3
554.849,2781.4
555.017,2770.4
555.184,2774.9
555.352,2763.2
555.519,2781.2
555.687,2765.1
555.854,2780.0
556.022,2765.05
556.189,2768.7
556.357,2784.5
556.524,2786.75
556.691,2767.8
556.859,2788.9
557.026,2798.1
557.194,2785.65
557.361,2822.05
557.528,2839.8
557.696,2922.25
557.863,2973.45
558.031,3075.0
558.198,3035.25
558.365,2935.55
558.533,2848.5
558.7,2868.95
558.867,2846.5
559.035,2864.45
559.202,2846.0
559.369,2835.0
559.537,2842.7
559.704,2833.2
559.871,2824.6
560.038,2842.2
560.206,2835.45
560.373,2833.75
560.54,2854.5
560.708,2864.4
560.875,2861.05
561.042,2854.05
561.209,2857.85
561.377,2872.5
561.544,2866.5
561.711,2861.2
561.878,2873.9
562.045,2873.5
562.213,2862.8
562.38,2857.0
562.547,2886.85
562.714,2894.9
562.881,2920.7
563.049,2945.45
563.216,2934.15
563.383,2949.0
563.55,2947.65
563.717,2974.3
563.884,2933.0
564.052,2914.3
564.219,2911.6
564.386,2908.85
564.553,2949.25
564.72,2949.25
564.887,2974.35
565.054,3009.7
565.221,2975.45
565.388,2997.65
565.556,3008.8
565.723,2992.85
565.89,3025.55
566.057,3044.2
566.224,3027.4
566.391,3046.5
566.558,2994.95
566.725,2985.65
566.892,2961.45
567.059,2946.45
567.226,2965.75
567.393,2989.05
567.56,2961.85
567.727,3009.55
567.894,2995.9
568.061,2982.7
568.228,2995.05
568.395,3010.0
568.562,2989.1
568.729,3007.95
568.896,3018.7
569.063,3026.9
569.23,3000.2
569.396,2992.6
569.563,3007.85
569.73,3023.1
569.897,3031.4
570.064,3030.85
570.231,2990.2
570.398,3025.5
570.565,3059.95
570.732,3031.7
570.898,3036.85
571.065,3037.05
571.232,3048.15
571.399,3099.1
571.566,3114.7
571.733,3093.9
571.9,3113.15
572.066,3112.7
572.233,3083.55
572.4,3094.0
572.567,3128.35
572.734,3077.6
572.9,3076.8
573.067,3100.45
573.234,3136.2
573.401,3122.45
573.567,3068.25
573.734,3113.25
573.901,3074.15
574.068,3086.3
574.234,3112.1
574.401,3092.75
574.568,3127.4
574.734,3121.1
574.901,3076.7
575.068,3079.5
575.235,3061.75
575.401,3089.55
575.568,3081.35
575.735,3105.8
575.901,3118.7
576.068,3099.15
576.235,3110.25
576.401,3192.55
576.568,3224.25
576.734,3241.65
576.901,3236.6
577.068,3196.3
577.234,3099.3
577.401,3137.15
577.567,3095.8
577.734,3075.95
577.901,3085.9
578.067,3068.15
578.234,3082.7
578.4,3063.45
578.567,3103.55
578.733,3080.8
578.9,3090.15
579.066,3081.2
579.233,3081.5
579.399,3082.8
579.566,3074.85
579.732,3080.6
579.899,3127.95
580.065,3116.0
580.232,3054.2
580.398,3115.2
580.565,3081.35
580.731,3111.45
580.898,3087.8
581.064,3107.1
581.231,3069.9
581.397,3093.5
581.563,3091.85
581.73,3096.1
581.896,3087.45
582.063,3081.35
582.229,3090.2
582.395,3087.35
582.562,3080.0
582.728,3084.0
582.895,3064.15
583.061,3077.7
583.227,3073.85
583.394,3110.5
583.56,3080.1
583.726,3112.4
583.893,3055.2
584.059,3092.8
584.225,3075.5
584.391,3089.15
584.558,3089.05
584.724,3070.75
584.89,3091.05
585.057,3066.2
585.223,3075.75
585.389,3091.2
585.555,3073.5
585.722,3068.95
585.888,3069.4
586.054,3057.4
586.22,3081.65
586.386,3081.85
586.553,3097.95
586.719,3129.9
586.885,3161.6
587.051,3177.8
587.217,3125.8
587.384,3186.75
587.55,3207.0
587.716,3186.55
587.882,3110.9
588.048,3106.05
588.214,3087.8
588.38,3080.3
588.546,3090.15
588.713,3066.85
588.879,3067.35
589.045,3049.4
589.211,3077.05
589.377,3035.8
589.543,3049.45
589.709,3051.5
589.875,3046.55
590.041,3010.05
590.207,3041.1
590.373,3067.35
590.539,3038.05
590.705,3024.75
590.871,3050.95
591.037,3010.9
591.203,3084.75
591.369,3046.5
591.535,3066.7
591.701,3042.45
591.867,3030.6
592.033,3049.15
592.199,3046.35
592.365,3024.75
592.531,3049.9
592.697,3066.4
592.863,3007.15
593.029,3064.8
593.195,3065.4
593.361,3019.8
593.526,3020.95
593.692,3034.3
593.858,2998.75
594.024,3035.0
594.19,3031.75
594.356,3044.1
594.522,3039.3
594.687,3016.3
594.853,3051.4
595.019,3025.3
595.185,3029.9
595.351,3016.8
595.516,3033.4
595.682,3027.35
595.848,3035.1
596.014,3052.25
596.18,3023.85
596.345,3018.3
596.511,3040.25
596.677,3007.2
596.843,3043.95
597.008,3036.15
597.174,3030.7
597.34,3021.95
597.505,3027.55
597.671,3024.85
597.837,3019.55
598.002,3019.95
598.168,3015.35
598.334,3031.55
598.499,3046.55
598.665,3012.15
598.831,3008.1
598.996,3031.9
599.162,3032.15
599.328,3032.4
599.493,3012.6
599.659,3061.95
599.824,3042.25
599.99,3011.85
600.156,3043.7
600.321,3016.25
600.487,2995.2
600.652,3035.1
600.818,3027.9
600.983,3023.9
601.149,3023.0
601.314,3040.1
601.48,3019.55
601.645,3016.3
601.811,3018.25
601.976,3006.85
602.142,3014.15
602.307,3031.95
602.473,3009.35
602.638,3040.65
602.804,3029.9
602.969,3013.7
603.135,3034.1
603.3,3035.85
603.466,3012.45
603.631,3037.45
603.796,3000.7
603.962,3014.55
604.127,3010.1
604.293,3028.3
604.458,3010.7
604.623,2994.0
604.789,3009.9
604.954,3003.25
605.119,2994.3
605.285,3002.6
605.45,2994.65
605.615,3017.45
605.781,2970.85
605.946,2998.95
606.111,3020.05
606.277,3019.15
606.442,3017.25
606.607,2987.05
606.772,3004.5
606.938,3012.85
607.103,3021.45
607.268,3002.75
607.433,2995.55
607.599,2994.2
607.764,2992.8
607.929,2969.8
608.094,2980.5
608.259,2989.35
608.425,2988.3
608.59,3007.95
608.755,2994.3
608.92,3044.6
609.085,2999.85
609.25,2974.3
609.415,2980.55
609.581,3002.85
609.746,2984.85
609.911,2998.2
610.076,2994.9
610.241,3012.25
610.406,2980.2
610.571,2959.25
610.736,2997.15
610.901,2999.35
611.066,3005.1
611.231,3000.2
611.396,3004.25
611.561,2986.35
611.727,2963.8
611.892,2991.45
612.057,2964.65
612.222,2993.75
612.386,2971.8
612.551,2976.9
612.716,2967.4
612.881,2949.85
613.046,2966.35
613.211,2995.5
613.376,3011.1
613.541,2984.15
613.706,2950.75
613.871,2977.15
614.036,2958.6
614.201,2978.4
614.366,2974.4
614.531,2973.8
614.695,2966.05
614.86,2974.9
615.025,2908.05
615.19,2982.45
615.355,2958.4
615.52,2952.7
615.684,2947.65
615.849,2957.65
616.014,2980.9
616.179,2962.85
616.344,2966.25
616.508,2951.25
616.673,2940.1
616.838,2954.5
617.003,2938.8
617.168,2978.2
617.332,2939.65
617.497,2937.95
617.662,2952.25
617.826,2934.85
617.991,2938.1
618.156,2961.0
618.32,2900.35
618.485,2919.55
618.65,2919.75
618.814,2915.5
618.979,2902.35
619.144,2959.95
619.308,2949.35
619.473,2980.05
619.638,2933.15
619.802,2929.25
619.967,2898.05
620.131,2907.25
620.296,2954.5
620.461,2954.7
620.625,2930.55
620.79,2891.75
620.954,2909.45
621.119,2922.9
621.283,2905.75
621.448,2926.4
621.612,2909.85
621.777,2892.2
621.941,2943.95
622.106,2889.2
622.27,2903.6
622.435,2922.25
622.599,2931.25
622.764,2959.65
622.928,2943.65
623.093,2912.65
623.257,2934.15
623.422,2888.3
623.586,2923.6
623.75,2900.6
623.915,2898.65
624.079,2871.15
624.244,2894.95
624.408,2890.45
624.572,2875.55
624.737,2875.15
624.901,2874.2
625.065,2886.25
625.23,2873.4
625.394,2871.0
625.558,2881.85
625.723,2832.5
625.887,2851.1
626.051,2867.2
626.215,2835.55
626.38,2855.8
626.544,2835.45
626.708,2867.05
626.872,2847.65
627.037,2858.25
627.201,2840.7
627.365,2839.65
627.529,2825.15
627.693,2859.25
627.858,2845.0
628.022,2863.05
628.186,2934.55
628.35,2975.7
628.514,2963.55
628.678,2927.3
628.843,2943.6
629.007,2925.15
629.171,2919.5
629.335,2930.5
629.499,2928.55
629.663,2923.4
629.827,2917.2
629.991,2906.05
630.155,2958.05
630.319,2948.75
630.483,3044.75
630.647,3143.95
630.812,3377.75
630.976,3516.5
631.14,3648.95
631.304,3495.0
631.468,3358.15
631.632,3153.55
631.796,3048.85
631.959,3061.45
632.123,2944.05
632.287,2937.5
632.451,2971.8
632.615,2945.5
632.779,2993.8
632.943,3068.6
633.107,3083.35
633.271,3066.25
633.435,3068.8
633.599,3063.2
633.763,3004.0
633.926,2927.65
634.09,2926.0
634.254,2857.05
634.418,2786.9
634.582,2777.8
634.746,2787.5
634.909,2755.8
635.073,2730.2
635.237,2696.75
635.401,2706.15
635.564,2692.95
635.728,2712.65
635.892,2697.4
636.056,2686.25
636.219,2693.4
636.383,2697.3
636.547,2648.0
636.711,2685.75
636.874,2701.0
637.038,2673.4
637.202,2676.85
637.365,2647.8
637.529,2686.1
637.693,2663.7
637.856,2670.85
638.02,2666.35
638.184,2655.95
638.347,2676.05
638.511,2656.75
638.674,2622.8
638.838,2648.05
639.002,2673.35
639.165,2620.55
639.329,2654.45
639.492,2621.45
639.656,2633.45
639.819,2631.95
639.983,2614.95
640.146,2621.2
640.31,2627.8
640.473,2587.75
640.637,2621.45
640.8,2627.85
640.964,2588.85
641.127,2593.65
641.291,2591.55
641.454,2613.25
641.618,2599.75
641.781,2603.65
641.944,2588.0
642.108,2567.9
642.271,2587.8
642.435,2571.95
642.598,2580.7
642.761,2567.4
642.925,2575.45
643.088,2573.5
643.251,2566.25
643.415,2544.0
643.578,2530.4
643.741,2545.65
643.905,2540.2
644.068,2556.4
644.231,2553.9
644.394,2537.9
644.558,2551.25
644.721,2529.75
644.884,2542.3
645.047,2531.0
645.211,2519.15
645.374,2535.4
645.537,2520.75
645.7,2534.2
645.863,2508.8
646.027,2505.8
646.19,2520.15
646.353,2494.25
646.516,2500.1
646.679,2501.55
646.842,2484.15
647.005,2497.85
647.169,2499.05
647.332,2497.05
647.495,2485.45
647.658,2483.15
647.821,2461.6
647.984,2471.2
648.147,2476.75
648.31,2466.75
648.473,2449.6
648.636,2444.2
648.799,2448.75
648.962,2465.25
649.125,2457.15
649.288,2415.55
649.451,2459.7
649.614,2478.3
649.777,2470.3
649.94,2440.25
650.103,2418.45
650.266,2433.25
650.429,2425.1
650.592,2412.05
650.755,2439.95
650.918,2418.45
651.08,2415.2
651.243,2408.0
651.406,2429.65
651.569,2407.8
651.732,2431.65
651.895,2411.75
652.058,2420.25
652.22,2425.45
652.383,2394.25
652.546,2385.2
652.709,2382.5
652.872,2391.2
653.034,2392.35
653.197,2397.4
653.36,2387.65
653.523,2381.5
653.685,2372.95
653.848,2341.5
654.011,2357.2
654.173,2354.85
654.336,2365.4
654.499,2359.85
654.662,2353.25
654.824,2343.0
654.987,2342.1
655.149,2360.2
655.312,2348.2
655.475,2361.25
655.637,2350.55
655.8,2336.85
655.963,2340.35
656.125,2334.85
656.288,2322.55
656.45,2320.8
656.613,2316.7
656.775,2320.1
656.938,2318.0
657.1,2319.95
657.263,2322.25
657.425,2309.0
657.588,2310.8
657.75,2286.65
657.913,2296.1
658.075,2296.05
658.238,2300.6
658.4,2288.65
658.563,2305.6
658.725,2301.55
658.888,2281.55
659.05,2296.45
659.212,2284.1
659.375,2286.55
659.537,2266.15
659.7,2268.9
659.862,2273.7
660.024,2269.2
660.187,2283.65
660.349,2262.55
660.511,2266.25
660.674,2257.9
660.836,2247.8
660.998,2259.5
661.079,2257.9