File: spectra/VLFR_02-HDPE_bio_Raman_29be2997.csv
nm,Intensity
528.629,1850.6
528.797,1851.0
528.965,1850.05
529.134,1850.25
529.302,1851.5
529.471,1851.7
529.639,1850.6
529.808,1849.9
529.976,1849.4
530.145,1850.8
530.313,1850.95
530.481,1851.2
530.65,1850.85
530.818,1852.1
530.987,1851.65
531.155,1851.9
531.323,1852.9
531.492,1856.65
531.66,1878.55
531.829,2264.5
531.997,3289.3
532.165,2838.4
532.334,1919.55
532.502,1852.05
532.67,1851.95
532.839,1850.65
533.007,1851.75
533.175,1850.85
533.344,1851.65
533.512,1856.4
533.68,1883.55
533.848,1930.05
534.017,1959.75
534.185,1964.3
534.353,1961.85
534.522,1966.2
534.69,1966.35
534.858,1953.25
535.026,1956.35
535.195,1959.55
535.363,1949.9
535.531,1939.8
535.699,1932.0
535.868,1923.95
536.036,1920.9
536.204,1924.2
536.372,1924.6
536.54,1926.8
536.709,1926.15
536.877,1921.0
537.045,1921.3
537.213,1924.25
537.381,1924.2
537.55,1921.5
537.718,1919.7
537.886,1919.3
538.054,1919.85
538.222,1923.05
538.39,1922.4
538.558,1924.35
538.727,1933.35
538.895,1940.5
539.063,1945.4
539.231,1942.95
539.399,1925.9
539.567,1919.45
539.735,1918.15
539.903,1915.35
540.071,1913.95
540.239,1917.55
540.408,1915.35
540.576,1914.05
540.744,1915.85
540.912,1911.9
541.08,1915.7
541.248,1914.5
541.416,1912.2
541.584,1915.35
541.752,1917.2
541.92,1912.75
542.088,1911.1
542.256,1919.4
542.424,1919.95
542.592,1922.85
542.76,1926.95
542.928,1928.1
543.096,1925.3
543.264,1918.5
543.432,1919.3
543.6,1919.95
543.768,1919.0
543.936,1921.35
544.104,1915.0
544.271,1913.55
544.439,1915.15
544.607,1914.35
544.775,1911.95
544.943,1915.45
545.111,1912.55
545.279,1915.7
545.447,1919.15
545.615,1917.35
545.783,1913.6
545.95,1915.55
546.118,1908.25
546.286,1922.0
546.454,1920.1
546.622,1921.15
546.79,1921.3
546.957,1921.6
547.125,1918.85
547.293,1921.05
547.461,1921.05
547.629,1920.35
547.797,1920.8
547.964,1923.6
548.132,1919.15
548.3,1919.95
548.468,1919.7
548.635,1918.85
548.803,1925.05
548.971,1923.8
549.139,1923.8
549.306,1922.7
549.474,1926.8
549.642,1925.75
549.81,1926.2
549.977,1922.6
550.145,1926.5
550.313,1927.95
550.48,1927.35
550.648,1928.45
550.816,1935.8
550.983,1930.5
551.151,1932.7
551.319,1934.0
551.486,1930.55
551.654,1935.15
551.822,1927.7
551.989,1934.15
552.157,1935.0
552.325,1929.6
552.492,1931.15
552.66,1923.65
552.828,1931.55
552.995,1925.15
553.163,1929.35
553.33,1929.7
553.498,1930.1
553.665,1927.9
553.833,1931.8
554.001,1934.1
554.168,1927.65
554.336,1931.55
554.503,1928.0
554.671,1941.0
554.838,1934.7
555.006,1937.75
555.173,1934.85
555.341,1936.5
555.508,1930.35
555.676,1932.75
555.843,1940.15
556.011,1936.8
556.178,1937.7
556.346,1936.6
556.513,1939.7
556.681,1937.75
556.848,1934.15
557.016,1936.1
557.183,1936.5
557.35,1940.8
557.518,1939.4
557.685,1945.6
557.853,1941.4
558.02,1936.6
558.188,1939.8
558.355,1940.7
558.522,1947.25
558.69,1942.7
558.857,1944.4
559.024,1943.55
559.192,1939.1
559.359,1939.9
559.526,1943.05
559.694,1942.15
559.861,1947.7
560.028,1942.95
560.196,1938.05
560.363,1938.55
560.53,1940.35
560.698,1937.6
560.865,1936.75
561.032,1938.7
561.2,1944.95
561.367,1941.05
561.534,1943.85
561.701,1947.95
561.869,1947.65
562.036,1951.1
562.203,1944.25
562.37,1952.85
562.538,1954.45
562.705,1954.35
562.872,1954.15
563.039,1951.3
563.206,1954.8
563.374,1962.0
563.541,1972.95
563.708,2009.75
563.875,2084.45
564.042,2116.35
564.209,2032.3
564.376,1988.0
564.544,1982.4
564.711,1983.4
564.878,1978.75
565.045,1977.0
565.212,1963.8
565.379,1975.25
565.546,1974.5
565.713,1994.8
565.881,2061.0
566.048,2163.0
566.215,2200.85
566.382,2063.6
566.549,1981.35
566.716,1971.7
566.883,1969.55
567.05,1963.2
567.217,1969.3
567.384,1984.35
567.551,1971.8
567.718,1960.5
567.885,1961.35
568.052,1959.65
568.219,1956.65
568.386,1962.0
568.553,1955.4
568.72,1955.45
568.887,1962.3
569.054,1958.75
569.221,1962.75
569.388,1963.2
569.555,1961.6
569.722,1962.2
569.888,1965.45
570.055,1965.9
570.222,1976.75
570.389,1974.85
570.556,1972.05
570.723,1984.2
570.89,1984.9
571.057,1994.7
571.224,2053.1
571.39,2190.0
571.557,2255.05
571.724,2125.85
571.891,2032.0
572.058,1998.1
572.225,1987.85
572.391,1986.85
572.558,1976.15
572.725,1970.2
572.892,1964.15
573.059,1964.35
573.225,1969.25
573.392,1969.65
573.559,1962.85
573.726,1977.4
573.892,1983.35
574.059,1975.4
574.226,1965.2
574.393,1964.4
574.559,1962.4
574.726,1966.45
574.893,1967.65
575.059,1975.45
575.226,2001.5
575.393,2082.1
575.559,2123.1
575.726,2067.6
575.893,2065.2
576.059,2081.05
576.226,2129.25
576.393,2126.85
576.559,2084.65
576.726,2074.2
576.893,2073.25
577.059,2066.45
577.226,2030.85
577.392,2013.05
577.559,1990.0
577.726,1978.05
577.892,1966.25
578.059,1966.4
578.225,1962.5
578.392,1964.05
578.558,1965.7
578.725,1967.15
578.891,1961.0
579.058,1962.45
579.224,1963.45
579.391,1960.45
579.557,1963.95
579.724,1963.15
579.89,1964.25
580.057,1958.6
580.223,1963.65
580.39,1963.5
580.556,1961.8
580.723,1967.1
580.889,1965.6
581.056,1957.45
581.222,1953.05
581.388,1965.0
581.555,1961.4
581.721,1959.85
581.888,1960.5
582.054,1958.8
582.22,1955.95
582.387,1958.1
582.553,1958.6
582.719,1960.25
582.886,1955.55
583.052,1956.8
583.219,1953.95
583.385,1955.55
583.551,1960.35
583.717,1956.3
583.884,1957.7
584.05,1952.45
584.216,1956.95
584.383,1952.8
584.549,1956.1
584.715,1950.05
584.881,1951.35
585.048,1952.8
585.214,1952.9
585.38,1951.65
585.546,1950.65
585.713,1952.1
585.879,1956.3
586.045,1957.75
586.211,1954.0
586.377,1953.55
586.544,1950.95
586.71,1955.8
586.876,1948.4
587.042,1953.6
587.208,1954.9
587.374,1955.05
587.541,1958.25
587.707,1957.9
587.873,1952.65
588.039,1959.55
588.205,1958.3
588.371,1956.0
588.537,1957.7
588.703,1954.15
588.869,1954.65
589.035,1954.25
589.201,1952.0
589.368,1953.9
589.534,1961.85
589.7,1955.3
589.866,1951.1
590.032,1947.7
590.198,1961.05
590.364,1960.65
590.53,1957.5
590.696,1954.95
590.862,1947.55
591.028,1962.0
591.194,1950.9
591.36,1953.55
591.525,1955.85
591.691,1962.7
591.857,1957.6
592.023,1957.0
592.189,1958.95
592.355,1958.05
592.521,1962.55
592.687,1960.75
592.853,1962.55
593.019,1965.15
593.185,1955.6
593.35,1963.0
593.516,1957.0
593.682,1958.95
593.848,1960.1
594.014,1959.2
594.18,1966.55
594.345,1960.9
594.511,1965.3
594.677,1961.0
594.843,1959.4
595.009,1962.3
595.174,1960.6
595.34,1964.75
595.506,1960.8
595.672,1962.7
595.837,1967.35
596.003,1968.95
596.169,1965.3
596.335,1964.85
596.5,1966.55
596.666,1964.8
596.832,1973.8
596.997,1966.35
597.163,1968.6
597.329,1963.05
597.494,1968.3
597.66,1966.15
597.826,1970.15
597.991,1965.15
598.157,1965.0
598.323,1969.5
598.488,1966.3
598.654,1965.1
598.819,1978.05
598.985,1972.4
599.151,1974.3
599.316,1979.5
599.482,1980.5
599.647,1972.55
599.813,1974.3
599.978,1971.9
600.144,1971.5
600.309,1974.05
600.475,1974.35
600.641,1977.55
600.806,1965.4
600.972,1970.0
601.137,1975.85
601.302,1972.05
601.468,1977.45
601.633,1976.65
601.799,1972.7
601.964,1977.3
602.13,1977.35
602.295,1975.65
602.461,1974.8
602.626,1980.75
602.791,1980.1
602.957,1970.05
603.122,1967.45
603.288,1981.4
603.453,1963.55
603.618,1978.4
603.784,1978.55
603.949,1974.3
604.114,1971.85
604.28,1979.95
604.445,1972.25
604.61,1978.95
604.776,1978.2
604.941,1970.1
605.106,1968.7
605.272,1978.7
605.437,1974.4
605.602,1971.85
605.767,1973.5
605.933,1979.85
606.098,1972.15
606.263,1969.85
606.428,1977.65
606.593,1971.3
606.759,1972.3
606.924,1972.2
607.089,1969.45
607.254,1973.7
607.419,1972.0
607.585,1970.0
607.75,1975.2
607.915,1972.8
608.08,1968.35
608.245,1973.45
608.41,1971.8
608.575,1972.3
608.74,1967.05
608.906,1976.2
609.071,1976.95
609.236,1970.5
609.401,1970.15
609.566,1977.3
609.731,1966.15
609.896,1974.4
610.061,1971.0
610.226,1968.55
610.391,1970.95
610.556,1978.3
610.721,1974.0
610.886,1981.45
611.051,1979.4
611.216,1974.0
611.381,1972.95
611.546,1977.45
611.711,1970.8
611.876,1968.8
612.041,1964.45
612.206,1976.15
612.371,1962.7
612.536,1969.15
612.7,1969.15
612.865,1968.85
613.03,1969.0
613.195,1967.85
613.36,1968.3
613.525,1966.55
613.69,1973.9
613.855,1969.65
614.019,1963.4
614.184,1962.35
614.349,1974.65
614.514,1963.75
614.679,1972.95
614.843,1972.8
615.008,1972.45
615.173,1966.0
615.338,1972.9
615.503,1961.25
615.667,1971.05
615.832,1972.9
615.997,1976.05
616.161,1966.95
616.326,1972.9
616.491,1968.1
616.656,1968.25
616.82,1978.0
616.985,1981.7
617.15,1982.45
617.314,1977.7
617.479,1979.25
617.644,1979.95
617.808,1988.2
617.973,1982.15
618.137,1971.6
618.302,1978.9
618.467,1976.55
618.631,1987.8
618.796,1976.15
618.96,1980.05
619.125,1981.45
619.289,1980.8
619.454,1985.35
619.619,1988.3
619.783,1996.15
619.948,1986.8
620.112,1984.6
620.277,1984.2
620.441,1992.95
620.606,1983.65
620.77,1986.05
620.935,1989.05
621.099,2002.55
621.263,2008.15
621.428,2010.8
621.592,2019.85
621.757,2038.65
621.921,2048.15
622.086,2050.7
622.25,2061.7
622.414,2045.3
622.579,2038.2
622.743,2021.25
622.907,1998.0
623.072,1996.65
623.236,2000.1
623.401,1984.8
623.565,1986.55
623.729,1979.85
623.893,1994.65
624.058,1985.45
624.222,1981.8
624.386,1988.0
624.551,1985.75
624.715,1981.55
624.879,1984.1
625.043,1985.35
625.208,1996.0
625.372,1989.9
625.536,2001.05
625.7,2013.75
625.864,2011.15
626.029,2029.4
626.193,2054.75
626.357,2108.9
626.521,2201.5
626.685,2400.6
626.849,2736.9
627.014,3149.2
627.178,3180.8
627.342,3069.7
627.506,2885.05
627.67,2794.05
627.834,2696.7
627.998,2683.65
628.162,2811.5
628.326,3044.0
628.49,3249.55
628.654,2992.85
628.818,2716.85
628.983,2593.0
629.147,2541.4
629.311,2526.1
629.475,2482.85
629.639,2405.15
629.803,2354.25
629.966,2322.25
630.13,2337.0
630.294,2312.95
630.458,2303.6
630.622,2260.05
630.786,2191.0
630.95,2140.95
631.114,2070.95
631.278,2038.75
631.442,2024.0
631.606,2019.35
631.77,2008.3
631.933,1997.3
632.097,1989.2
632.261,1991.8
632.425,1991.0
632.589,1982.25
632.753,1986.55
632.916,1976.05
633.08,1968.65
633.244,1978.25
633.408,1970.25
633.572,1973.75
633.735,1965.9
633.899,1968.15
634.063,1967.15
634.227,1960.05
634.39,1969.7
634.554,1954.5
634.718,1961.9
634.881,1956.5
635.045,1962.65
635.209,1959.45
635.372,1956.3
635.536,1948.55
635.7,1957.3
635.863,1955.65
636.027,1956.05
636.191,1956.9
636.354,1951.35
636.518,1960.3
636.681,1958.95
636.845,1950.85
637.009,1951.55
637.172,1943.6
637.336,1949.55
637.499,1954.35
637.663,1946.7
637.826,1948.3
637.99,1946.05
638.153,1946.95
638.317,1945.75
638.48,1948.1
638.644,1949.95
638.807,1946.35
638.971,1952.15
639.134,1940.5
639.298,1945.15
639.461,1940.55
639.625,1945.9
639.788,1947.6
639.951,1938.4
640.115,1941.2
640.278,1948.55
640.441,1946.05
640.605,1940.3
640.768,1942.0
640.932,1935.5
641.095,1949.5
641.258,1946.25
641.422,1943.7
641.585,1945.4
641.748,1940.8
641.911,1936.15
642.075,1941.7
642.238,1938.55
642.401,1945.25
642.565,1953.1
642.728,1939.05
642.891,1948.9
643.054,1947.35
643.217,1939.05
643.381,1935.95
643.544,1946.1
643.707,1939.15
643.87,1939.15
644.033,1942.1
644.197,1936.35
644.36,1947.15
644.523,1942.05
644.686,1940.4
644.849,1949.15
645.012,1949.05
645.175,1937.35
645.338,1941.7
645.501,1942.15
645.664,1940.05
645.828,1941.95
645.991,1938.75
646.154,1943.9
646.317,1942.2
646.48,1940.2
646.643,1943.9
646.806,1944.3
646.969,1941.85
647.132,1942.25
647.295,1941.95
647.458,1943.55
647.621,1938.1
647.783,1942.4
647.946,1941.45
648.109,1937.2
648.272,1945.35
648.435,1944.05
648.598,1945.05
648.761,1939.3
648.924,1937.95
649.087,1939.05
649.25,1936.45
649.412,1943.0
649.575,1945.05
649.738,1943.35
649.901,1942.9
650.064,1939.25
650.226,1939.85
650.389,1940.95
650.552,1940.65
650.715,1938.95
650.878,1947.6
651.04,1933.6
651.203,1937.0
651.366,1943.7
651.528,1941.3
651.691,1935.45
651.854,1934.0
652.017,1931.8
652.179,1930.8
652.342,1939.0
652.505,1936.5
652.667,1938.1
652.83,1935.65
652.992,1940.2
653.155,1928.5
653.318,1926.45
653.48,1927.6
653.643,1933.5
653.805,1928.75
653.968,1933.85
654.131,1929.7
654.293,1930.05
654.456,1931.1
654.618,1923.55
654.781,1930.6
654.943,1928.7
655.106,1929.45
655.268,1926.45
655.431,1925.6
655.593,1930.9
655.756,1925.85
655.918,1920.65
656.081,1927.3
656.243,1920.35
656.405,1926.9
656.568,1926.0
656.73,1924.45
656.893,1922.5
657.055,1920.2
657.217,1917.9
657.38,1920.3
657.542,1917.45
657.704,1914.4
657.867,1916.75
658.029,1917.1
658.191,1921.35
658.354,1916.2
658.516,1914.65
658.678,1919.15
658.84,1917.8
659.003,1916.25
659.165,1915.9
659.327,1918.15
659.489,1919.9
659.652,1913.9
659.814,1918.65
659.976,1914.15
660.138,1914.85
660.3,1909.9
660.463,1919.45
660.625,1913.0
660.787,1910.65
660.949,1916.55
661.03,1915.35