File: spectra/VLFR_07-PET_bio_Raman_ca50244d.csv
nm,Intensity
791.377,8035.34
791.652,7871.62
791.927,7800.38
792.202,7753.2
792.477,7706.6
792.752,7631.16
793.027,7449.24
793.301,7399.98
793.576,7366.56
793.851,7403.5
794.126,7415.0
794.401,7296.38
794.676,7307.44
794.951,7169.54
795.225,7202.7
795.5,7198.06
795.775,7132.02
796.05,7246.6
796.325,7193.5
796.599,7191.02
796.874,7187.34
797.149,7147.76
797.424,7135.96
797.698,7149.78
797.973,7165.36
798.248,7146.2
798.523,7164.3
798.797,7134.0
799.072,7130.4
799.347,7209.28
799.622,7148.3
799.896,7081.52
800.171,7096.84
800.446,7109.82
800.72,7110.78
800.995,7071.42
801.27,7117.56
801.544,7071.98
801.819,7135.86
802.094,7101.46
802.368,7106.3
802.643,7055.42
802.918,6995.76
803.192,7018.6
803.467,7058.62
803.742,7016.36
804.016,7007.46
804.291,6994.3
804.565,6975.22
804.84,6954.82
805.114,6964.14
805.389,6958.96
805.664,6894.2
805.938,6927.82
806.213,6947.2
806.487,6854.1
806.762,6907.7
807.036,6889.4
807.311,6838.52
807.585,6788.3
807.86,6827.12
808.134,6824.1
808.409,6833.8
808.683,6802.18
808.958,6757.26
809.232,6801.3
809.507,6791.4
809.781,6726.94
810.056,6720.4
810.33,6764.88
810.605,6722.32
810.879,6694.3
811.153,6694.06
811.428,6668.7
811.702,6680.2
811.977,6667.76
812.251,6655.44
812.525,6644.0
812.8,6654.18
813.074,6636.76
813.349,6608.96
813.623,6537.68
813.897,6526.44
814.172,6532.92
814.446,6530.76
814.72,6514.18
814.995,6521.98
815.269,6480.66
815.543,6439.52
815.818,6447.6
816.092,6456.14
816.366,6470.14
816.64,6392.86
816.915,6431.66
817.189,6443.76
817.463,6386.5
817.737,6392.84
818.012,6360.28
818.286,6347.86
818.56,6366.22
818.834,6335.26
819.109,6329.86
819.383,6316.42
819.657,6254.82
819.931,6284.72
820.205,6260.38
820.48,6274.12
820.754,6251.86
821.028,6236.78
821.302,6220.88
821.576,6238.3
821.85,6223.74
822.125,6195.94
822.399,6168.04
822.673,6122.7
822.947,6134.68
823.221,6156.92
823.495,6150.54
823.769,6100.52
824.043,6095.4
824.317,6074.26
824.591,6113.32
824.865,6087.68
825.14,6096.88
825.414,6092.72
825.688,6133.28
825.962,6148.1
826.236,6157.32
826.51,6069.16
826.784,6090.42
827.058,6018.26
827.332,5965.34
827.606,5975.24
827.88,5997.58
828.154,5993.54
828.428,5964.66
828.702,5933.98
828.976,5933.3
829.249,5931.28
829.523,5941.0
829.797,5938.92
830.071,5903.18
830.345,5897.4
830.619,5923.44
830.893,5935.3
831.167,5932.5
831.441,5920.92
831.715,5856.58
831.988,5817.66
832.262,5840.68
832.536,5851.68
832.81,5834.38
833.084,5829.64
833.358,5828.2
833.632,5789.62
833.905,5774.32
834.179,5788.98
834.453,5740.28
834.727,5759.02
835.001,5754.64
835.274,5765.92
835.548,5744.22
835.822,5746.44
836.096,5696.02
836.369,5703.04
836.643,5758.12
836.917,5786.48
837.191,5776.64
837.464,5747.84
837.738,5712.52
838.012,5719.3
838.285,5758.62
838.559,5731.46
838.833,5722.1
839.106,5722.02
839.38,5717.4
839.654,5690.06
839.927,5688.46
840.201,5700.86
840.475,5689.44
840.748,5675.42
841.022,5757.82
841.295,5821.32
841.569,5818.4
841.843,5769.06
842.116,5702.5
842.39,5655.02
842.663,5626.68
842.937,5629.44
843.211,5643.96
843.484,5608.38
843.758,5636.42
844.031,5639.86
844.305,5546.54
844.578,5527.88
844.852,5548.48
845.125,5563.46
845.399,5528.96
845.672,5480.98
845.946,5463.1
846.219,5452.88
846.493,5460.16
846.766,5443.58
847.039,5438.24
847.313,5462.5
847.586,5467.46
847.86,5459.6
848.133,5408.78
848.407,5416.54
848.68,5406.38
848.953,5411.6
849.227,5419.98
849.5,5397.36
849.773,5389.1
850.047,5365.46
850.32,5364.46
850.593,5374.98
850.867,5384.44
851.14,5362.82
851.413,5360.04
851.687,5400.44
851.96,5415.88
852.233,5407.24
852.507,5440.98
852.78,5407.2
853.053,5376.56
853.326,5362.2
853.6,5339.82
853.873,5349.58
854.146,5329.36
854.419,5287.56
854.693,5284.88
854.966,5293.02
855.239,5276.26
855.512,5282.66
855.785,5266.48
856.059,5276.4
856.332,5266.62
856.605,5245.02
856.878,5232.56
857.151,5232.9
857.424,5255.48
857.698,5248.48
857.971,5228.34
858.244,5243.82
858.517,5279.46
858.79,5318.86
859.063,5317.92
859.336,5288.6
859.609,5255.14
859.882,5290.72
860.155,5294.24
860.428,5319.04
860.701,5265.5
860.974,5231.76
861.247,5223.18
861.52,5242.42
861.793,5208.24
862.066,5199.72
862.339,5193.1
862.612,5163.18
862.885,5178.16
863.158,5165.16
863.431,5168.36
863.704,5149.48
863.977,5139.48
864.25,5151.46
864.523,5156.44
864.796,5150.42
865.069,5133.62
865.342,5136.2
865.615,5131.1
865.888,5114.18
866.16,5118.26
866.433,5099.42
866.706,5089.0
866.979,5075.9
867.252,5072.96
867.525,5053.88
867.798,5042.32
868.07,5086.38
868.343,5093.86
868.616,5063.38
868.889,5062.14
869.162,5069.48
869.434,5053.1
869.707,5046.86
869.98,5051.32
870.253,5062.7
870.525,5060.84
870.798,5083.92
871.071,5108.54
871.344,5100.44
871.616,5119.36
871.889,5165.52
872.162,5190.16
872.434,5149.36
872.707,5155.36
872.98,5152.32
873.252,5150.46
873.525,5163.84
873.798,5151.06
874.07,5125.0
874.343,5100.8
874.615,5073.36
874.888,5086.84
875.161,5075.96
875.433,5038.28
875.706,5016.76
875.978,4995.56
876.251,4993.16
876.524,4981.8
876.796,4993.9
877.069,5006.22
877.341,4984.3
877.614,4960.42
877.886,4969.36
878.159,4976.42
878.431,4942.22
878.704,4931.64
878.976,4941.34
879.249,4941.3
879.521,4941.96
879.794,4937.82
880.066,4944.76
880.338,4943.28
880.611,4919.84
880.883,4929.22
881.156,4910.94
881.428,4885.92
881.7,4876.44
881.973,4886.28
882.245,4908.02
882.518,4914.26
882.79,4902.14
883.062,4909.82
883.335,4925.06
883.607,4904.24
883.879,4898.8
884.152,4904.0
884.424,4902.1
884.696,4871.08
884.968,4878.8
885.241,4890.1
885.513,4878.72
885.785,4885.82
886.058,4869.72
886.33,4868.42
886.602,4867.06
886.874,4857.22
887.146,4841.72
887.419,4838.28
887.691,4828.34
887.963,4808.84
888.235,4793.78
888.507,4795.56
888.78,4810.94
889.052,4802.62
889.324,4787.96
889.596,4795.66
889.868,4784.14
890.14,4789.16
890.412,4786.44
890.684,4769.06
890.957,4780.7
891.229,4798.84
891.501,4782.16
891.773,4763.1
892.045,4766.88
892.317,4780.48
892.589,4750.22
892.861,4743.22
893.133,4761.08
893.405,4745.82
893.677,4748.44
893.949,4749.2
894.221,4722.5
894.493,4730.16
894.765,4729.34
895.037,4717.2
895.309,4704.92
895.581,4670.08
895.853,4702.44
896.125,4710.38
896.397,4712.16
896.668,4711.44
896.94,4691.42
897.212,4704.6
897.484,4736.62
897.756,4772.96
898.028,4848.02
898.3,4939.86
898.571,4979.44
898.843,4947.94
899.115,4926.18
899.387,4875.02
899.659,4821.78
899.931,4759.7
900.202,4707.38
900.474,4653.82
900.746,4625.56
901.018,4615.86
901.289,4620.74
901.561,4618.6
901.833,4611.74
902.105,4613.64
902.376,4598.16
902.648,4603.8
902.92,4599.9
903.191,4574.12
903.463,4569.24
903.735,4590.88
904.006,4581.06
904.278,4578.34
904.55,4560.58
904.821,4566.32
905.093,4583.42
905.365,4591.24
905.636,4584.38
905.908,4590.78
906.179,4599.54
906.451,4611.74
906.722,4646.44
906.994,4658.76
907.266,4689.42
907.537,4721.84
907.809,4736.18
908.08,4754.92
908.352,4748.18
908.623,4702.62
908.895,4655.72
909.166,4623.28
909.438,4609.1
909.709,4583.24
909.981,4544.96
910.252,4531.16
910.523,4513.02
910.795,4500.12
911.066,4493.12
911.338,4476.3
911.609,4471.02
911.881,4459.16
912.152,4447.16
912.423,4429.92
912.695,4431.34
912.966,4423.56
913.237,4431.28
913.509,4429.6
913.78,4424.58
914.051,4426.84
914.323,4436.62
914.594,4416.38
914.865,4403.86
915.136,4408.94
915.408,4409.02
915.679,4392.8
915.95,4380.02
916.221,4379.76
916.493,4373.7
916.764,4370.5
917.035,4380.1
917.306,4377.42
917.578,4360.8
917.849,4356.18
918.12,4363.24
918.391,4364.84
918.662,4356.78
918.933,4363.16
919.204,4360.66
919.476,4351.82
919.747,4335.04
920.018,4327.06
920.289,4329.0
920.56,4329.58
920.831,4324.04
921.102,4304.7
921.373,4299.58
921.644,4310.7
921.915,4310.06
922.186,4303.66
922.457,4304.42
922.728,4301.42
922.999,4292.18
923.27,4281.96
923.541,4275.64
923.812,4275.06
924.083,4280.56
924.354,4286.1
924.625,4277.16
924.896,4260.8
925.167,4252.26
925.438,4254.02
925.709,4264.32
925.98,4261.02
926.251,4255.52
926.522,4244.46
926.792,4234.84
927.063,4237.56
927.334,4232.04
927.605,4230.16
927.876,4230.0
928.147,4224.12
928.417,4218.66
928.688,4209.6
928.959,4202.66
929.23,4201.54
929.501,4195.42
929.771,4192.36
930.042,4194.6
930.313,4185.74
930.584,4186.38
930.854,4183.68
931.125,4175.74
931.396,4175.36
931.666,4176.2
931.937,4181.92
932.208,4177.26
932.478,4164.46
932.749,4158.6
933.02,4160.68
933.29,4157.84
933.561,4148.14
933.832,4141.4
934.102,4147.38
934.373,4146.86
934.643,4139.24
934.914,4130.86
935.184,4136.22
935.455,4127.16
935.726,4125.72
935.996,4127.48
936.267,4129.78
936.537,4119.72
936.808,4105.74
937.078,4103.92
937.349,4110.32
937.619,4105.9
937.89,4106.56
938.16,4105.24
938.43,4097.34
938.701,4093.7
938.971,4092.1
939.242,4092.78
939.512,4090.22
939.782,4086.4
940.053,4090.86
940.323,4084.24
940.594,4084.34
940.864,4080.58
941.134,4074.52
941.405,4074.34
941.675,4077.54
941.945,4071.12
942.216,4069.48
942.486,4057.54
942.756,4059.46
943.026,4053.22
943.297,4055.44
943.567,4057.22
943.837,4050.72
944.107,4043.06
944.378,4045.54
944.648,4042.54
944.918,4039.3
945.188,4034.5
945.458,4030.96
945.729,4032.56
945.999,4033.04
946.269,4034.82
946.539,4031.12
946.809,4028.16
947.079,4023.04
947.349,4018.58
947.62,4019.62
947.89,4015.16
948.16,4016.42
948.43,4019.86
948.7,4020.9
948.97,4011.64
949.24,4002.46
949.51,4001.34
949.78,4001.94
950.05,4004.54
950.32,3995.52
950.59,3999.84
950.86,4002.64
951.13,3996.84
951.4,3998.0
951.67,3993.98
951.94,3987.62
952.21,3985.0
952.48,3983.24
952.75,3979.04
953.02,3976.6
953.289,3979.66
953.559,3976.64
953.829,3973.66
954.099,3971.72
954.369,3971.08
954.639,3972.12
954.909,3969.98
955.178,3964.88
955.448,3964.98
955.718,3967.32
955.988,3965.04
956.257,3961.84
956.527,3960.32
956.797,3962.08
957.067,3960.68
957.336,3952.12
957.606,3952.18
957.876,3947.72
958.146,3946.84
958.415,3950.56
958.685,3950.76
958.955,3947.64
959.224,3945.52
959.494,3938.8
959.764,3938.86
960.033,3938.5
960.303,3938.6
960.572,3939.82
960.842,3940.72
961.112,3933.3
961.381,3932.72
961.651,3934.48
961.92,3933.56
962.19,3933.18
962.459,3926.5
962.729,3924.48
962.998,3921.1
963.268,3925.08
963.537,3929.62
963.807,3926.78
964.076,3924.64
964.346,3919.38
964.615,3918.16
964.885,3919.78
965.154,3914.9
965.424,3915.18
965.693,3912.64
965.962,3913.26
966.232,3911.6
966.501,3908.86
966.771,3906.34
967.04,3907.96
967.309,3907.48
967.579,3903.06
967.848,3906.78
968.117,3908.92
968.387,3903.62
968.656,3901.28
968.925,3898.22
969.194,3902.32
969.464,3903.06
969.733,3899.06
970.002,3895.2
970.271,3896.8
970.541,3894.96
970.81,3894.54
971.079,3892.94
971.348,3891.2
971.617,3890.18
971.887,3889.08
972.156,3891.18
972.425,3892.28
972.694,3890.04
972.963,3887.1
973.232,3884.48
973.501,3884.02
973.77,3881.0
974.04,3881.54
974.309,3884.52
974.578,3880.48
974.847,3881.44
975.116,3878.12
975.385,3878.38
975.654,3875.04
975.923,3876.94
976.192,3877.2
976.461,3874.18
976.73,3874.26
976.999,3876.18
977.268,3874.1
977.537,3873.3
977.806,3869.92
978.074,3869.76
978.343,3868.54
978.612,3867.36
978.881,3869.1
979.15,3867.26
979.419,3867.08
979.688,3865.24
979.957,3865.88
980.225,3864.2
980.494,3864.9
980.763,3862.98
981.032,3862.64
981.301,3862.52
981.569,3862.06
981.838,3863.3
982.107,3863.04
982.376,3860.08
982.644,3858.74
982.913,3858.78
983.182,3856.86
983.451,3854.32
983.719,3853.42
983.988,3853.76
984.257,3855.74
984.525,3854.44
984.794,3851.86
985.063,3853.26
985.331,3852.6
985.6,3851.08
985.868,3850.18
986.137,3850.08
986.406,3850.82
986.674,3849.9
986.943,3849.98
987.211,3847.56
987.48,3848.98
987.748,3847.26
988.017,3847.22
988.285,3844.7
988.554,3843.82
988.822,3843.16
989.091,3842.62
989.359,3844.38
989.628,3844.9
989.896,3841.72
990.164,3842.76
990.433,3843.32
990.701,3840.76
990.97,3842.02
991.238,3838.26
991.506,3838.44
991.775,3836.9
992.043,3835.5
992.311,3835.18
992.58,3835.48
992.848,3834.48
993.116,3833.44
993.385,3833.86
993.653,3835.5
993.921,3834.38
994.19,3832.26
994.458,3830.68
994.726,3830.38
994.994,3831.56
995.262,3830.44
995.531,3830.56
995.799,3831.46
996.067,3831.18
996.335,3827.42
996.603,3826.58
996.872,3827.46
997.14,3827.9
997.408,3827.26
997.676,3826.38
997.944,3826.84
998.212,3826.08
998.48,3824.44
998.748,3825.14
999.016,3824.62
999.284,3821.82
999.552,3822.48
999.82,3823.86
1000.09,3822.5
1000.36,3820.5
1000.62,3820.88
1000.89,3818.84
1001.16,3820.64
1001.43,3819.42
1001.7,3819.26
1001.96,3818.88
1002.23,3821.72
1002.5,3819.58
1002.77,3818.6
1003.04,3817.2
1003.3,3817.9
1003.57,3817.18
1003.84,3817.68
1004.11,3816.04
1004.38,3815.04
1004.64,3814.58
1004.91,3815.14
1005.18,3814.74
1005.45,3813.44
1005.71,3813.7
1005.98,3814.18
1006.25,3812.76
1006.52,3811.66
1006.79,3812.5
1007.05,3813.8
1007.32,3813.42
1007.59,3811.64
1007.86,3810.28
1008.12,3809.22
1008.39,3808.82
1008.66,3808.64
1008.93,3808.54
1009.19,3809.2
1009.46,3807.1
1009.73,3806.54
1010.0,3809.64
1010.26,3806.42
1010.53,3808.6
1010.8,3808.96
1011.07,3807.4
1011.33,3806.76
1011.6,3806.1
1011.87,3807.06
1012.14,3804.26
1012.4,3805.88
1012.67,3805.22
1012.94,3805.06
1013.21,3804.56
1013.47,3804.0
1013.74,3804.74
1014.01,3805.1
1014.28,3801.76
1014.54,3802.78
1014.81,3803.8
1015.08,3803.92
1015.35,3803.28
1015.61,3803.06
1015.88,3803.62
1016.15,3804.0
1016.42,3803.2
1016.68,3803.24
1016.95,3801.28
1017.22,3801.8
1017.48,3800.88
1017.75,3801.56
1018.02,3801.86
1018.29,3800.48
1018.55,3800.22
1018.82,3800.78
1019.09,3799.8
1019.36,3800.44
1019.62,3799.8
1019.89,3799.2
1020.16,3799.4
1020.42,3800.26
1020.69,3800.4
1020.96,3800.92
1021.23,3801.18
1021.49,3801.0
1021.76,3800.3
1022.03,3801.18
1022.29,3801.22
1022.56,3801.2
1022.83,3801.54
1023.09,3800.24
1023.36,3801.32
1023.63,3799.24
1023.9,3799.68
1024.16,3799.82
1024.43,3798.88
1024.7,3797.76
1024.96,3797.72
1025.23,3797.9
1025.5,3797.64
1025.76,3798.1
1026.03,3795.58
1026.3,3796.24
1026.56,3794.82
1026.83,3796.52
1027.1,3794.16
1027.37,3795.14
1027.63,3793.56
1027.9,3794.26
1028.17,3793.54
1028.43,3791.94
1028.7,3791.72
1028.97,3791.92
1029.23,3791.82
1029.5,3792.12
1029.77,3792.08
1030.03,3789.8
1030.3,3791.04
1030.57,3790.3
1030.83,3790.22
1031.1,3789.74
1031.37,3790.18
1031.63,3791.3
1031.9,3790.84
1032.17,3790.04
1032.43,3789.84
1032.7,3790.1
1032.97,3789.74
1033.23,3790.48
1033.5,3791.0
1033.77,3791.2
1034.03,3791.0
1034.3,3789.72
1034.57,3791.68
1034.83,3790.68
1035.1,3791.46
1035.36,3790.58
1035.63,3791.36
1035.9,3791.08
1036.16,3790.58
1036.43,3791.02
1036.7,3790.42
1036.96,3790.9
1037.23,3789.7
1037.5,3789.24
1037.76,3788.0
1038.03,3787.86
1038.3,3786.88
1038.56,3787.0
1038.83,3787.36
1039.09,3787.04
1039.36,3785.9
1039.63,3787.88
1039.89,3785.24
1040.16,3786.64
1040.43,3786.82
1040.69,3786.84
1040.96,3786.58
1041.22,3786.4
1041.49,3784.52
1041.76,3785.58
1042.02,3784.44
1042.29,3785.32
1042.55,3784.66
1042.82,3786.02
1043.09,3784.82
1043.35,3784.88
1043.62,3784.56
1043.89,3784.1
1044.15,3783.72
1044.42,3785.28
1044.68,3785.24
1044.95,3783.66
1045.22,3783.74
1045.48,3784.08
1045.75,3783.64
1046.01,3783.6
1046.28,3783.06
1046.55,3784.76
1046.81,3783.46
1047.08,3784.4
1047.34,3783.5
1047.61,3783.48
1047.88,3783.22
1048.14,3783.12
1048.41,3783.8
1048.67,3782.82
1048.94,3783.22
1049.2,3783.54
1049.47,3782.84
1049.74,3783.04
1050.0,3782.28
1050.27,3782.72
1050.53,3782.7
1050.8,3783.22
1051.06,3782.46
1051.33,3782.32
1051.6,3782.84
1051.86,3783.0
1052.13,3782.96
1052.39,3782.34
1052.66,3783.08
1052.92,3782.02
1053.19,3781.4
1053.46,3782.44
1053.72,3782.5
1053.99,3782.92
1054.25,3782.78
1054.52,3781.74
1054.78,3782.48
1055.05,3781.96
1055.32,3783.0
1055.58,3782.58
1055.85,3782.4
1056.11,3782.56
1056.38,3782.46
1056.64,3781.98
1056.91,3781.46
1057.17,3781.14
1057.44,3782.12
1057.7,3781.22
1057.97,3781.82
1058.24,3781.68
1058.5,3782.26
1058.77,3781.2
1059.03,3781.08
1059.3,3781.96
1059.56,3782.22
1059.83,3781.84
1060.09,3780.82
1060.36,3781.76
1060.62,3782.08
1060.89,3782.1
1061.15,3782.16
1061.42,3782.04
1061.68,3781.62
1061.95,3781.36
1062.22,3780.98
1062.48,3781.36
1062.75,3781.18
1063.01,3781.28
1063.28,3781.22
1063.54,3781.42
1063.81,3780.06
1064.07,3781.22
1064.34,3780.86
1064.6,3780.82
1064.87,3780.34
1065.13,3782.08
1065.4,3780.62
1065.66,3780.0
1065.93,3780.02
1066.19,3780.52
1066.46,3780.94
1066.72,3779.74
1066.99,3779.94
1067.25,3781.48
1067.52,3781.38
1067.78,3781.0
1068.05,3780.14