File: spectra/VLFR_02-HDPE_bio_Raman_c13566de.csv
nm,Intensity
528.635,1837.3
528.803,1838.4
528.972,1839.2
529.14,1838.8
529.308,1837.7
529.477,1839.3
529.645,1839.7
529.814,1837.9
529.982,1837.4
530.151,1837.8
530.319,1837.9
530.487,1837.7
530.656,1838.0
530.824,1838.4
530.993,1837.7
531.161,1839.7
531.329,1842.4
531.498,1848.2
531.666,1892.2
531.835,2527.6
532.003,4378.1
532.171,4898.3
532.34,2125.0
532.508,1841.4
532.676,1839.4
532.845,1838.8
533.013,1838.3
533.181,1839.4
533.35,1841.2
533.518,1858.6
533.686,1974.0
533.854,2158.6
534.023,2267.8
534.191,2292.1
534.359,2269.8
534.528,2273.9
534.696,2294.9
534.864,2309.5
535.032,2290.0
535.201,2242.7
535.369,2194.6
535.537,2137.0
535.705,2110.5
535.874,2080.7
536.042,2053.3
536.21,2055.1
536.378,2034.8
536.546,2048.7
536.715,2040.5
536.883,2034.1
537.051,2032.6
537.219,2027.8
537.387,2032.9
537.556,2034.5
537.724,2033.7
537.892,2036.4
538.06,2027.4
538.228,2024.6
538.396,2016.7
538.565,2007.8
538.733,2009.0
538.901,2006.5
539.069,1997.6
539.237,2004.6
539.405,1990.1
539.573,1981.4
539.741,1983.7
539.909,1982.2
540.077,1985.0
540.246,1977.6
540.414,1977.0
540.582,1977.2
540.75,1981.1
540.918,1974.1
541.086,1975.4
541.254,1975.3
541.422,1966.1
541.59,1979.5
541.758,1976.8
541.926,1982.3
542.094,1974.3
542.262,1986.2
542.43,1977.6
542.598,1970.8
542.766,1958.9
542.934,1980.2
543.102,1975.9
543.27,1980.0
543.438,1971.4
543.606,1978.3
543.774,1966.3
543.942,1971.9
544.11,1971.1
544.278,1972.5
544.445,1984.9
544.613,1973.8
544.781,1977.2
544.949,1973.6
545.117,1970.5
545.285,1971.7
545.453,1971.4
545.621,1965.2
545.789,1969.3
545.957,1978.4
546.124,1978.7
546.292,1971.9
546.46,1979.1
546.628,1972.0
546.796,1979.7
546.964,1979.9
547.131,1980.7
547.299,1978.7
547.467,1986.6
547.635,1972.9
547.803,1979.9
547.97,1990.2
548.138,1983.4
548.306,1982.3
548.474,1984.5
548.642,1975.4
548.809,1976.4
548.977,1977.9
549.145,1978.4
549.313,1980.7
549.48,1976.5
549.648,1993.6
549.816,1979.5
549.983,1980.5
550.151,1984.2
550.319,1981.6
550.487,1984.5
550.654,1990.3
550.822,1987.7
550.99,1986.8
551.157,1985.1
551.325,1994.8
551.493,1998.0
551.66,1998.9
551.828,1997.1
551.996,1985.1
552.163,1985.6
552.331,1991.6
552.499,1989.6
552.666,1991.0
552.834,1995.1
553.001,1995.5
553.169,1995.5
553.337,2016.4
553.504,2017.4
553.672,2002.9
553.839,2002.9
554.007,2018.4
554.174,2013.5
554.342,2014.8
554.509,2030.4
554.677,2024.1
554.845,2018.9
555.012,2020.9
555.18,2011.7
555.347,2018.3
555.515,2029.2
555.682,2026.9
555.85,2033.7
556.017,2035.1
556.185,2025.9
556.352,2037.9
556.52,2030.0
556.687,2048.0
556.854,2041.3
557.022,2054.0
557.189,2053.7
557.357,2078.0
557.524,2078.4
557.692,2071.1
557.859,2079.2
558.026,2079.3
558.194,2086.2
558.361,2096.9
558.529,2091.9
558.696,2079.6
558.863,2073.9
559.031,2068.2
559.198,2079.6
559.365,2067.3
559.533,2065.0
559.7,2063.6
559.867,2066.1
560.035,2054.9
560.202,2056.4
560.369,2057.9
560.537,2065.5
560.704,2054.8
560.871,2066.5
561.039,2063.3
561.206,2060.2
561.373,2070.8
561.54,2073.7
561.708,2082.7
561.875,2082.1
562.042,2084.8
562.209,2078.9
562.377,2106.2
562.544,2105.0
562.711,2097.2
562.878,2102.5
563.046,2114.3
563.213,2121.4
563.38,2139.4
563.547,2204.8
563.714,2424.8
563.881,2922.9
564.049,3140.3
564.216,2658.5
564.383,2318.4
564.55,2280.5
564.717,2268.1
564.884,2229.7
565.052,2207.8
565.219,2188.4
565.386,2198.3
565.553,2217.8
565.72,2322.2
565.887,2653.2
566.054,3302.9
566.221,3470.4
566.388,2691.6
566.555,2259.8
566.722,2179.7
566.889,2179.7
567.056,2166.0
567.224,2211.3
567.391,2280.7
567.558,2262.9
567.725,2149.8
567.892,2131.4
568.059,2112.5
568.226,2106.4
568.393,2102.4
568.56,2102.3
568.727,2099.3
568.893,2100.0
569.06,2112.3
569.227,2112.1
569.394,2106.7
569.561,2135.5
569.728,2114.5
569.895,2112.0
570.062,2133.5
570.229,2136.3
570.396,2157.2
570.563,2182.6
570.73,2217.6
570.897,2218.1
571.063,2253.2
571.23,2533.7
571.397,3393.5
571.564,3972.4
571.731,3018.3
571.898,2433.2
572.064,2313.8
572.231,2244.0
572.398,2191.4
572.565,2158.1
572.732,2138.7
572.899,2130.5
573.065,2131.5
573.232,2130.3
573.399,2126.7
573.566,2127.8
573.732,2173.0
573.899,2229.3
574.066,2188.4
574.233,2132.4
574.399,2107.0
574.566,2108.2
574.733,2126.2
574.9,2127.1
575.066,2167.1
575.233,2354.7
575.4,2815.8
575.566,3094.6
575.733,2757.1
575.9,2654.6
576.066,2923.8
576.233,3273.7
576.4,3210.8
576.566,2953.9
576.733,2833.9
576.899,2823.9
577.066,2822.9
577.233,2662.5
577.399,2480.7
577.566,2322.6
577.732,2256.9
577.899,2195.4
578.066,2177.4
578.232,2172.9
578.399,2173.4
578.565,2160.3
578.732,2160.6
578.898,2165.1
579.065,2167.3
579.231,2154.4
579.398,2140.5
579.564,2151.2
579.731,2129.9
579.897,2135.1
580.064,2131.5
580.23,2133.0
580.397,2134.4
580.563,2134.0
580.73,2129.1
580.896,2127.9
581.063,2135.7
581.229,2123.0
581.396,2123.9
581.562,2138.4
581.728,2123.6
581.895,2139.3
582.061,2120.4
582.228,2109.8
582.394,2120.3
582.56,2126.0
582.727,2128.9
582.893,2122.7
583.059,2121.6
583.226,2108.1
583.392,2122.5
583.558,2134.6
583.725,2127.6
583.891,2120.0
584.057,2124.6
584.224,2122.0
584.39,2130.8
584.556,2145.4
584.722,2134.6
584.889,2136.5
585.055,2130.7
585.221,2142.2
585.387,2136.9
585.554,2153.1
585.72,2145.4
585.886,2148.8
586.052,2161.2
586.219,2170.5
586.385,2162.3
586.551,2180.0
586.717,2194.0
586.883,2194.5
587.049,2184.2
587.216,2192.7
587.382,2196.2
587.548,2203.8
587.714,2207.7
587.88,2203.0
588.046,2211.8
588.212,2231.3
588.379,2240.0
588.545,2234.0
588.711,2256.2
588.877,2251.9
589.043,2246.9
589.209,2244.0
589.375,2262.8
589.541,2276.7
589.707,2290.8
589.873,2249.6
590.039,2272.7
590.205,2291.2
590.371,2288.8
590.537,2294.3
590.703,2298.7
590.869,2328.3
591.035,2288.9
591.201,2321.9
591.367,2315.8
591.533,2313.0
591.699,2346.3
591.865,2330.6
592.031,2345.7
592.197,2335.1
592.363,2337.7
592.529,2353.0
592.695,2343.9
592.86,2346.2
593.026,2341.0
593.192,2351.0
593.358,2359.0
593.524,2327.9
593.69,2342.8
593.856,2320.4
594.022,2360.9
594.187,2359.3
594.353,2321.7
594.519,2330.6
594.685,2340.9
594.851,2359.4
595.016,2332.5
595.182,2340.7
595.348,2322.9
595.514,2347.8
595.679,2354.1
595.845,2360.6
596.011,2363.4
596.177,2333.4
596.342,2357.7
596.508,2364.1
596.674,2342.4
596.84,2330.3
597.005,2338.7
597.171,2364.0
597.337,2355.7
597.502,2346.6
597.668,2345.8
597.834,2343.1
597.999,2372.4
598.165,2356.5
598.331,2358.8
598.496,2341.0
598.662,2382.1
598.827,2369.2
598.993,2383.0
599.159,2373.2
599.324,2387.0
599.49,2385.4
599.655,2387.5
599.821,2394.3
599.987,2412.3
600.152,2393.2
600.318,2397.0
600.483,2394.1
600.649,2387.6
600.814,2405.8
600.98,2406.2
601.145,2411.6
601.311,2426.7
601.476,2408.9
601.642,2429.2
601.807,2416.9
601.973,2454.6
602.138,2458.6
602.303,2451.8
602.469,2412.8
602.634,2444.1
602.8,2418.0
602.965,2430.5
603.13,2417.0
603.296,2432.7
603.461,2421.8
603.627,2421.5
603.792,2440.8
603.957,2442.4
604.123,2424.1
604.288,2440.8
604.453,2430.0
604.619,2401.5
604.784,2419.7
604.949,2411.4
605.115,2413.1
605.28,2428.8
605.445,2407.8
605.61,2410.7
605.776,2408.8
605.941,2395.0
606.106,2399.3
606.272,2390.0
606.437,2406.1
606.602,2384.0
606.767,2390.6
606.932,2387.3
607.098,2389.4
607.263,2361.2
607.428,2374.5
607.593,2386.8
607.758,2364.5
607.923,2367.5
608.089,2373.0
608.254,2368.9
608.419,2343.4
608.584,2373.1
608.749,2361.0
608.914,2380.9
609.079,2367.8
609.244,2372.8
609.41,2337.9
609.575,2357.5
609.74,2353.7
609.905,2355.2
610.07,2363.4
610.235,2360.6
610.4,2369.7
610.565,2371.4
610.73,2372.8
610.895,2384.7
611.06,2394.7
611.225,2377.2
611.39,2376.9
611.555,2378.5
611.72,2368.3
611.885,2349.2
612.05,2376.3
612.215,2338.4
612.38,2356.3
612.545,2343.0
612.709,2320.8
612.874,2350.0
613.039,2345.9
613.204,2341.6
613.369,2339.9
613.534,2340.7
613.699,2346.5
613.864,2331.8
614.028,2327.0
614.193,2342.5
614.358,2364.5
614.523,2328.3
614.688,2333.3
614.853,2346.6
615.017,2348.9
615.182,2333.8
615.347,2337.2
615.512,2345.9
615.676,2345.4
615.841,2344.8
616.006,2344.0
616.171,2361.3
616.335,2353.0
616.5,2346.5
616.665,2378.3
616.829,2371.7
616.994,2393.6
617.159,2399.1
617.324,2410.7
617.488,2392.5
617.653,2428.3
617.818,2429.7
617.982,2415.5
618.147,2388.5
618.311,2392.8
618.476,2393.7
618.641,2401.4
618.805,2399.8
618.97,2401.8
619.134,2397.7
619.299,2420.2
619.463,2428.8
619.628,2457.2
619.793,2419.0
619.957,2426.7
620.122,2408.9
620.286,2422.2
620.451,2399.0
620.615,2425.4
620.78,2442.2
620.944,2468.5
621.109,2466.0
621.273,2538.9
621.438,2581.1
621.602,2640.1
621.766,2713.4
621.931,2789.8
622.095,2885.7
622.26,2872.8
622.424,2830.6
622.588,2732.1
622.753,2599.3
622.917,2538.2
623.082,2482.3
623.246,2431.8
623.41,2398.4
623.575,2408.8
623.739,2390.8
623.903,2376.1
624.068,2379.5
624.232,2376.1
624.396,2385.1
624.56,2397.9
624.725,2400.8
624.889,2399.0
625.053,2402.2
625.218,2403.3
625.382,2433.2
625.546,2443.9
625.71,2488.6
625.874,2553.0
626.039,2608.2
626.203,2742.9
626.367,3095.2
626.531,3721.0
626.695,4937.2
626.86,6869.9
627.024,8902.2
627.188,9789.0
627.352,9147.0
627.516,7993.5
627.68,7057.3
627.844,6790.8
628.008,6614.2
628.172,7228.5
628.337,8854.4
628.501,9919.7
628.665,8434.7
628.829,6631.3
628.993,6075.7
629.157,5791.4
629.321,5544.3
629.485,5300.2
629.649,4902.3
629.813,4535.9
629.977,4490.2
630.141,4376.5
630.305,4319.0
630.469,4174.4
630.633,3893.2
630.797,3556.3
630.961,3190.1
631.124,2853.4
631.288,2677.6
631.452,2544.8
631.616,2477.9
631.78,2434.1
631.944,2397.1
632.108,2383.8
632.272,2364.3
632.436,2331.2
632.599,2318.1
632.763,2312.3
632.927,2302.5
633.091,2283.1
633.255,2277.5
633.418,2269.1
633.582,2266.8
633.746,2245.3
633.91,2243.1
634.074,2225.4
634.237,2231.9
634.401,2215.1
634.565,2214.4
634.728,2207.4
634.892,2207.4
635.056,2198.3
635.22,2188.9
635.383,2191.5
635.547,2181.9
635.711,2166.7
635.874,2185.1
636.038,2174.3
636.202,2188.3
636.365,2191.9
636.529,2178.5
636.692,2177.8
636.856,2139.7
637.02,2161.6
637.183,2145.3
637.347,2145.6
637.51,2136.5
637.674,2117.2
637.837,2128.9
638.001,2135.0
638.164,2111.8
638.328,2134.6
638.491,2129.8
638.655,2122.8
638.818,2119.2
638.982,2128.4
639.145,2108.1
639.309,2107.4
639.472,2108.2
639.636,2117.8
639.799,2103.0
639.963,2120.8
640.126,2119.7
640.289,2122.2
640.453,2117.8
640.616,2111.9
640.78,2110.0
640.943,2115.7
641.106,2102.7
641.27,2115.1
641.433,2102.1
641.596,2095.3
641.76,2110.0
641.923,2109.8
642.086,2113.7
642.249,2109.0
642.413,2103.5
642.576,2104.1
642.739,2109.2
642.903,2106.2
643.066,2104.8
643.229,2106.6
643.392,2104.7
643.555,2101.8
643.719,2110.7
643.882,2118.6
644.045,2098.5
644.208,2112.6
644.371,2106.6
644.534,2095.3
644.698,2103.2
644.861,2099.8
645.024,2107.9
645.187,2102.3
645.35,2102.6
645.513,2104.4
645.676,2097.2
645.839,2095.6
646.002,2092.1
646.165,2108.6
646.329,2095.6
646.492,2083.2
646.655,2093.5
646.818,2087.2
646.981,2079.9
647.144,2094.8
647.307,2092.4
647.47,2095.0
647.633,2101.6
647.796,2080.6
647.958,2096.0
648.121,2079.4
648.284,2084.9
648.447,2090.1
648.61,2079.2
648.773,2078.4
648.936,2066.6
649.099,2073.3
649.262,2085.5
649.425,2066.8
649.587,2069.1
649.75,2077.8
649.913,2074.8
650.076,2079.1
650.239,2068.1
650.402,2068.0
650.564,2080.3
650.727,2072.3
650.89,2056.6
651.053,2066.0
651.215,2063.9
651.378,2049.7
651.541,2058.0
651.704,2062.7
651.866,2061.8
652.029,2051.8
652.192,2059.4
652.354,2049.2
652.517,2072.2
652.68,2064.6
652.842,2061.9
653.005,2056.6
653.168,2066.5
653.33,2052.3
653.493,2057.5
653.656,2053.6
653.818,2043.6
653.981,2056.6
654.143,2052.9
654.306,2039.7
654.468,2056.8
654.631,2063.1
654.794,2053.0
654.956,2059.0
655.119,2051.9
655.281,2054.5
655.444,2045.5
655.606,2032.6
655.769,2048.6
655.931,2051.7
656.093,2037.5
656.256,2052.4
656.418,2049.2
656.581,2039.7
656.743,2051.7
656.906,2046.4
657.068,2047.1
657.23,2051.9
657.393,2049.1
657.555,2039.7
657.718,2034.3
657.88,2045.7
658.042,2044.2
658.205,2025.9
658.367,2029.8
658.529,2012.8
658.691,2025.2
658.854,2035.8
659.016,2038.7
659.178,2027.5
659.341,2032.9
659.503,2025.1
659.665,2028.7
659.827,2039.5
659.989,2033.0
660.152,2045.0
660.314,2022.7
660.476,2021.2
660.638,2032.6
660.8,2024.5
660.963,2028.6
661.044,2025.6