File: spectra/VLFR_09-PET_bio_Raman_184e1003.csv
nm,Intensity
526.508,831.7
526.645,831.4
526.782,831.5
526.919,831.0
527.055,830.1
527.192,829.6
527.329,831.0
527.465,829.8
527.602,831.4
527.739,830.6
527.875,830.4
528.012,830.2
528.149,829.8
528.285,830.6
528.422,831.4
528.558,830.4
528.695,831.9
528.832,830.8
528.968,831.0
529.105,829.9
529.241,830.7
529.378,831.8
529.514,831.8
529.651,831.6
529.787,831.4
529.924,830.7
530.061,831.2
530.197,832.5
530.334,831.2
530.47,830.9
530.606,832.2
530.743,831.1
530.879,830.7
531.016,830.8
531.152,831.3
531.289,829.7
531.425,830.9
531.562,831.5
531.698,831.4
531.834,831.4
531.971,840.8
532.107,912.9
532.244,932.9
532.38,852.6
532.516,832.7
532.653,831.6
532.789,831.1
532.925,830.9
533.062,829.7
533.198,831.4
533.334,830.9
533.471,832.5
533.607,843.9
533.743,938.9
533.879,1383.5
534.016,2041.6
534.152,2312.6
534.288,2305.4
534.424,2219.8
534.561,2166.4
534.697,2101.2
534.833,2044.3
534.969,1972.5
535.106,1898.8
535.242,1848.0
535.378,1825.2
535.514,1799.8
535.65,1767.8
535.786,1747.1
535.923,1717.4
536.059,1689.7
536.195,1665.5
536.331,1656.3
536.467,1639.8
536.603,1617.6
536.739,1626.6
536.876,1622.5
537.012,1616.2
537.148,1630.7
537.284,1613.1
537.42,1619.8
537.556,1613.5
537.692,1608.2
537.828,1617.7
537.964,1615.6
538.1,1621.9
538.236,1623.9
538.372,1619.5
538.508,1630.1
538.644,1638.1
538.78,1636.3
538.916,1633.4
539.052,1633.7
539.188,1624.6
539.324,1645.6
539.46,1665.4
539.596,1665.9
539.732,1680.3
539.868,1684.9
540.004,1683.6
540.14,1689.5
540.275,1685.3
540.411,1673.3
540.547,1670.1
540.683,1676.1
540.819,1665.3
540.955,1674.9
541.091,1677.7
541.227,1668.9
541.362,1678.1
541.498,1670.9
541.634,1673.7
541.77,1674.6
541.906,1673.5
542.041,1674.8
542.177,1683.7
542.313,1688.1
542.449,1694.7
542.585,1695.7
542.72,1708.9
542.856,1710.3
542.992,1704.0
543.128,1720.2
543.263,1720.6
543.399,1710.7
543.535,1710.2
543.67,1731.9
543.806,1728.4
543.942,1737.8
544.078,1743.4
544.213,1730.8
544.349,1738.2
544.485,1733.9
544.62,1754.8
544.756,1748.4
544.892,1753.8
545.027,1766.1
545.163,1757.9
545.298,1771.5
545.434,1761.2
545.57,1787.4
545.705,1770.2
545.841,1768.6
545.976,1777.3
546.112,1790.2
546.248,1780.7
546.383,1787.0
546.519,1790.5
546.654,1782.0
546.79,1800.7
546.925,1798.2
547.061,1805.4
547.196,1795.4
547.332,1809.9
547.467,1805.4
547.603,1803.9
547.738,1808.3
547.874,1808.9
548.009,1819.3
548.145,1820.3
548.28,1820.1
548.416,1824.8
548.551,1835.2
548.686,1832.0
548.822,1841.2
548.957,1854.0
549.093,1844.4
549.228,1844.7
549.363,1866.8
549.499,1846.0
549.634,1861.8
549.77,1865.1
549.905,1853.2
550.04,1861.3
550.176,1859.0
550.311,1870.1
550.446,1896.0
550.582,1971.5
550.717,2097.0
550.852,1991.6
550.988,1892.4
551.123,1883.5
551.258,1879.3
551.394,1879.9
551.529,1889.5
551.664,1898.5
551.799,1903.8
551.935,1894.1
552.07,1904.5
552.205,1910.9
552.34,1912.2
552.476,1910.5
552.611,1920.8
552.746,1952.0
552.881,2000.1
553.016,1969.8
553.152,1946.2
553.287,1926.9
553.422,1925.5
553.557,1918.3
553.692,1948.6
553.827,1935.5
553.963,1949.3
554.098,1945.4
554.233,1962.7
554.368,1946.3
554.503,1959.0
554.638,1955.3
554.773,1973.6
554.908,1969.4
555.043,1962.1
555.179,1972.6
555.314,1983.8
555.449,2000.9
555.584,2024.4
555.719,2047.6
555.854,2028.4
555.989,2030.5
556.124,2029.4
556.259,2037.3
556.394,2048.6
556.529,2047.8
556.664,2054.9
556.799,2055.3
556.934,2074.7
557.069,2081.2
557.204,2102.4
557.339,2180.2
557.474,2252.2
557.609,2340.4
557.744,2330.8
557.879,2205.4
558.014,2121.2
558.149,2095.0
558.284,2086.6
558.419,2100.5
558.553,2082.5
558.688,2088.0
558.823,2075.9
558.958,2072.8
559.093,2065.7
559.228,2052.5
559.363,2056.0
559.498,2058.5
559.632,2074.3
559.767,2073.6
559.902,2079.6
560.037,2078.3
560.172,2078.3
560.307,2085.7
560.441,2087.2
560.576,2091.4
560.711,2093.2
560.846,2096.1
560.981,2112.2
561.115,2106.1
561.25,2112.4
561.385,2118.5
561.52,2117.5
561.654,2119.0
561.789,2149.3
561.924,2130.9
562.059,2155.6
562.193,2169.5
562.328,2160.3
562.463,2162.4
562.598,2153.8
562.732,2154.5
562.867,2163.1
563.002,2166.2
563.136,2165.3
563.271,2175.7
563.406,2180.5
563.54,2195.4
563.675,2203.3
563.81,2188.5
563.944,2192.0
564.079,2188.3
564.213,2216.6
564.348,2204.3
564.483,2235.4
564.617,2260.4
564.752,2278.6
564.887,2310.2
565.021,2362.5
565.156,2384.2
565.29,2370.9
565.425,2355.7
565.559,2348.4
565.694,2377.0
565.828,2374.4
565.963,2393.6
566.098,2362.4
566.232,2332.1
566.367,2305.7
566.501,2270.4
566.636,2276.9
566.77,2272.5
566.905,2253.8
567.039,2245.6
567.174,2244.4
567.308,2272.3
567.443,2292.9
567.577,2313.4
567.711,2350.2
567.846,2362.6
567.98,2323.2
568.115,2313.1
568.249,2301.3
568.384,2304.3
568.518,2302.1
568.652,2283.0
568.787,2301.4
568.921,2300.6
569.056,2314.2
569.19,2312.8
569.324,2336.3
569.459,2335.3
569.593,2348.5
569.727,2358.0
569.862,2374.7
569.996,2372.3
570.131,2387.1
570.265,2385.7
570.399,2420.9
570.534,2436.3
570.668,2471.1
570.802,2520.8
570.936,2581.8
571.071,2649.9
571.205,2712.6
571.339,2773.9
571.474,2795.1
571.608,2707.7
571.742,2612.3
571.876,2556.3
572.011,2547.5
572.145,2509.6
572.279,2474.0
572.413,2453.5
572.548,2437.7
572.682,2436.6
572.816,2420.5
572.95,2431.4
573.084,2438.5
573.219,2429.0
573.353,2430.1
573.487,2433.0
573.621,2424.4
573.755,2462.1
573.889,2461.9
574.024,2467.2
574.158,2469.9
574.292,2476.8
574.426,2478.8
574.56,2466.9
574.694,2473.8
574.828,2461.3
574.963,2482.1
575.097,2489.4
575.231,2520.2
575.365,2545.1
575.499,2553.3
575.633,2539.6
575.767,2518.3
575.901,2508.1
576.035,2492.3
576.169,2505.6
576.303,2517.1
576.437,2521.0
576.571,2547.0
576.706,2552.5
576.84,2564.1
576.974,2554.3
577.108,2553.0
577.242,2545.9
577.376,2558.9
577.51,2538.6
577.644,2536.6
577.778,2520.9
577.912,2530.3
578.046,2545.8
578.179,2532.4
578.313,2529.4
578.447,2549.3
578.581,2542.3
578.715,2571.5
578.849,2564.6
578.983,2550.3
579.117,2550.5
579.251,2566.4
579.385,2565.9
579.519,2560.1
579.653,2566.4
579.787,2575.1
579.921,2581.5
580.054,2579.9
580.188,2571.8
580.322,2588.5
580.456,2577.2
580.59,2579.9
580.724,2603.9
580.858,2613.2
580.991,2620.9
581.125,2613.1
581.259,2612.0
581.393,2637.6
581.527,2690.8
581.661,2752.1
581.794,2905.2
581.928,3240.1
582.062,3846.7
582.196,4387.5
582.33,3945.1
582.463,3183.5
582.597,2832.5
582.731,2725.1
582.865,2694.4
582.998,2667.2
583.132,2678.4
583.266,2653.7
583.4,2673.6
583.533,2655.4
583.667,2677.5
583.801,2674.7
583.935,2688.5
584.068,2675.4
584.202,2671.5
584.336,2692.6
584.469,2699.4
584.603,2701.4
584.737,2705.5
584.87,2704.8
585.004,2711.2
585.138,2739.2
585.271,2761.1
585.405,2823.7
585.539,2948.2
585.672,3117.7
585.806,3347.2
585.94,3499.0
586.073,3575.9
586.207,3500.8
586.34,3353.4
586.474,3227.1
586.608,3038.2
586.741,2929.4
586.875,2837.0
587.008,2806.9
587.142,2797.6
587.276,2777.8
587.409,2760.5
587.543,2780.8
587.676,2734.9
587.81,2753.2
587.943,2738.1
588.077,2751.9
588.21,2734.6
588.344,2742.4
588.478,2719.2
588.611,2744.6
588.745,2756.3
588.878,2741.7
589.012,2749.7
589.145,2743.0
589.279,2740.0
589.412,2751.3
589.546,2755.2
589.679,2734.8
589.812,2732.0
589.946,2743.9
590.079,2741.1
590.213,2750.9
590.346,2757.5
590.48,2759.3
590.613,2759.3
590.747,2756.5
590.88,2767.3
591.013,2776.3
591.147,2764.9
591.28,2785.2
591.414,2779.5
591.547,2790.6
591.68,2781.7
591.814,2783.7
591.947,2779.7
592.081,2788.0
592.214,2771.3
592.347,2777.5
592.481,2778.8
592.614,2790.7
592.747,2777.5
592.881,2780.2
593.014,2778.2
593.147,2777.0
593.281,2777.7
593.414,2779.6
593.547,2788.8
593.681,2801.6
593.814,2795.4
593.947,2777.0
594.081,2780.8
594.214,2799.4
594.347,2793.8
594.48,2792.7
594.614,2809.1
594.747,2809.5
594.88,2800.2
595.014,2811.6
595.147,2823.3
595.28,2819.5
595.413,2829.6
595.547,2833.4
595.68,2825.3
595.813,2835.7
595.946,2825.9
596.079,2836.5
596.213,2850.8
596.346,2832.9
596.479,2854.6
596.612,2856.0
596.745,2846.2
596.879,2863.1
597.012,2859.9
597.145,2874.8
597.278,2849.4
597.411,2866.5
597.545,2874.8
597.678,2869.5
597.811,2857.3
597.944,2885.0
598.077,2900.6
598.21,2892.3
598.343,2900.4
598.476,2896.0
598.61,2917.5
598.743,2911.5
598.876,2908.0
599.009,2923.1
599.142,2911.0
599.275,2915.0
599.408,2920.9
599.541,2915.1
599.674,2920.4
599.807,2916.1
599.941,2908.6
600.074,2914.7
600.207,2911.5
600.34,2926.9
600.473,2909.5
600.606,2896.8
600.739,2933.3
600.872,2914.1
601.005,2905.6
601.138,2920.3
601.271,2929.2
601.404,2903.1
601.537,2925.1
601.67,2899.9
601.803,2917.3
601.936,2934.0
602.069,2930.8
602.202,2926.2
602.335,2906.4
602.468,2954.1
602.601,2951.8
602.734,2959.9
602.867,2943.0
603.0,2949.9
603.133,2984.0
603.266,2963.2
603.399,2963.4
603.532,2974.7
603.664,2964.3
603.797,2988.4
603.93,2987.6
604.063,2992.7
604.196,2970.1
604.329,2961.5
604.462,2984.8
604.595,2981.2
604.728,2967.2
604.861,2976.3
604.994,2978.3
605.126,2958.1
605.259,2964.1
605.392,2948.2
605.525,2946.4
605.658,2951.2
605.791,2952.0
605.924,2958.6
606.056,2976.0
606.189,2941.6
606.322,2967.3
606.455,2961.5
606.588,2962.5
606.721,2970.9
606.853,2974.4
606.986,2970.8
607.119,2978.6
607.252,2977.7
607.385,2990.7
607.517,2982.0
607.65,3008.9
607.783,3035.6
607.916,3026.8
608.049,3032.6
608.181,3015.3
608.314,3059.8
608.447,3066.5
608.58,3064.9
608.712,3068.5
608.845,3057.7
608.978,3061.6
609.111,3099.4
609.243,3071.9
609.376,3071.4
609.509,3077.5
609.641,3070.6
609.774,3095.0
609.907,3097.1
610.04,3095.5
610.172,3092.6
610.305,3081.4
610.438,3108.9
610.57,3087.3
610.703,3102.7
610.836,3120.0
610.968,3108.2
611.101,3109.9
611.234,3126.8
611.366,3143.4
611.499,3122.2
611.632,3147.9
611.764,3149.5
611.897,3163.7
612.03,3170.5
612.162,3188.3
612.295,3193.4
612.428,3204.1
612.56,3218.9
612.693,3223.8
612.825,3244.9
612.958,3258.4
613.091,3259.0
613.223,3265.2
613.356,3283.5
613.488,3295.0
613.621,3283.1
613.754,3306.9
613.886,3297.7
614.019,3310.0
614.151,3328.1
614.284,3324.9
614.416,3339.2
614.549,3334.7
614.681,3367.5
614.814,3357.9
614.947,3358.6
615.079,3347.0
615.212,3349.9
615.344,3358.2
615.477,3370.8
615.609,3361.9
615.742,3379.2
615.874,3369.9
616.007,3384.5
616.139,3383.7
616.272,3398.4
616.404,3396.5
616.537,3414.0
616.669,3423.2
616.802,3431.5
616.934,3447.1
617.067,3470.9
617.199,3461.9
617.332,3479.7
617.464,3470.7
617.596,3483.9
617.729,3507.4
617.861,3515.5
617.994,3517.1
618.126,3526.1
618.259,3547.2
618.391,3543.3
618.524,3555.0
618.656,3556.8
618.788,3552.6
618.921,3577.2
619.053,3560.1
619.186,3580.1
619.318,3569.0
619.45,3573.1
619.583,3568.8
619.715,3598.3
619.848,3598.7
619.98,3583.2
620.112,3597.2
620.245,3609.4
620.377,3612.3
620.509,3617.9
620.642,3637.2
620.774,3602.0
620.907,3627.7
621.039,3643.1
621.171,3646.2
621.304,3655.4
621.436,3661.8
621.568,3668.2
621.701,3682.6
621.833,3704.4
621.965,3705.2
622.097,3719.7
622.23,3719.6
622.362,3728.5
622.494,3754.9
622.627,3754.0
622.759,3774.7
622.891,3770.1
623.024,3774.2
623.156,3799.0
623.288,3796.6
623.42,3825.5
623.553,3825.3
623.685,3843.7
623.817,3850.8
623.949,3870.9
624.082,3869.1
624.214,3868.4
624.346,3886.0
624.479,3904.3
624.611,3909.4
624.743,3918.6
624.875,3920.4
625.007,3922.4
625.14,3942.0
625.272,3926.7
625.404,3935.8
625.536,3932.7
625.669,3958.7
625.801,3962.6
625.933,3990.0
626.065,3978.4
626.197,3985.1
626.33,3975.7
626.462,4016.4
626.594,3989.0
626.726,3997.0
626.858,4004.7
626.99,4038.0
627.123,4016.5
627.255,4036.5
627.387,4058.6
627.519,4037.6
627.651,4065.6
627.783,4065.5
627.916,4071.5
628.048,4086.5
628.18,4089.3
628.312,4128.5
628.444,4134.1
628.576,4131.4
628.708,4158.2
628.84,4179.9
628.973,4172.3
629.105,4189.9
629.237,4197.7
629.369,4221.0
629.501,4233.8
629.633,4241.4
629.765,4259.3
629.897,4259.2
630.029,4259.9
630.161,4238.8
630.294,4269.1
630.426,4277.8
630.558,4305.6
630.69,4306.0
630.822,4322.3
630.954,4339.1
631.086,4357.8
631.218,4401.6
631.35,4432.5
631.482,4479.5
631.614,4528.4
631.746,4520.8
631.878,4549.9
632.01,4527.2
632.142,4563.6
632.274,4543.8
632.406,4500.2
632.538,4485.5
632.67,4479.7
632.802,4476.3
632.934,4469.1
633.066,4480.0
633.198,4476.3
633.33,4521.0
633.462,4499.5
633.594,4483.5
633.726,4510.4
633.858,4465.6
633.99,4482.7
634.122,4479.8
634.254,4477.5
634.386,4474.0
634.518,4487.6
634.65,4490.1
634.782,4502.1
634.914,4491.1
635.046,4500.2
635.178,4519.2
635.31,4556.3
635.442,4551.6
635.574,4563.4
635.706,4611.5
635.838,4655.2
635.97,4703.4
636.102,4731.1
636.234,4796.0
636.365,4845.4
636.497,4929.4
636.629,4977.6
636.761,4925.4
636.893,4866.2
637.025,4789.0
637.157,4752.9
637.289,4742.0
637.421,4684.0
637.553,4682.6
637.685,4707.4
637.816,4687.9
637.948,4703.5
638.08,4664.4
638.212,4698.7
638.344,4712.4
638.476,4722.6
638.608,4722.9
638.74,4699.0
638.871,4724.2
639.003,4729.7
639.135,4741.9
639.267,4744.7
639.399,4766.1
639.531,4747.5
639.662,4778.4
639.794,4742.6
639.926,4793.4
640.058,4818.2
640.19,4791.8
640.322,4792.1
640.453,4796.8
640.585,4801.8
640.717,4808.0
640.849,4806.2
640.981,4817.9
641.113,4839.7
641.244,4842.9
641.376,4854.0
641.508,4854.9
641.64,4873.0
641.772,4875.7
641.903,4855.5
642.035,4876.7
642.167,4867.3
642.299,4895.7
642.43,4890.0
642.562,4893.8
642.694,4891.1
642.826,4893.9
642.958,4869.9
643.089,4889.9
643.221,4890.9
643.353,4874.4
643.485,4870.8
643.616,4845.5
643.748,4866.8
643.88,4853.7
644.012,4851.9
644.143,4858.2
644.275,4851.8
644.407,4871.6
644.538,4890.2
644.67,4876.2
644.802,4899.4
644.934,4867.1
645.065,4883.8
645.197,4880.6
645.329,4882.2
645.461,4902.4
645.592,4894.0
645.724,4916.6
645.856,4934.4
645.987,4901.1
646.119,4929.5
646.251,4917.8
646.382,4909.2
646.514,4937.9
646.646,4967.5
646.777,4982.9
646.909,4961.4
647.041,4982.6
647.172,4966.1
647.304,4981.4
647.436,5012.5
647.567,5019.3
647.699,5007.7
647.831,5015.7
647.962,5004.2
648.094,4988.2
648.226,5011.7
648.357,5002.6
648.489,4994.5
648.621,4994.0
648.752,4973.3
648.884,5021.0
649.016,5015.0
649.147,5022.9
649.279,4999.4
649.411,4990.4
649.542,4985.1
649.674,5001.0
649.805,5019.7
649.937,5041.5
650.069,5013.2
650.2,5007.9
650.332,5024.1
650.463,5014.7
650.595,5006.5
650.727,5008.9
650.858,5018.2
650.99,5021.0
651.121,5020.4
651.253,5025.7
651.385,5045.9
651.516,5026.6
651.648,5042.1
651.779,5062.6
651.911,5043.9
652.043,5058.5
652.174,5059.4
652.306,5064.9
652.437,5055.6
652.569,5056.2
652.7,5092.3
652.832,5055.6
652.963,5086.9
653.095,5069.4
653.227,5102.3
653.358,5086.4
653.49,5093.3
653.621,5091.5
653.753,5102.4
653.884,5125.1
654.016,5117.0
654.147,5140.2
654.279,5119.8
654.41,5133.8
654.542,5105.0
654.674,5097.3
654.805,5078.8
654.937,5129.8
655.068,5121.1
655.2,5107.0
655.331,5104.8
655.463,5117.6
655.594,5125.1
655.726,5116.2
655.857,5123.0
655.989,5115.8
656.12,5127.6
656.252,5123.3
656.383,5146.0
656.515,5131.0
656.646,5124.5
656.778,5154.2
656.909,5153.5
657.041,5170.2
657.172,5177.4
657.304,5167.2
657.435,5160.9
657.567,5163.0
657.698,5170.8
657.829,5150.9
657.961,5161.6
658.092,5162.7
658.224,5184.1
658.355,5191.5
658.487,5197.7
658.618,5191.0
658.75,5173.0
658.881,5170.6
659.013,5203.0
659.144,5212.2
659.275,5209.2
659.407,5210.3
659.538,5200.3
659.67,5190.7
659.801,5227.5
659.933,5219.6
660.064,5205.1
660.196,5186.8
660.327,5151.3
660.458,5184.6
660.59,5198.4
660.721,5203.7
660.853,5149.5
660.984,5160.3
661.116,5145.7
661.247,5171.9
661.378,5193.2
661.51,5125.2
661.641,5134.7
661.773,5143.0
661.904,5168.3
662.035,5139.4
662.167,5140.6
662.298,5132.9
662.43,5135.2
662.561,5140.3
662.692,5153.3
662.824,5153.8
662.955,5121.0
663.087,5144.1