File: spectra/VLFR_02-HDPE_bio_Raman_d6f1a49e.csv
nm,Intensity
528.65,1856.0
528.819,1855.5
528.987,1855.95
529.155,1856.6
529.324,1856.4
529.492,1856.2
529.66,1856.1
529.829,1856.15
529.997,1855.45
530.165,1857.0
530.334,1857.15
530.502,1857.3
530.67,1856.5
530.839,1855.55
531.007,1857.85
531.175,1858.3
531.344,1859.6
531.512,1862.9
531.68,1883.2
531.848,2261.15
532.017,3514.9
532.185,2928.45
532.353,1966.55
532.521,1858.15
532.69,1858.0
532.858,1857.25
533.026,1857.25
533.194,1856.15
533.363,1857.75
533.531,1867.7
533.699,1925.6
533.867,2035.6
534.036,2099.1
534.204,2114.85
534.372,2106.25
534.54,2108.75
534.708,2110.4
534.877,2114.45
535.045,2125.1
535.213,2102.3
535.381,2088.9
535.549,2077.45
535.717,2077.2
535.886,2068.5
536.054,2059.1
536.222,2050.9
536.39,2026.3
536.558,2038.75
536.726,2035.8
536.894,2033.65
537.062,2040.9
537.231,2060.55
537.399,2053.95
537.567,2045.35
537.735,2041.35
537.903,2043.2
538.071,2038.2
538.239,2036.9
538.407,2032.1
538.575,2019.25
538.743,2023.1
538.911,2019.85
539.079,2015.05
539.247,2019.1
539.415,2009.2
539.583,2013.4
539.751,2003.9
539.919,2003.75
540.087,2010.0
540.255,2007.75
540.423,2004.75
540.591,2007.45
540.759,2008.1
540.927,2012.15
541.095,2016.85
541.263,2015.7
541.431,2004.3
541.599,2003.9
541.767,2016.85
541.935,2009.9
542.103,2014.1
542.271,2006.8
542.439,2011.0
542.607,2010.65
542.775,2018.05
542.943,2011.35
543.111,2010.65
543.279,2011.75
543.446,2016.4
543.614,2020.65
543.782,2030.05
543.95,2069.45
544.118,2101.1
544.286,2065.6
544.454,2036.0
544.622,2022.1
544.789,2021.85
544.957,2025.0
545.125,2022.0
545.293,2025.65
545.461,2018.8
545.629,2025.75
545.796,2037.05
545.964,2048.25
546.132,2076.4
546.3,2147.8
546.468,2200.95
546.635,2152.35
546.803,2079.95
546.971,2052.4
547.139,2040.6
547.306,2037.05
547.474,2029.25
547.642,2029.05
547.81,2026.55
547.977,2035.7
548.145,2028.45
548.313,2040.4
548.481,2034.05
548.648,2036.75
548.816,2040.5
548.984,2049.95
549.151,2039.65
549.319,2043.85
549.487,2037.7
549.655,2046.0
549.822,2052.7
549.99,2061.65
550.158,2071.05
550.325,2071.4
550.493,2055.2
550.66,2043.3
550.828,2047.45
550.996,2047.8
551.163,2044.35
551.331,2041.45
551.499,2052.4
551.666,2052.35
551.834,2053.6
552.001,2053.1
552.169,2049.95
552.337,2047.0
552.504,2050.65
552.672,2042.85
552.839,2050.1
553.007,2052.85
553.174,2048.6
553.342,2055.4
553.509,2056.65
553.677,2057.2
553.844,2061.95
554.012,2057.1
554.179,2062.65
554.347,2057.45
554.514,2069.3
554.682,2069.15
554.849,2068.8
555.017,2063.0
555.184,2070.2
555.352,2066.35
555.519,2068.3
555.687,2071.85
555.854,2068.95
556.022,2079.35
556.189,2075.6
556.357,2074.45
556.524,2075.0
556.691,2082.15
556.859,2075.05
557.026,2086.8
557.194,2090.3
557.361,2081.3
557.528,2092.85
557.696,2101.0
557.863,2089.95
558.031,2096.5
558.198,2108.75
558.365,2106.55
558.533,2098.75
558.7,2099.2
558.867,2089.35
559.035,2105.7
559.202,2100.6
559.369,2103.75
559.537,2097.65
559.704,2099.0
559.871,2101.0
560.038,2089.1
560.206,2086.2
560.373,2087.2
560.54,2100.65
560.708,2107.0
560.875,2101.95
561.042,2111.5
561.209,2102.25
561.377,2123.7
561.544,2121.75
561.711,2152.0
561.878,2197.55
562.045,2461.9
562.213,2999.1
562.38,3068.05
562.547,2430.4
562.714,2183.7
562.881,2149.4
563.049,2138.65
563.216,2132.7
563.383,2145.45
563.55,2168.35
563.717,2246.6
563.884,2474.0
564.052,2588.3
564.219,2398.45
564.386,2231.6
564.553,2222.1
564.72,2215.25
564.887,2198.3
565.054,2192.5
565.221,2171.0
565.388,2167.45
565.556,2186.15
565.723,2234.7
565.89,2393.7
566.057,2689.25
566.224,2743.55
566.391,2447.05
566.558,2302.6
566.725,2223.1
566.892,2170.75
567.059,2172.9
567.226,2188.75
567.393,2192.25
567.56,2183.95
567.727,2159.35
567.894,2144.85
568.061,2133.9
568.228,2140.55
568.395,2143.35
568.562,2134.65
568.729,2143.7
568.896,2145.65
569.063,2137.0
569.23,2147.3
569.396,2144.75
569.563,2148.05
569.73,2167.95
569.897,2157.8
570.064,2156.5
570.231,2166.2
570.398,2174.1
570.565,2183.4
570.732,2194.65
570.898,2196.7
571.065,2234.45
571.232,2369.75
571.399,2721.1
571.566,2991.6
571.733,2596.9
571.9,2341.65
572.066,2269.95
572.233,2235.9
572.4,2217.0
572.567,2188.6
572.734,2196.85
572.9,2178.7
573.067,2192.2
573.234,2184.7
573.401,2202.1
573.567,2206.45
573.734,2201.75
573.901,2226.95
574.068,2220.95
574.234,2206.75
574.401,2196.9
574.568,2200.6
574.734,2213.85
574.901,2206.7
575.068,2217.25
575.235,2300.05
575.401,2491.25
575.568,2613.1
575.735,2505.9
575.901,2478.5
576.068,2593.1
576.235,2751.05
576.401,2741.5
576.568,2628.1
576.734,2591.1
576.901,2581.35
577.068,2570.55
577.234,2510.6
577.401,2413.8
577.567,2370.55
577.734,2319.7
577.901,2303.0
578.067,2310.3
578.234,2306.7
578.4,2307.1
578.567,2316.8
578.733,2314.15
578.9,2341.2
579.066,2332.25
579.233,2334.9
579.399,2346.1
579.566,2341.1
579.732,2340.25
579.899,2354.35
580.065,2368.8
580.232,2377.8
580.398,2362.95
580.565,2375.8
580.731,2395.15
580.898,2388.5
581.064,2379.15
581.231,2384.9
581.397,2406.5
581.563,2408.45
581.73,2404.6
581.896,2407.2
582.063,2407.0
582.229,2420.9
582.395,2426.4
582.562,2436.7
582.728,2424.25
582.895,2453.25
583.061,2428.35
583.227,2460.6
583.394,2465.65
583.56,2451.85
583.726,2460.85
583.893,2472.7
584.059,2458.55
584.225,2481.4
584.391,2493.3
584.558,2485.25
584.724,2475.85
584.89,2497.15
585.057,2507.9
585.223,2481.7
585.389,2512.05
585.555,2525.15
585.722,2497.65
585.888,2517.5
586.054,2535.55
586.22,2553.75
586.386,2543.85
586.553,2537.4
586.719,2566.7
586.885,2553.5
587.051,2580.15
587.217,2582.0
587.384,2596.65
587.55,2609.9
587.716,2599.5
587.882,2624.9
588.048,2632.3
588.214,2631.2
588.38,2656.7
588.546,2645.1
588.713,2661.35
588.879,2673.4
589.045,2662.35
589.211,2683.8
589.377,2683.0
589.543,2696.95
589.709,2687.3
589.875,2713.2
590.041,2727.25
590.207,2760.65
590.373,2778.0
590.539,2761.35
590.705,2747.55
590.871,2823.7
591.037,2796.7
591.203,2779.9
591.369,2827.6
591.535,2820.3
591.701,2837.2
591.867,2859.1
592.033,2860.6
592.199,2863.3
592.365,2883.2
592.531,2916.55
592.697,2885.3
592.863,2913.75
593.029,2915.3
593.195,2901.3
593.361,2953.9
593.526,2939.3
593.692,2935.2
593.858,2950.65
594.024,2969.45
594.19,2960.25
594.356,2992.75
594.522,3029.35
594.687,3016.1
594.853,3002.75
595.019,3055.65
595.185,3031.7
595.351,3093.3
595.516,3075.2
595.682,3088.55
595.848,3103.9
596.014,3098.7
596.18,3112.15
596.345,3155.85
596.511,3140.55
596.677,3160.75
596.843,3170.65
597.008,3191.15
597.174,3198.8
597.34,3249.25
597.505,3244.2
597.671,3200.1
597.837,3247.7
598.002,3291.85
598.168,3270.75
598.334,3305.2
598.499,3280.15
598.665,3301.05
598.831,3364.8
598.996,3342.05
599.162,3341.5
599.328,3360.35
599.493,3391.35
599.659,3406.35
599.824,3414.95
599.99,3389.25
600.156,3430.4
600.321,3430.7
600.487,3440.6
600.652,3475.7
600.818,3461.95
600.983,3435.9
601.149,3472.4
601.314,3446.8
601.48,3440.75
601.645,3476.0
601.811,3453.95
601.976,3507.35
602.142,3479.8
602.307,3452.65
602.473,3472.6
602.638,3455.2
602.804,3425.9
602.969,3478.6
603.135,3472.65
603.3,3452.75
603.466,3447.9
603.631,3454.75
603.796,3439.05
603.962,3421.05
604.127,3373.15
604.293,3386.1
604.458,3386.75
604.623,3402.25
604.789,3341.2
604.954,3345.05
605.119,3336.45
605.285,3329.65
605.45,3345.5
605.615,3305.95
605.781,3300.4
605.946,3268.1
606.111,3275.55
606.277,3311.45
606.442,3277.2
606.607,3273.6
606.772,3277.35
606.938,3234.55
607.103,3246.6
607.268,3229.3
607.433,3230.85
607.599,3247.25
607.764,3219.85
607.929,3194.85
608.094,3181.75
608.259,3202.4
608.425,3172.95
608.59,3167.6
608.755,3189.0
608.92,3160.55
609.085,3149.0
609.25,3168.95
609.415,3161.05
609.581,3149.95
609.746,3156.4
609.911,3138.1
610.076,3117.25
610.241,3157.5
610.406,3150.7
610.571,3123.95
610.736,3116.05
610.901,3165.2
611.066,3141.2
611.231,3129.65
611.396,3112.3
611.561,3093.2
611.727,3127.1
611.892,3089.3
612.057,3085.0
612.222,3092.65
612.386,3080.45
612.551,3045.0
612.716,3076.75
612.881,3096.65
613.046,3073.25
613.211,3059.2
613.376,3069.75
613.541,3046.7
613.706,3021.3
613.871,3050.3
614.036,3048.05
614.201,3058.0
614.366,3017.5
614.531,3042.05
614.695,3043.0
614.86,3008.75
615.025,3026.2
615.19,2992.0
615.355,3000.8
615.52,2992.75
615.684,3031.5
615.849,3020.35
616.014,3003.8
616.179,2983.45
616.344,3011.3
616.508,2939.4
616.673,2973.2
616.838,3008.35
617.003,2946.45
617.168,2991.3
617.332,2974.7
617.497,2946.3
617.662,2944.5
617.826,2976.65
617.991,2970.9
618.156,2941.6
618.32,2968.25
618.485,2937.75
618.65,2958.15
618.814,2915.3
618.979,2946.65
619.144,2948.35
619.308,2918.8
619.473,2914.1
619.638,2949.35
619.802,2915.4
619.967,2950.2
620.131,2911.45
620.296,2913.55
620.461,2939.9
620.625,2914.75
620.79,2930.0
620.954,2905.9
621.119,2910.25
621.283,2950.55
621.448,2961.7
621.612,2950.6
621.777,3013.15
621.941,3007.85
622.106,3053.15
622.27,3048.85
622.435,3059.6
622.599,2998.1
622.764,2938.3
622.928,2899.65
623.093,2884.75
623.257,2868.05
623.422,2830.9
623.586,2825.85
623.75,2847.5
623.915,2828.5
624.079,2811.8
624.244,2802.25
624.408,2813.2
624.572,2835.25
624.737,2798.1
624.901,2808.1
625.065,2797.9
625.23,2800.6
625.394,2811.55
625.558,2819.55
625.723,2817.45
625.887,2809.15
626.051,2903.45
626.215,2971.55
626.38,3054.4
626.544,3351.55
626.708,3882.85
626.872,4791.75
627.037,5781.1
627.201,6316.5
627.365,6038.5
627.529,5462.2
627.693,5073.5
627.858,4814.6
628.022,4691.85
628.186,5082.35
628.35,5702.5
628.514,6530.25
628.678,6080.0
628.843,5122.75
629.007,4811.05
629.171,4643.75
629.335,4485.35
629.499,4241.1
629.663,4038.05
629.827,4004.65
629.991,3886.45
630.155,3825.3
630.319,3831.6
630.483,3690.5
630.647,3608.3
630.812,3356.8
630.976,3171.5
631.14,2980.85
631.304,2876.6
631.468,2840.15
631.632,2741.3
631.796,2747.9
631.959,2715.45
632.123,2707.2
632.287,2674.45
632.451,2701.55
632.615,2677.45
632.779,2668.75
632.943,2651.7
633.107,2661.95
633.271,2636.75
633.435,2633.55
633.599,2636.5
633.763,2625.95
633.926,2613.1
634.09,2623.95
634.254,2603.1
634.418,2578.55
634.582,2605.1
634.746,2584.95
634.909,2603.9
635.073,2579.8
635.237,2594.5
635.401,2588.45
635.564,2552.55
635.728,2577.7
635.892,2595.0
636.056,2557.5
636.219,2567.95
636.383,2565.6
636.547,2559.7
636.711,2576.8
636.874,2539.5
637.038,2564.7
637.202,2549.6
637.365,2551.0
637.529,2525.9
637.693,2550.45
637.856,2538.5
638.02,2533.4
638.184,2552.6
638.347,2538.4
638.511,2542.5
638.674,2545.5
638.838,2541.1
639.002,2545.9
639.165,2541.25
639.329,2541.0
639.492,2525.15
639.656,2529.95
639.819,2551.0
639.983,2513.7
640.146,2535.2
640.31,2560.6
640.473,2527.2
640.637,2518.6
640.8,2523.85
640.964,2535.1
641.127,2531.4
641.291,2540.65
641.454,2553.5
641.618,2533.5
641.781,2528.7
641.944,2522.8
642.108,2514.05
642.271,2554.45
642.435,2533.6
642.598,2552.15
642.761,2548.95
642.925,2552.75
643.088,2529.1
643.251,2525.05
643.415,2544.5
643.578,2526.8
643.741,2566.6
643.905,2550.95
644.068,2531.5
644.231,2570.1
644.394,2554.9
644.558,2539.2
644.721,2582.2
644.884,2552.75
645.047,2542.5
645.211,2534.95
645.374,2545.15
645.537,2559.4
645.7,2540.2
645.863,2574.6
646.027,2555.5
646.19,2531.6
646.353,2547.9
646.516,2541.1
646.679,2555.95
646.842,2540.15
647.005,2543.8
647.169,2558.0
647.332,2553.6
647.495,2567.65
647.658,2535.95
647.821,2555.35
647.984,2530.5
648.147,2539.5
648.31,2544.5
648.473,2538.5
648.636,2528.35
648.799,2550.0
648.962,2560.5
649.125,2548.85
649.288,2577.0
649.451,2543.15
649.614,2579.3
649.777,2585.45
649.94,2610.65
650.103,2599.15
650.266,2598.5
650.429,2555.05
650.592,2557.65
650.755,2543.0
650.918,2569.05
651.08,2555.25
651.243,2547.25
651.406,2534.45
651.569,2534.45
651.732,2508.75
651.895,2514.15
652.058,2533.45
652.22,2533.85
652.383,2537.35
652.546,2532.35
652.709,2516.95
652.872,2507.8
653.034,2532.65
653.197,2510.7
653.36,2514.35
653.523,2521.85
653.685,2484.4
653.848,2505.85
654.011,2486.65
654.173,2496.4
654.336,2484.8
654.499,2483.25
654.662,2480.75
654.824,2468.85
654.987,2461.15
655.149,2479.45
655.312,2472.05
655.475,2474.1
655.637,2477.95
655.8,2466.2
655.963,2457.2
656.125,2463.0
656.288,2428.0
656.45,2464.7
656.613,2446.7
656.775,2448.7
656.938,2455.7
657.1,2442.35
657.263,2447.8
657.425,2451.1
657.588,2441.8
657.75,2397.2
657.913,2420.3
658.075,2424.35
658.238,2420.8
658.4,2380.0
658.563,2391.35
658.725,2400.25
658.888,2399.2
659.05,2377.95
659.212,2365.6
659.375,2370.0
659.537,2397.45
659.7,2352.0
659.862,2387.55
660.024,2355.9
660.187,2338.25
660.349,2353.1
660.511,2358.4
660.674,2356.7
660.836,2354.55
660.998,2320.2
661.079,2311.7