File: spectra/VLFR_06-PET_nobio_Raman_7d1570de.csv
cm-1,Intensity
-123.878,1851.5
-117.855,1852.2
-111.836,1850.85
-105.821,1851.75
-99.8104,1851.7
-93.8036,1852.45
-87.8007,1851.3
-81.8019,1851.5
-75.807,1850.85
-69.8161,1850.8
-63.8293,1851.9
-57.8464,1852.9
-51.8675,1853.05
-45.8926,1853.4
-39.9216,1853.5
-33.9547,1853.85
-27.9917,1855.15
-22.0326,1856.2
-16.0776,1874.15
-10.1265,2168.65
-4.17932,3329.3
1.76388,3040.75
7.70313,1934.3
13.6384,1854.55
19.5698,1853.9
25.4972,1854.15
31.4207,1853.9
37.3403,1855.9
43.256,1858.7
49.1677,1904.35
55.0755,2156.55
60.9794,2602.3
66.8794,2831.8
72.7754,2838.85
78.6676,2808.75
84.5559,2758.15
90.4402,2710.7
96.3207,2671.55
102.197,2611.4
108.07,2593.7
113.939,2579.75
119.804,2504.5
125.665,2472.8
131.522,2445.85
137.375,2411.6
143.225,2417.0
149.07,2398.15
154.912,2387.4
160.75,2391.15
166.584,2389.55
172.414,2412.0
178.241,2406.85
184.063,2424.5
189.882,2410.55
195.697,2433.8
201.508,2418.8
207.315,2412.65
213.119,2429.35
218.918,2428.2
224.714,2445.15
230.506,2448.85
236.294,2441.4
242.078,2470.45
247.859,2471.45
253.636,2460.4
259.409,2478.8
265.178,2488.35
270.943,2507.6
276.705,2483.85
282.463,2486.05
288.217,2489.1
293.967,2504.95
299.713,2489.75
305.456,2507.55
311.195,2462.25
316.93,2487.15
322.662,2484.5
328.389,2495.85
334.113,2497.55
339.834,2483.4
345.55,2499.7
351.263,2489.8
356.972,2516.0
362.677,2538.05
368.379,2531.05
374.077,2523.15
379.771,2506.05
385.461,2528.0
391.148,2545.45
396.831,2545.15
402.51,2560.6
408.186,2567.4
413.858,2546.45
419.526,2520.65
425.19,2539.35
430.851,2547.4
436.508,2568.75
442.162,2575.35
447.811,2570.95
453.458,2544.15
459.1,2553.2
464.739,2556.8
470.374,2547.35
476.005,2580.75
481.633,2562.1
487.257,2582.4
492.878,2575.05
498.494,2586.15
504.107,2607.55
509.717,2575.7
515.323,2577.5
520.925,2599.15
526.524,2593.2
532.119,2580.15
537.71,2590.45
543.298,2597.85
548.882,2604.05
554.462,2613.65
560.039,2597.35
565.613,2608.8
571.182,2645.2
576.748,2608.4
582.311,2617.55
587.87,2634.8
593.425,2590.9
598.977,2609.55
604.525,2643.9
610.069,2633.6
615.61,2615.75
621.148,2630.3
626.682,2722.75
632.212,2779.1
637.739,2726.35
643.262,2657.25
648.781,2661.75
654.297,2636.4
659.81,2662.7
665.319,2645.65
670.824,2667.2
676.326,2657.3
681.824,2654.6
687.319,2662.45
692.81,2682.55
698.298,2682.9
703.782,2706.35
709.262,2684.1
714.739,2693.7
720.213,2660.65
725.683,2678.2
731.15,2677.75
736.613,2685.3
742.072,2688.0
747.528,2688.3
752.981,2677.95
758.43,2690.55
763.875,2681.2
769.317,2714.95
774.756,2718.05
780.191,2713.15
785.623,2712.6
791.051,2746.55
796.475,2804.1
801.897,2770.4
807.314,2777.3
812.729,2771.65
818.139,2775.9
823.547,2755.9
828.951,2781.85
834.351,2788.2
839.748,2826.9
845.142,2832.95
850.532,2898.75
855.918,2949.65
861.302,2898.45
866.681,2861.75
872.058,2847.9
877.431,2822.55
882.8,2824.15
888.166,2827.1
893.529,2809.45
898.888,2817.75
904.244,2792.75
909.596,2806.2
914.945,2781.45
920.291,2797.85
925.633,2785.8
930.972,2799.25
936.308,2805.15
941.64,2826.55
946.968,2799.9
952.294,2790.55
957.615,2841.15
962.934,2837.95
968.249,2822.85
973.561,2838.45
978.869,2810.2
984.174,2836.7
989.476,2904.8
994.774,2884.65
1000.07,2877.35
1005.36,2874.85
1010.65,2903.7
1015.93,2874.0
1021.22,2887.2
1026.49,2937.2
1031.77,2925.65
1037.04,2928.2
1042.31,2921.7
1047.57,2962.3
1052.83,2893.95
1058.09,2897.95
1063.35,2961.0
1068.6,2946.5
1073.85,2944.95
1079.09,2974.85
1084.33,2973.75
1089.57,3003.85
1094.81,3047.8
1100.04,3042.3
1105.27,3044.55
1110.49,3074.5
1115.71,3119.4
1120.93,3159.55
1126.15,3081.4
1131.36,3062.8
1136.57,3027.0
1141.77,3061.05
1146.98,3057.2
1152.18,3048.05
1157.37,3026.75
1162.56,3063.75
1167.75,3035.0
1172.94,3127.4
1178.12,3161.3
1183.3,3114.0
1188.48,3079.55
1193.65,3055.95
1198.82,3086.75
1203.99,3090.8
1209.15,3096.9
1214.31,3129.4
1219.46,3140.2
1224.62,3144.45
1229.77,3142.7
1234.92,3115.0
1240.06,3193.3
1245.2,3162.1
1250.34,3220.65
1255.47,3188.35
1260.6,3264.2
1265.73,3368.05
1270.85,3348.25
1275.97,3384.05
1281.09,3423.85
1286.21,3499.45
1291.32,3487.8
1296.43,3492.55
1301.53,3444.65
1306.63,3368.65
1311.73,3352.6
1316.83,3324.4
1321.92,3316.45
1327.01,3343.65
1332.1,3301.8
1337.18,3269.3
1342.26,3294.0
1347.34,3268.6
1352.41,3286.9
1357.48,3256.15
1362.55,3308.55
1367.61,3310.3
1372.67,3342.85
1377.73,3364.5
1382.78,3311.35
1387.84,3300.35
1392.88,3322.45
1397.93,3371.2
1402.97,3388.15
1408.01,3367.45
1413.05,3403.4
1418.08,3376.65
1423.11,3396.05
1428.14,3404.3
1433.16,3396.0
1438.18,3423.2
1443.2,3453.15
1448.21,3444.4
1453.22,3475.35
1458.23,3414.05
1463.23,3441.15
1468.23,3428.45
1473.23,3461.25
1478.23,3392.45
1483.22,3462.5
1488.21,3466.5
1493.2,3418.0
1498.18,3446.05
1503.16,3458.95
1508.14,3458.35
1513.11,3438.75
1518.08,3460.15
1523.05,3466.15
1528.01,3456.4
1532.97,3523.05
1537.93,3495.85
1542.89,3484.4
1547.84,3502.0
1552.79,3474.6
1557.73,3546.9
1562.68,3530.65
1567.62,3542.75
1572.56,3552.3
1577.49,3584.55
1582.42,3537.9
1587.35,3617.4
1592.27,3611.05
1597.19,3656.65
1602.11,3807.05
1607.03,4158.7
1611.94,4552.6
1616.85,4565.45
1621.76,4034.05
1626.66,3722.6
1631.56,3598.7
1636.46,3572.5
1641.36,3616.7
1646.25,3606.35
1651.14,3602.65
1656.02,3623.3
1660.9,3610.0
1665.78,3640.55
1670.66,3580.05
1675.54,3655.15
1680.41,3658.0
1685.27,3617.0
1690.14,3664.2
1695.0,3619.3
1699.86,3649.05
1704.71,3705.2
1709.57,3819.4
1714.42,3961.2
1719.26,4191.4
1724.11,4278.05
1728.95,4258.5
1733.79,4136.25
1738.62,4016.95
1743.46,3908.25
1748.28,3791.35
1753.11,3700.15
1757.93,3714.3
1762.75,3719.25
1767.57,3661.5
1772.39,3690.6
1777.2,3666.05
1782.01,3704.3
1786.81,3697.55
1791.62,3681.65
1796.41,3676.9
1801.21,3718.9
1806.01,3685.5
1810.8,3681.75
1815.59,3751.7
1820.37,3717.55
1825.15,3619.4
1829.93,3660.35
1834.71,3663.5
1839.48,3741.7
1844.25,3671.15
1849.02,3657.9
1853.79,3678.9
1858.55,3695.8
1863.31,3688.85
1868.06,3670.45
1872.82,3747.45
1877.57,3709.9
1882.31,3760.4
1887.06,3697.75
1891.8,3741.95
1896.54,3751.55
1901.28,3738.5
1906.01,3712.4
1910.74,3733.65
1915.47,3757.45
1920.19,3721.25
1924.91,3724.6
1929.63,3726.95
1934.35,3778.3
1939.06,3725.55
1943.77,3748.35
1948.48,3740.55
1953.19,3723.7
1957.89,3732.8
1962.59,3718.75
1967.28,3748.85
1971.98,3751.6
1976.67,3761.7
1981.35,3718.1
1986.04,3737.55
1990.72,3774.45
1995.4,3737.25
2000.08,3728.9
2004.75,3778.25
2009.42,3780.65
2014.09,3807.5
2018.75,3751.7
2023.42,3780.15
2028.08,3789.5
2032.73,3777.2
2037.39,3793.25
2042.04,3767.8
2046.69,3764.5
2051.33,3794.85
2055.97,3740.25
2060.61,3806.6
2065.25,3790.3
2069.88,3766.6
2074.52,3801.7
2079.15,3778.75
2083.77,3814.0
2088.39,3827.0
2093.01,3764.9
2097.63,3759.75
2102.25,3764.55
2106.86,3790.4
2111.47,3822.25
2116.08,3751.0
2120.68,3803.8
2125.28,3849.85
2129.88,3861.25
2134.47,3777.35
2139.07,3795.4
2143.66,3833.85
2148.24,3841.65
2152.83,3776.4
2157.41,3832.65
2161.99,3853.75
2166.57,3829.15
2171.14,3786.5
2175.71,3740.35
2180.28,3847.9
2184.84,3817.4
2189.41,3927.2
2193.97,3801.55
2198.52,3791.7
2203.08,3840.75
2207.63,3861.8
2212.18,3810.4
2216.73,3841.25
2221.27,3844.8
2225.81,3787.4
2230.35,3811.3
2234.89,3785.05
2239.42,3847.1
2243.95,3871.05
2248.48,3856.5
2253.0,3857.35
2257.52,3813.65
2262.04,3803.9
2266.56,3829.55
2271.07,3848.55
2275.58,3848.25
2280.09,3854.8
2284.6,3846.2
2289.1,3813.4
2293.6,3851.75
2298.1,3839.5
2302.6,3795.75
2307.09,3826.9
2311.58,3907.7
2316.07,3894.8
2320.55,3846.35
2325.03,3870.9
2329.51,3850.6
2333.99,3810.3
2338.46,3903.1
2342.93,3848.8
2347.4,3889.05
2351.87,3760.0
2356.33,3886.0
2360.79,3898.05
2365.25,3867.65
2369.71,3869.45
2374.16,3802.8
2378.61,3843.45
2383.06,3892.1
2387.5,3869.25
2391.94,3862.65
2396.38,3832.75
2400.82,3879.05
2405.26,3949.35
2409.69,3949.6
2414.12,3882.3
2418.54,3909.3
2422.97,3847.2
2427.39,3880.8
2431.81,3943.6
2436.22,3867.7
2440.64,3852.4
2445.05,3916.65
2449.46,3898.2
2453.86,3811.05
2458.27,3909.4
2462.67,3897.05
2467.06,3930.9
2471.46,3857.95
2475.85,3903.75
2480.24,3871.9
2484.63,3887.9
2489.02,3844.45
2493.4,3888.0
2497.78,3921.2
2502.16,3908.9
2506.53,3817.05
2510.9,3967.85
2515.27,3920.2
2519.64,3903.1
2524.0,3864.55
2528.37,3920.0
2532.73,3930.85
2537.08,3919.4
2541.44,3936.4
2545.79,3866.35
2550.14,3915.65
2554.48,3886.65
2558.83,3974.65
2563.17,3943.2
2567.51,3932.35
2571.85,3885.85
2576.18,3886.3
2580.51,3885.25
2584.84,3940.3
2589.17,3912.9
2593.49,3870.85
2597.81,3963.9
2602.13,3878.5
2606.45,3919.5
2610.76,3947.75
2615.07,4012.35
2619.38,3980.45
2623.69,4017.5
2627.99,3884.7
2632.29,3928.55
2636.59,3970.2
2640.89,3914.35
2645.18,4006.25
2649.47,3918.35
2653.76,3974.4
2658.05,4065.95
2662.33,3909.05
2666.61,3918.65
2670.89,4037.45
2675.17,3965.1
2679.44,3897.05
2683.71,3907.6
2687.98,3983.55
2692.25,3982.8
2696.51,3974.65
2700.77,4004.1
2705.03,4031.55
2709.29,3919.7
2713.54,3992.3
2717.79,3986.95
2722.04,3948.3
2726.29,4044.75
2730.53,3943.9
2734.77,4028.45
2739.01,4013.15
2743.25,3986.75
2747.48,3997.6
2751.71,3907.15
2755.94,4031.8
2760.17,4051.75
2764.39,4096.7
2768.61,3936.8
2772.83,3929.75
2777.05,4029.4
2781.27,4005.25
2785.48,4057.85
2789.69,4028.5
2793.89,4049.2
2798.1,4079.1
2802.3,4085.9
2806.5,4058.8
2810.7,4004.35
2814.89,4001.15
2819.09,4041.9
2823.28,4033.9
2827.46,4043.6
2831.65,4057.85
2835.83,4047.6
2840.01,4071.35
2844.19,3995.65
2848.37,4024.1
2852.54,4115.4
2856.71,4122.2
2860.88,4086.3
2865.05,4101.75
2869.21,4097.8
2873.37,4129.9
2877.53,4086.25
2881.69,4107.9
2885.84,4117.65
2889.99,4101.05
2894.14,4049.25
2898.29,4195.75
2902.43,4233.95
2906.58,4234.2
2910.72,4194.4
2914.85,4195.85
2918.99,4125.45
2923.12,4049.85
2927.25,4167.3
2931.38,4143.5
2935.5,4152.7
2939.63,4282.95
2943.75,4170.65
2947.87,4307.65
2951.98,4379.2
2956.1,4408.55
2960.21,4411.15
2964.32,4370.7
2968.42,4432.85
2972.53,4352.3
2976.63,4396.0
2980.73,4369.75
2984.83,4353.95
2988.92,4272.75
2993.01,4304.85
2997.1,4381.45
3001.19,4242.85
3005.28,4347.25
3009.36,4310.35
3013.44,4204.3
3017.52,4296.8
3021.6,4322.7
3025.67,4222.7
3029.74,4282.8
3033.81,4268.8
3037.88,4220.4
3041.94,4310.6
3046.01,4245.45
3050.07,4266.9
3054.12,4213.8
3058.18,4314.6
3062.23,4318.9
3066.28,4310.6
3070.33,4361.15
3074.38,4533.85
3078.42,4521.55
3082.46,4550.9
3086.5,4555.95
3090.54,4461.2
3094.57,4417.25
3098.6,4336.15
3102.63,4283.0
3106.66,4312.75
3110.69,4346.9
3114.71,4292.2
3118.73,4247.95
3122.75,4240.5
3126.77,4301.55
3130.78,4389.8
3134.79,4303.15
3138.8,4221.4
3142.81,4282.05
3146.81,4353.65
3150.82,4264.7
3154.82,4326.95
3158.81,4303.8
3162.81,4333.45
3166.8,4351.7
3170.79,4251.4
3174.78,4263.55
3178.77,4290.15
3182.75,4268.55
3186.74,4261.15
3190.72,4201.4
3194.69,4279.55
3198.67,4327.9
3202.64,4299.6
3206.61,4263.65
3210.58,4316.2
3214.55,4363.15
3218.51,4349.5
3222.47,4266.8
3226.43,4319.8
3230.39,4325.6
3234.35,4354.8
3238.3,4240.2
3242.25,4389.45
3246.2,4241.9
3250.15,4343.4
3254.09,4265.95
3258.03,4275.5
3261.97,4363.0
3265.91,4240.15
3269.84,4313.3
3273.78,4307.0
3277.71,4305.05
3281.64,4250.1
3285.56,4309.95
3289.49,4285.95
3293.41,4313.35
3297.33,4426.4
3301.25,4333.75
3305.16,4291.3
3309.07,4272.9
3312.99,4322.05
3316.89,4239.5
3320.8,4290.85
3324.7,4244.25
3328.61,4223.05
3332.51,4207.15
3336.4,4362.75
3340.3,4235.0
3344.19,4253.35
3348.08,4292.9
3351.97,4296.6
3355.86,4329.05
3359.74,4224.25
3363.63,4271.25
3367.51,4226.8
3371.39,4163.1
3375.26,4230.75
3379.13,4333.0
3383.01,4305.25
3386.88,4150.8
3390.74,4131.5
3394.61,4141.8
3398.47,4192.45
3402.33,4207.9
3406.19,4223.6
3410.05,4202.4
3413.9,4177.4
3417.75,4191.9
3421.6,4206.6
3425.45,4203.5
3429.3,4146.0
3433.14,4215.25
3436.98,4231.1
3440.82,4143.45
3444.66,4128.65
3448.49,4194.6
3452.32,4102.95
3456.15,4233.0
3459.98,4228.6
3463.81,4124.8
3467.63,4084.25
3471.46,4113.8
3475.28,4184.2
3479.09,4078.4
3482.91,4099.95
3486.72,4081.85
3490.53,4101.05
3494.34,4006.5
3498.15,4157.45
3501.96,4156.6
3505.76,4007.6
3509.56,4055.9
3513.36,4030.4
3517.15,4021.5
3520.95,3931.4
3524.74,4047.6
3528.53,4063.55
3532.32,3979.55
3536.11,4052.9
3539.89,4075.8
3543.67,4046.8
3547.45,4048.65
3551.23,3962.4
3555.0,3990.65
3558.78,4024.45
3562.55,4024.1
3566.32,3898.65
3570.09,3943.05
3573.85,4005.0
3577.61,3907.95
3581.37,4034.55
3585.13,3931.65
3588.89,3949.95
3592.64,3960.05
3596.4,3879.95
3600.15,3849.75
3603.9,3911.5
3607.64,3932.8
3611.39,3901.9
3615.13,3890.3
3618.87,3775.1
3622.61,3782.9
3626.34,3864.1
3630.08,3889.7
3633.81,3786.85
3637.54,3849.6
3641.27,3768.45
3644.99,3771.6
3648.72,3873.95
3652.44,3790.95
3656.16,3770.55
3659.87,3861.3
3663.59,3797.25
3665.45,3736.9