File: spectra/VLFR_07-PET_bio_Raman_ce6691d9.csv
nm,Intensity
791.588,9991.4
791.862,9759.5
792.136,9700.0
792.411,9508.6
792.685,9491.3
792.959,9416.2
793.233,9274.5
793.507,9324.3
793.781,9218.4
794.056,9053.9
794.33,9032.0
794.604,9011.2
794.878,9060.4
795.152,9104.6
795.426,9050.1
795.701,8970.6
795.975,8963.2
796.249,8994.3
796.523,8973.8
796.797,8969.6
797.071,9017.0
797.345,9022.9
797.619,9119.3
797.894,9145.7
798.168,9005.8
798.442,8973.6
798.716,9046.5
798.99,9044.8
799.264,9030.8
799.538,9015.0
799.812,8984.2
800.086,9004.4
800.36,9023.0
800.634,9013.8
800.908,9072.8
801.182,8985.2
801.456,9007.8
801.73,8938.1
802.004,9016.9
802.278,8998.9
802.552,8983.4
802.826,8902.8
803.1,8969.9
803.374,8967.9
803.648,8816.4
803.922,8856.5
804.196,8781.8
804.47,8774.1
804.744,8780.1
805.018,8775.6
805.292,8737.7
805.566,8772.0
805.84,8749.9
806.114,8665.1
806.388,8682.6
806.662,8597.0
806.936,8611.9
807.209,8597.5
807.483,8605.3
807.757,8563.6
808.031,8525.3
808.305,8437.2
808.579,8509.7
808.853,8521.9
809.127,8445.0
809.4,8345.2
809.674,8338.3
809.948,8346.1
810.222,8268.8
810.496,8364.5
810.77,8318.6
811.043,8258.4
811.317,8301.4
811.591,8253.4
811.865,8227.1
812.139,8225.6
812.412,8201.0
812.686,8138.5
812.96,8143.3
813.234,8138.5
813.507,8083.9
813.781,8019.0
814.055,8040.2
814.329,8033.7
814.602,8117.8
814.876,8028.2
815.15,8002.6
815.424,7973.2
815.697,7955.6
815.971,7934.4
816.245,7900.4
816.518,7868.8
816.792,7864.6
817.066,7873.0
817.34,7888.5
817.613,7870.5
817.887,7843.4
818.161,7838.6
818.434,7789.3
818.708,7808.2
818.981,7767.2
819.255,7854.5
819.529,7777.3
819.802,7694.6
820.076,7799.1
820.35,7854.0
820.623,7816.3
820.897,7703.9
821.17,7718.3
821.444,7633.9
821.718,7719.8
821.991,7707.5
822.265,7683.5
822.538,7600.1
822.812,7598.5
823.085,7552.7
823.359,7575.6
823.632,7575.4
823.906,7526.7
824.179,7531.6
824.453,7634.8
824.727,7565.6
825.0,7567.9
825.274,7578.4
825.547,7551.2
825.821,7622.8
826.094,7678.0
826.367,7639.2
826.641,7578.5
826.914,7488.2
827.188,7452.5
827.461,7391.3
827.735,7476.9
828.008,7457.5
828.282,7339.7
828.555,7370.5
828.828,7407.7
829.102,7371.7
829.375,7371.4
829.649,7335.7
829.922,7353.2
830.195,7376.5
830.469,7390.7
830.742,7397.2
831.016,7316.2
831.289,7320.9
831.562,7220.8
831.836,7247.0
832.109,7281.4
832.382,7246.8
832.656,7258.9
832.929,7226.3
833.202,7193.9
833.476,7133.6
833.749,7167.2
834.022,7209.6
834.295,7149.2
834.569,7071.4
834.842,7105.9
835.115,7133.4
835.388,7037.1
835.662,7069.7
835.935,7071.5
836.208,7115.3
836.481,7090.3
836.755,7142.2
837.028,7080.2
837.301,7048.2
837.574,7037.2
837.848,7079.9
838.121,7063.6
838.394,6999.7
838.667,7025.2
838.94,7041.4
839.213,7049.3
839.487,7010.7
839.76,7014.8
840.033,6998.8
840.306,6978.3
840.579,6993.4
840.852,7026.6
841.125,7040.1
841.399,7086.4
841.672,7097.5
841.945,7067.8
842.218,6961.0
842.491,6932.4
842.764,6875.6
843.037,6904.4
843.31,6892.1
843.583,6853.1
843.856,6783.7
844.129,6782.1
844.402,6718.9
844.675,6701.4
844.948,6670.8
845.221,6690.2
845.495,6653.3
845.768,6596.6
846.041,6594.4
846.314,6602.0
846.586,6598.7
846.859,6592.6
847.132,6564.6
847.405,6543.1
847.678,6579.9
847.951,6574.3
848.224,6531.1
848.497,6447.4
848.77,6484.8
849.043,6462.1
849.316,6474.9
849.589,6481.4
849.862,6460.9
850.135,6441.3
850.408,6463.2
850.68,6378.6
850.953,6372.8
851.226,6426.0
851.499,6412.2
851.772,6440.0
852.045,6437.0
852.318,6408.2
852.591,6408.7
852.863,6397.6
853.136,6409.2
853.409,6354.9
853.682,6341.1
853.955,6305.9
854.227,6333.9
854.5,6324.6
854.773,6302.5
855.046,6293.3
855.318,6252.0
855.591,6259.9
855.864,6272.8
856.137,6243.2
856.409,6241.8
856.682,6262.0
856.955,6260.5
857.228,6220.2
857.5,6250.3
857.773,6273.3
858.046,6272.2
858.318,6278.8
858.591,6286.6
858.864,6275.7
859.136,6314.6
859.409,6289.0
859.682,6289.5
859.954,6256.3
860.227,6301.9
860.5,6261.3
860.772,6244.0
861.045,6199.7
861.318,6178.3
861.59,6190.0
861.863,6175.7
862.135,6161.3
862.408,6113.6
862.681,6141.8
862.953,6096.7
863.226,6132.1
863.498,6136.6
863.771,6109.5
864.043,6085.4
864.316,6091.2
864.588,6113.1
864.861,6158.6
865.133,6121.8
865.406,6069.8
865.678,6020.9
865.951,6011.5
866.223,5973.1
866.496,6014.0
866.768,6036.8
867.041,6022.1
867.313,5992.7
867.586,5965.6
867.858,5977.7
868.131,5999.1
868.403,5962.5
868.675,5965.7
868.948,5933.5
869.22,5961.1
869.493,6037.3
869.765,6065.0
870.037,6030.6
870.31,6023.5
870.582,5966.7
870.854,6016.4
871.127,6009.0
871.399,5990.7
871.672,6107.8
871.944,6105.2
872.216,6150.8
872.488,6144.0
872.761,6202.5
873.033,6149.0
873.305,6156.3
873.578,6180.2
873.85,6103.1
874.122,6062.3
874.394,6028.1
874.667,5999.6
874.939,5957.1
875.211,5951.1
875.483,5953.7
875.756,5936.9
876.028,5890.5
876.3,5923.6
876.572,5904.9
876.845,5842.2
877.117,5826.9
877.389,5839.5
877.661,5839.6
877.933,5824.6
878.205,5814.4
878.478,5834.3
878.75,5812.6
879.022,5769.6
879.294,5770.3
879.566,5782.0
879.838,5772.1
880.11,5791.1
880.382,5774.2
880.654,5762.2
880.927,5765.0
881.199,5768.6
881.471,5789.3
881.743,5766.5
882.015,5768.1
882.287,5762.2
882.559,5723.4
882.831,5727.1
883.103,5733.1
883.375,5693.1
883.647,5726.1
883.919,5737.5
884.191,5692.4
884.463,5697.9
884.735,5666.3
885.007,5676.6
885.279,5704.9
885.551,5684.4
885.823,5698.2
886.095,5688.4
886.367,5673.4
886.639,5604.9
886.91,5604.9
887.182,5602.5
887.454,5608.1
887.726,5598.4
887.998,5561.0
888.27,5573.3
888.542,5626.0
888.814,5564.8
889.085,5548.4
889.357,5509.0
889.629,5539.0
889.901,5565.4
890.173,5579.2
890.445,5513.7
890.716,5493.0
890.988,5501.2
891.26,5529.7
891.532,5522.4
891.804,5519.7
892.075,5480.4
892.347,5473.1
892.619,5493.6
892.891,5468.9
893.162,5457.3
893.434,5442.5
893.706,5398.4
893.978,5388.5
894.249,5410.1
894.521,5393.5
894.793,5405.6
895.064,5381.1
895.336,5382.4
895.608,5401.7
895.879,5355.0
896.151,5352.6
896.423,5318.9
896.694,5337.4
896.966,5365.5
897.237,5427.2
897.509,5520.2
897.781,5553.6
898.052,5661.4
898.324,5704.0
898.595,5692.3
898.867,5665.4
899.139,5582.5
899.41,5515.9
899.682,5429.6
899.953,5372.5
900.225,5303.6
900.496,5226.4
900.768,5220.9
901.039,5227.3
901.311,5198.3
901.582,5183.8
901.854,5157.7
902.125,5174.3
902.397,5166.3
902.668,5173.8
902.94,5157.2
903.211,5154.0
903.482,5157.4
903.754,5134.1
904.025,5136.0
904.297,5108.5
904.568,5132.7
904.839,5122.6
905.111,5096.3
905.382,5109.6
905.654,5119.9
905.925,5142.3
906.196,5169.9
906.468,5199.5
906.739,5271.7
907.01,5254.0
907.282,5276.6
907.553,5320.4
907.824,5319.8
908.096,5315.6
908.367,5280.8
908.638,5251.3
908.909,5180.8
909.181,5172.4
909.452,5090.9
909.723,5093.9
909.994,5052.5
910.266,5029.2
910.537,4965.6
910.808,4945.4
911.079,4933.1
911.35,4921.4
911.622,4892.0
911.893,4893.2
912.164,4868.2
912.435,4891.4
912.706,4892.0
912.977,4865.3
913.249,4852.1
913.52,4869.9
913.791,4847.7
914.062,4825.9
914.333,4838.0
914.604,4830.4
914.875,4824.9
915.146,4794.5
915.417,4788.8
915.688,4785.4
915.959,4765.4
916.231,4739.4
916.502,4736.6
916.773,4747.0
917.044,4756.2
917.315,4724.7
917.586,4744.3
917.857,4755.1
918.128,4736.1
918.399,4715.2
918.67,4700.8
918.941,4689.9
919.211,4688.1
919.482,4697.9
919.753,4701.2
920.024,4694.7
920.295,4680.8
920.566,4679.1
920.837,4681.2
921.108,4664.1
921.379,4657.5
921.65,4659.8
921.921,4634.0
922.191,4610.4
922.462,4616.3
922.733,4609.0
923.004,4606.3
923.275,4596.7
923.546,4582.3
923.816,4567.2
924.087,4589.8
924.358,4574.9
924.629,4563.0
924.9,4555.0
925.17,4554.6
925.441,4556.5
925.712,4543.6
925.983,4525.3
926.253,4557.0
926.524,4533.3
926.795,4533.1
927.065,4522.7
927.336,4511.3
927.607,4518.6
927.877,4463.6
928.148,4463.9
928.419,4452.7
928.689,4461.5
928.96,4460.0
929.231,4451.3
929.501,4432.6
929.772,4434.6
930.043,4434.7
930.313,4427.9
930.584,4441.6
930.854,4438.5
931.125,4421.5
931.396,4416.6
931.666,4391.2
931.937,4382.8
932.207,4384.5
932.478,4370.9
932.748,4363.5
933.019,4345.0
933.289,4363.9
933.56,4361.8
933.83,4361.9
934.101,4363.1
934.371,4365.4
934.642,4333.7
934.912,4338.2
935.183,4335.8
935.453,4332.2
935.723,4320.7
935.994,4326.9
936.264,4311.0
936.535,4306.3
936.805,4309.9
937.075,4295.9
937.346,4292.7
937.616,4294.8
937.886,4276.3
938.157,4283.0
938.427,4281.6
938.697,4279.5
938.968,4271.2
939.238,4269.1
939.508,4255.4
939.779,4262.4
940.049,4263.6
940.319,4242.7
940.59,4254.5
940.86,4256.4
941.13,4237.7
941.4,4233.9
941.671,4233.5
941.941,4231.8
942.211,4226.8
942.481,4225.4
942.751,4215.1
943.022,4211.4
943.292,4203.2
943.562,4200.8
943.832,4204.4
944.102,4194.6
944.372,4180.2
944.642,4177.7
944.913,4173.3
945.183,4176.5
945.453,4174.2
945.723,4169.1
945.993,4165.0
946.263,4167.8
946.533,4160.7
946.803,4157.6
947.073,4162.3
947.343,4155.0
947.613,4155.9
947.883,4153.0
948.153,4163.2
948.423,4152.5
948.693,4150.8
948.963,4142.2
949.233,4125.9
949.503,4121.7
949.773,4128.5
950.043,4119.4
950.313,4113.7
950.583,4106.8
950.853,4117.7
951.123,4118.0
951.393,4111.3
951.663,4114.0
951.933,4107.5
952.202,4107.4
952.472,4099.0
952.742,4087.8
953.012,4091.6
953.282,4094.2
953.552,4090.8
953.822,4086.3
954.091,4084.8
954.361,4086.8
954.631,4076.8
954.901,4074.9
955.17,4075.2
955.44,4062.5
955.71,4057.2
955.98,4064.8
956.25,4060.1
956.519,4061.1
956.789,4052.2
957.059,4052.9
957.328,4056.6
957.598,4051.1
957.868,4042.9
958.137,4044.4
958.407,4045.5
958.677,4038.2
958.946,4039.0
959.216,4042.2
959.486,4044.4
959.755,4035.8
960.025,4023.0
960.294,4034.1
960.564,4018.2
960.834,4026.0
961.103,4013.7
961.373,4013.5
961.642,4010.8
961.912,4017.6
962.181,4021.2
962.451,4005.3
962.72,4006.5
962.99,4004.8
963.259,3997.7
963.529,3995.8
963.798,3994.2
964.068,3992.2
964.337,4003.6
964.607,3995.7
964.876,3994.9
965.146,4000.5
965.415,3982.7
965.684,3982.1
965.954,3976.3
966.223,3987.3
966.493,3978.8
966.762,3972.3
967.031,3973.6
967.301,3971.1
967.57,3982.6
967.839,3977.4
968.109,3970.2
968.378,3965.4
968.647,3972.6
968.917,3972.9
969.186,3970.0
969.455,3961.0
969.724,3960.7
969.994,3957.8
970.263,3962.0
970.532,3955.9
970.801,3957.2
971.071,3950.6
971.34,3956.2
971.609,3944.9
971.878,3946.0
972.147,3944.5
972.417,3942.2
972.686,3941.7
972.955,3939.4
973.224,3939.1
973.493,3936.3
973.762,3931.9
974.031,3928.5
974.3,3928.1
974.57,3932.9
974.839,3931.4
975.108,3924.9
975.377,3920.9
975.646,3920.9
975.915,3920.9
976.184,3919.7
976.453,3920.5
976.722,3914.8
976.991,3911.2
977.26,3914.0
977.529,3916.2
977.798,3907.7
978.067,3913.5
978.336,3908.5
978.605,3912.3
978.874,3913.8
979.143,3902.5
979.412,3900.6
979.68,3895.8
979.949,3899.4
980.218,3897.2
980.487,3900.6
980.756,3901.0
981.025,3895.6
981.294,3895.1
981.563,3902.3
981.831,3894.8
982.1,3890.5
982.369,3889.1
982.638,3902.0
982.907,3890.3
983.175,3893.1
983.444,3887.2
983.713,3881.9
983.982,3882.2
984.25,3885.3
984.519,3881.4
984.788,3880.3
985.057,3876.4
985.325,3876.2
985.594,3873.4
985.863,3875.6
986.131,3869.9
986.4,3878.0
986.669,3871.9
986.937,3873.6
987.206,3871.5
987.475,3868.6
987.743,3867.0
988.012,3871.3
988.28,3867.9
988.549,3873.1
988.817,3868.1
989.086,3871.7
989.355,3872.4
989.623,3861.4
989.892,3857.5
990.16,3861.6
990.429,3863.5
990.697,3855.3
990.966,3853.2
991.234,3851.8
991.503,3853.3
991.771,3852.8
992.04,3850.0
992.308,3846.1
992.576,3847.1
992.845,3845.1
993.113,3848.5
993.382,3849.9
993.65,3846.8
993.918,3842.7
994.187,3846.7
994.455,3846.4
994.723,3844.6
994.992,3839.0
995.26,3841.6
995.528,3838.9
995.797,3837.4
996.065,3836.3
996.333,3837.6
996.602,3835.3
996.87,3835.5
997.138,3836.0
997.406,3835.5
997.675,3830.9
997.943,3830.7
998.211,3829.5
998.479,3833.1
998.747,3827.9
999.016,3826.2
999.284,3823.1
999.552,3822.7
999.82,3822.2
1000.09,3824.5
1000.36,3823.4
1000.62,3824.0
1000.89,3820.7
1001.16,3823.3
1001.43,3823.7
1001.7,3819.0
1001.97,3818.0
1002.23,3823.9
1002.5,3816.6
1002.77,3821.1
1003.04,3817.5
1003.31,3816.9
1003.57,3812.2
1003.84,3811.0
1004.11,3811.0
1004.38,3811.1
1004.65,3808.3
1004.91,3807.7
1005.18,3811.8
1005.45,3810.8
1005.72,3808.2
1005.98,3809.4
1006.25,3805.8
1006.52,3805.8
1006.79,3804.6
1007.06,3806.1
1007.32,3804.4
1007.59,3803.3
1007.86,3802.0
1008.13,3803.7
1008.4,3804.6
1008.66,3795.2
1008.93,3797.8
1009.2,3795.9
1009.47,3797.8
1009.73,3796.4
1010.0,3796.6
1010.27,3795.7
1010.54,3792.6
1010.81,3794.5
1011.07,3796.4
1011.34,3798.4
1011.61,3795.2
1011.88,3795.8
1012.14,3791.2
1012.41,3794.1
1012.68,3793.0
1012.95,3792.4
1013.21,3788.3
1013.48,3789.4
1013.75,3789.1
1014.02,3788.9
1014.29,3788.9
1014.55,3789.6
1014.82,3787.1
1015.09,3789.7
1015.36,3788.3
1015.62,3788.5
1015.89,3789.1
1016.16,3789.6
1016.43,3787.0
1016.69,3787.4
1016.96,3787.0
1017.23,3785.8
1017.5,3781.7
1017.76,3781.2
1018.03,3782.0
1018.3,3786.2
1018.57,3786.2
1018.83,3780.0
1019.1,3781.2
1019.37,3779.3
1019.63,3782.2
1019.9,3781.3
1020.17,3780.0
1020.44,3779.7
1020.7,3780.7
1020.97,3781.8
1021.24,3782.2
1021.51,3784.4
1021.77,3783.5
1022.04,3781.3
1022.31,3780.3
1022.58,3781.2
1022.84,3782.4
1023.11,3780.5
1023.38,3780.9
1023.64,3779.8
1023.91,3780.8
1024.18,3779.2
1024.45,3778.2
1024.71,3778.7
1024.98,3774.9
1025.25,3773.4
1025.51,3773.1
1025.78,3774.5
1026.05,3773.9
1026.32,3771.7
1026.58,3770.7
1026.85,3765.3
1027.12,3769.9
1027.38,3769.1
1027.65,3768.3
1027.92,3770.0
1028.19,3768.3
1028.45,3769.5
1028.72,3767.8
1028.99,3765.5
1029.25,3766.2
1029.52,3766.0
1029.79,3766.1
1030.05,3765.7
1030.32,3765.9
1030.59,3766.3
1030.85,3764.3
1031.12,3765.2
1031.39,3763.7
1031.66,3759.2
1031.92,3763.1
1032.19,3762.3
1032.46,3765.3
1032.72,3764.0
1032.99,3764.6
1033.26,3762.9
1033.52,3762.8
1033.79,3763.6
1034.06,3764.1
1034.32,3763.8
1034.59,3764.9
1034.86,3762.0
1035.12,3764.5
1035.39,3762.6
1035.66,3762.8
1035.92,3763.0
1036.19,3763.1
1036.46,3764.0
1036.72,3761.5
1036.99,3760.2
1037.26,3760.6
1037.52,3761.9
1037.79,3759.8
1038.06,3762.4
1038.32,3757.2
1038.59,3757.3
1038.86,3755.5
1039.12,3757.5
1039.39,3757.3
1039.66,3756.2
1039.92,3754.8
1040.19,3754.0
1040.46,3756.4
1040.72,3756.1
1040.99,3754.1
1041.26,3754.6
1041.52,3754.6
1041.79,3755.6
1042.06,3753.3
1042.32,3751.3
1042.59,3751.8
1042.86,3755.6
1043.12,3753.0
1043.39,3752.3
1043.65,3753.7
1043.92,3753.5
1044.19,3751.6
1044.45,3753.5
1044.72,3755.6
1044.99,3752.7
1045.25,3752.1
1045.52,3752.3
1045.79,3751.1
1046.05,3752.3
1046.32,3751.8
1046.58,3750.5
1046.85,3751.0
1047.12,3751.9
1047.38,3751.4
1047.65,3750.6
1047.92,3752.8
1048.18,3750.8
1048.45,3750.3
1048.71,3751.1
1048.98,3751.1
1049.25,3750.5
1049.51,3750.4
1049.78,3749.6
1050.04,3750.9
1050.31,3750.1
1050.58,3749.4
1050.84,3749.2
1051.11,3751.2
1051.37,3747.4
1051.64,3750.4
1051.91,3751.9
1052.17,3749.2
1052.44,3748.6
1052.7,3751.1
1052.97,3748.2
1053.24,3750.5
1053.5,3749.9
1053.77,3748.8
1054.03,3750.5
1054.3,3750.7
1054.57,3748.8
1054.83,3749.6
1055.1,3749.1
1055.36,3748.6
1055.63,3748.5
1055.9,3747.3
1056.16,3748.9
1056.43,3751.3
1056.69,3747.7
1056.96,3748.1
1057.23,3747.2
1057.49,3748.7
1057.76,3748.8
1058.02,3749.4
1058.29,3747.5
1058.55,3747.0
1058.82,3748.8
1059.09,3748.9
1059.35,3746.1
1059.62,3747.5
1059.88,3747.6
1060.15,3747.5
1060.41,3746.7
1060.68,3748.5
1060.95,3747.4
1061.21,3746.8
1061.48,3748.2
1061.74,3748.2
1062.01,3747.6
1062.27,3747.1
1062.54,3748.1
1062.8,3747.3
1063.07,3747.4
1063.34,3745.0
1063.6,3746.7
1063.87,3746.1
1064.13,3747.4
1064.4,3746.3
1064.66,3746.4
1064.93,3746.5
1065.19,3746.6
1065.46,3745.1
1065.73,3746.3
1065.99,3746.7
1066.26,3746.6
1066.52,3746.6
1066.79,3747.2
1067.05,3744.4
1067.32,3743.3
1067.58,3745.9
1067.85,3743.6
1068.11,3744.8