File: spectra/VLFR_06-PET_bio_Raman_5d772afa.csv
nm,Intensity
526.493,829.1
526.629,828.15
526.766,828.8
526.903,829.15
527.039,829.4
527.176,829.25
527.313,829.1
527.449,829.95
527.586,829.1
527.723,829.35
527.859,830.0
527.996,829.2
528.133,829.65
528.269,829.0
528.406,829.6
528.542,828.6
528.679,829.1
528.816,830.4
528.952,829.55
529.089,828.65
529.225,829.35
529.362,829.45
529.498,829.75
529.635,828.35
529.771,829.1
529.908,829.1
530.044,829.2
530.181,828.9
530.317,830.1
530.454,829.55
530.59,829.5
530.727,828.6
530.863,828.5
531.0,828.85
531.136,829.5
531.273,829.95
531.409,828.6
531.546,829.3
531.682,829.85
531.818,829.4
531.955,830.5
532.091,840.1
532.227,845.1
532.364,833.45
532.5,830.0
532.637,829.65
532.773,829.1
532.909,829.0
533.046,829.05
533.182,829.05
533.318,828.7
533.455,830.15
533.591,837.6
533.727,897.2
533.863,1187.15
534.0,1637.65
534.136,1831.85
534.272,1783.85
534.408,1687.4
534.545,1613.05
534.681,1547.45
534.817,1465.3
534.953,1395.0
535.09,1323.2
535.226,1264.75
535.362,1211.45
535.498,1173.5
535.634,1135.1
535.771,1094.3
535.907,1058.7
536.043,1028.9
536.179,1007.85
536.315,991.0
536.451,977.5
536.588,963.05
536.724,956.7
536.86,946.15
536.996,943.45
537.132,938.4
537.268,936.6
537.404,932.1
537.54,927.85
537.676,923.35
537.812,923.55
537.948,921.85
538.084,924.75
538.22,923.45
538.357,927.05
538.493,926.65
538.629,925.2
538.765,927.5
538.901,924.7
539.037,926.75
539.173,928.0
539.309,931.25
539.444,930.9
539.58,937.45
539.716,939.1
539.852,943.75
539.988,942.85
540.124,938.9
540.26,930.1
540.396,920.8
540.532,911.8
540.668,907.6
540.804,901.1
540.94,901.3
541.076,896.4
541.211,895.3
541.347,896.15
541.483,890.7
541.619,892.05
541.755,889.7
541.891,893.35
542.026,889.5
542.162,893.05
542.298,890.0
542.434,892.2
542.57,891.65
542.705,892.85
542.841,891.85
542.977,891.7
543.113,892.85
543.249,890.25
543.384,889.35
543.52,891.6
543.656,889.7
543.791,893.2
543.927,899.5
544.063,895.05
544.199,893.15
544.334,890.8
544.47,889.15
544.606,891.35
544.741,892.25
544.877,893.75
545.013,893.9
545.148,892.1
545.284,891.35
545.42,893.8
545.555,893.45
545.691,893.25
545.827,893.75
545.962,896.65
546.098,894.8
546.233,894.35
546.369,895.05
546.504,896.15
546.64,896.35
546.776,893.7
546.911,897.9
547.047,896.9
547.182,896.75
547.318,898.3
547.453,896.75
547.589,899.4
547.724,897.8
547.86,896.85
547.995,898.35
548.131,898.95
548.266,898.45
548.402,897.1
548.537,897.7
548.673,898.2
548.808,901.75
548.944,899.45
549.079,897.95
549.214,898.9
549.35,898.4
549.485,899.25
549.621,899.7
549.756,899.95
549.892,903.35
550.027,899.5
550.162,903.4
550.298,901.95
550.433,912.1
550.568,961.75
550.704,1047.3
550.839,996.1
550.974,918.4
551.11,909.35
551.245,907.9
551.38,906.25
551.516,907.95
551.651,908.25
551.786,905.55
551.922,906.3
552.057,905.55
552.192,910.1
552.327,910.85
552.463,908.35
552.598,912.3
552.733,931.45
552.868,956.85
553.004,946.85
553.139,924.25
553.274,915.1
553.409,907.65
553.544,911.75
553.68,911.3
553.815,909.8
553.95,910.1
554.085,910.75
554.22,910.2
554.356,910.35
554.491,912.2
554.626,910.6
554.761,913.85
554.896,912.25
555.031,913.35
555.166,919.45
555.301,925.2
555.437,932.45
555.572,954.6
555.707,966.45
555.842,957.95
555.977,952.2
556.112,959.15
556.247,960.45
556.382,959.8
556.517,967.65
556.652,967.65
556.787,969.8
556.922,966.8
557.057,976.05
557.192,993.8
557.327,1026.4
557.462,1065.9
557.597,1102.3
557.732,1079.75
557.867,1019.25
558.002,987.95
558.137,976.8
558.272,976.85
558.407,979.9
558.542,982.1
558.677,974.75
558.812,965.7
558.947,956.5
559.082,947.3
559.217,935.7
559.351,934.45
559.486,928.55
559.621,927.15
559.756,929.2
559.891,927.1
560.026,925.55
560.161,925.35
560.295,924.9
560.43,926.0
560.565,927.05
560.7,931.35
560.835,929.1
560.97,927.9
561.104,927.9
561.239,930.8
561.374,931.8
561.509,932.85
561.644,933.65
561.778,936.7
561.913,937.7
562.048,943.9
562.183,948.15
562.317,945.9
562.452,943.4
562.587,947.95
562.722,950.3
562.856,957.85
562.991,961.7
563.126,958.55
563.26,959.25
563.395,955.5
563.53,952.0
563.665,950.35
563.799,948.25
563.934,946.15
564.069,947.25
564.203,944.4
564.338,950.35
564.472,954.3
564.607,954.35
564.742,967.65
564.876,971.1
565.011,983.9
565.146,1000.05
565.28,1010.75
565.415,1019.95
565.549,1031.2
565.684,1045.0
565.818,1050.95
565.953,1052.85
566.088,1032.5
566.222,1012.7
566.357,992.4
566.491,975.85
566.626,967.0
566.76,962.7
566.895,955.95
567.029,953.9
567.164,954.6
567.298,956.55
567.433,969.7
567.567,993.9
567.702,1009.75
567.836,1011.1
567.971,991.5
568.105,968.85
568.24,961.85
568.374,959.9
568.509,955.5
568.643,959.2
568.777,956.25
568.912,955.65
569.046,958.2
569.181,958.05
569.315,959.8
569.449,963.75
569.584,973.3
569.718,977.05
569.853,979.2
569.987,985.4
570.121,990.85
570.256,994.55
570.39,1012.95
570.524,1039.8
570.659,1062.9
570.793,1080.6
570.927,1109.9
571.062,1143.25
571.196,1182.8
571.33,1196.0
571.465,1193.55
571.599,1158.15
571.733,1108.55
571.867,1085.25
572.002,1078.55
572.136,1054.05
572.27,1027.3
572.404,1013.2
572.539,999.9
572.673,987.8
572.807,984.9
572.941,981.8
573.076,979.95
573.21,977.05
573.344,978.1
573.478,977.9
573.612,978.25
573.747,981.5
573.881,991.95
574.015,994.65
574.149,998.7
574.283,996.7
574.417,989.2
574.552,985.15
574.686,984.15
574.82,989.55
574.954,987.15
575.088,993.1
575.222,1003.4
575.356,1019.8
575.491,1017.55
575.625,997.25
575.759,988.35
575.893,986.8
576.027,990.4
576.161,996.5
576.295,1006.25
576.429,1011.85
576.563,1015.35
576.697,1014.4
576.831,1018.1
576.965,1012.4
577.099,1007.35
577.233,1001.7
577.367,996.15
577.501,988.25
577.635,988.2
577.769,986.9
577.903,982.1
578.037,984.2
578.171,983.95
578.305,986.55
578.439,986.95
578.573,987.9
578.707,986.35
578.841,984.95
578.975,984.75
579.109,985.85
579.243,983.1
579.377,988.4
579.511,990.85
579.645,987.2
579.779,990.0
579.913,988.7
580.046,991.75
580.18,991.95
580.314,993.0
580.448,994.4
580.582,999.5
580.716,1000.2
580.85,1007.1
580.984,1012.55
581.117,1009.1
581.251,1011.95
581.385,1020.45
581.519,1034.5
581.653,1068.05
581.787,1142.1
581.92,1297.05
582.054,1607.0
582.188,1935.05
582.322,1778.25
582.456,1323.45
582.589,1107.15
582.723,1043.65
582.857,1023.95
582.991,1015.95
583.124,1014.55
583.258,1007.55
583.392,1004.95
583.526,1002.6
583.659,1005.65
583.793,1005.7
583.927,1004.3
584.061,1002.9
584.194,1006.2
584.328,1012.55
584.462,1015.0
584.595,1021.4
584.729,1017.8
584.863,1018.3
584.997,1026.7
585.13,1030.05
585.264,1051.35
585.398,1091.9
585.531,1168.85
585.665,1284.8
585.798,1410.45
585.932,1483.0
586.066,1498.85
586.199,1461.75
586.333,1389.8
586.467,1307.75
586.6,1205.75
586.734,1133.65
586.867,1076.9
587.001,1051.5
587.135,1040.65
587.268,1029.4
587.402,1025.0
587.535,1017.35
587.669,1017.35
587.802,1018.35
587.936,1011.6
588.07,1014.8
588.203,1011.65
588.337,1016.0
588.47,1010.15
588.604,1014.6
588.737,1011.95
588.871,1011.4
589.004,1011.9
589.138,1013.65
589.271,1009.05
589.405,1010.15
589.538,1008.7
589.672,1007.65
589.805,1009.95
589.939,1009.75
590.072,1006.85
590.206,1009.25
590.339,1010.55
590.472,1008.35
590.606,1007.45
590.739,1010.4
590.873,1009.8
591.006,1011.45
591.14,1013.4
591.273,1009.95
591.406,1010.2
591.54,1012.3
591.673,1011.05
591.807,1010.6
591.94,1011.5
592.073,1006.7
592.207,1010.1
592.34,1007.9
592.473,1013.5
592.607,1011.35
592.74,1009.4
592.873,1011.05
593.007,1012.45
593.14,1010.9
593.273,1013.65
593.407,1008.9
593.54,1007.3
593.673,1012.4
593.807,1010.2
593.94,1012.55
594.073,1015.95
594.207,1014.75
594.34,1013.1
594.473,1010.7
594.606,1017.65
594.74,1012.55
594.873,1012.5
595.006,1014.5
595.14,1013.35
595.273,1017.75
595.406,1015.65
595.539,1015.75
595.673,1016.95
595.806,1017.95
595.939,1019.15
596.072,1017.2
596.205,1013.05
596.339,1017.35
596.472,1014.5
596.605,1018.95
596.738,1020.45
596.871,1018.15
597.005,1020.65
597.138,1024.25
597.271,1018.65
597.404,1021.6
597.537,1019.3
597.67,1017.5
597.804,1019.0
597.937,1020.9
598.07,1020.1
598.203,1023.45
598.336,1018.35
598.469,1019.55
598.602,1021.75
598.735,1020.55
598.869,1020.55
599.002,1020.95
599.135,1019.1
599.268,1019.35
599.401,1022.75
599.534,1022.6
599.667,1019.2
599.8,1020.15
599.933,1021.2
600.066,1022.15
600.199,1018.4
600.332,1026.6
600.465,1019.5
600.598,1023.3
600.731,1018.35
600.865,1025.05
600.998,1025.75
601.131,1023.2
601.264,1022.75
601.397,1020.55
601.53,1023.05
601.663,1022.65
601.796,1023.65
601.929,1022.2
602.062,1022.15
602.195,1022.8
602.328,1021.7
602.46,1024.65
602.593,1024.8
602.726,1029.35
602.859,1026.5
602.992,1025.55
603.125,1023.4
603.258,1023.85
603.391,1026.1
603.524,1024.8
603.657,1024.35
603.79,1025.5
603.923,1026.7
604.056,1027.55
604.189,1023.15
604.322,1023.9
604.454,1026.2
604.587,1023.2
604.72,1026.7
604.853,1025.25
604.986,1022.9
605.119,1025.25
605.252,1019.05
605.385,1017.5
605.517,1018.55
605.65,1016.6
605.783,1015.55
605.916,1025.35
606.049,1023.25
606.182,1022.75
606.315,1022.0
606.447,1019.4
606.58,1018.6
606.713,1021.15
606.846,1020.9
606.979,1018.55
607.111,1024.2
607.244,1017.75
607.377,1023.2
607.51,1025.3
607.643,1023.55
607.775,1014.05
607.908,1023.55
608.041,1022.9
608.174,1026.4
608.306,1023.05
608.439,1024.15
608.572,1025.55
608.705,1020.5
608.837,1023.5
608.97,1022.3
609.103,1024.8
609.236,1023.9
609.368,1020.75
609.501,1026.7
609.634,1024.45
609.766,1024.0
609.899,1026.2
610.032,1020.95
610.164,1021.3
610.297,1021.25
610.43,1026.15
610.563,1025.15
610.695,1023.95
610.828,1026.4
610.961,1026.15
611.093,1021.0
611.226,1022.15
611.359,1026.9
611.491,1024.9
611.624,1026.6
611.756,1027.9
611.889,1023.5
612.022,1027.8
612.154,1026.95
612.287,1028.95
612.42,1027.3
612.552,1028.35
612.685,1030.75
612.817,1030.5
612.95,1034.05
613.083,1033.95
613.215,1031.2
613.348,1036.7
613.48,1031.75
613.613,1035.3
613.745,1030.65
613.878,1031.8
614.011,1031.3
614.143,1039.75
614.276,1032.65
614.408,1037.35
614.541,1032.6
614.673,1037.5
614.806,1034.95
614.938,1036.8
615.071,1035.55
615.203,1032.7
615.336,1034.8
615.469,1032.5
615.601,1035.4
615.734,1036.8
615.866,1033.55
615.999,1037.7
616.131,1034.6
616.263,1036.9
616.396,1035.75
616.528,1038.35
616.661,1041.05
616.793,1039.55
616.926,1038.35
617.058,1039.65
617.191,1039.0
617.323,1043.5
617.456,1042.6
617.588,1042.35
617.721,1047.45
617.853,1044.55
617.985,1043.8
618.118,1048.35
618.25,1050.6
618.383,1049.15
618.515,1049.55
618.648,1045.6
618.78,1053.75
618.912,1045.3
619.045,1048.15
619.177,1041.15
619.31,1044.1
619.442,1039.6
619.574,1042.3
619.707,1042.6
619.839,1035.45
619.971,1041.45
620.104,1035.6
620.236,1039.4
620.369,1038.8
620.501,1041.45
620.633,1038.1
620.766,1038.7
620.898,1040.6
621.03,1033.75
621.163,1042.15
621.295,1041.1
621.427,1046.2
621.56,1043.4
621.692,1043.5
621.824,1044.4
621.957,1045.5
622.089,1045.55
622.221,1046.2
622.353,1041.05
622.486,1046.4
622.618,1048.85
622.75,1044.75
622.883,1043.55
623.015,1049.55
623.147,1048.25
623.279,1050.4
623.412,1047.0
623.544,1048.3
623.676,1048.65
623.808,1050.15
623.941,1050.5
624.073,1051.85
624.205,1053.0
624.337,1057.65
624.47,1057.85
624.602,1056.2
624.734,1060.4
624.866,1062.3
624.999,1055.65
625.131,1061.75
625.263,1058.3
625.395,1060.4
625.527,1060.25
625.66,1056.5
625.792,1063.0
625.924,1059.05
626.056,1055.45
626.188,1056.5
626.321,1057.25
626.453,1057.35
626.585,1054.65
626.717,1054.85
626.849,1056.95
626.981,1057.25
627.114,1059.75
627.246,1060.3
627.378,1062.0
627.51,1059.7
627.642,1061.8
627.774,1062.7
627.906,1063.85
628.039,1064.35
628.171,1071.2
628.303,1072.75
628.435,1078.7
628.567,1083.35
628.699,1084.9
628.831,1090.85
628.963,1095.75
629.095,1097.0
629.228,1098.45
629.36,1098.75
629.492,1097.2
629.624,1096.05
629.756,1097.3
629.888,1092.55
630.02,1088.2
630.152,1089.25
630.284,1088.8
630.416,1090.0
630.548,1092.35
630.68,1097.9
630.813,1108.0
630.945,1118.3
631.077,1144.25
631.209,1165.95
631.341,1196.3
631.473,1225.75
631.605,1247.45
631.737,1262.5
631.869,1266.3
632.001,1251.3
632.133,1235.7
632.265,1217.05
632.397,1194.85
632.529,1183.85
632.661,1169.55
632.793,1166.6
632.925,1157.5
633.057,1155.1
633.189,1153.8
633.321,1152.7
633.453,1156.0
633.585,1148.45
633.717,1148.7
633.849,1131.85
633.981,1129.95
634.113,1128.15
634.245,1121.1
634.377,1113.35
634.509,1114.3
634.641,1109.05
634.773,1110.1
634.905,1114.0
635.036,1110.5
635.168,1107.2
635.3,1114.9
635.432,1121.4
635.564,1132.65
635.696,1143.45
635.828,1164.9
635.96,1193.35
636.092,1209.85
636.224,1233.4
636.356,1261.5
636.488,1300.15
636.62,1314.35
636.751,1302.0
636.883,1265.1
637.015,1221.45
637.147,1182.95
637.279,1162.25
637.411,1148.4
637.543,1138.0
637.675,1132.45
637.807,1125.5
637.938,1118.8
638.07,1121.95
638.202,1118.35
638.334,1116.35
638.466,1116.75
638.598,1117.3
638.73,1111.95
638.862,1118.25
638.993,1113.8
639.125,1115.0
639.257,1119.7
639.389,1118.2
639.521,1117.95
639.653,1120.1
639.784,1116.05
639.916,1118.7
640.048,1116.4
640.18,1112.9
640.312,1119.5
640.443,1116.0
640.575,1118.5
640.707,1117.2
640.839,1117.5
640.971,1116.5
641.103,1119.25
641.234,1116.9
641.366,1125.0
641.498,1123.45
641.63,1123.1
641.761,1123.7
641.893,1125.45
642.025,1125.8
642.157,1135.35
642.289,1138.4
642.42,1132.85
642.552,1135.5
642.684,1133.0
642.816,1128.15
642.947,1129.85
643.079,1123.55
643.211,1124.75
643.343,1125.65
643.474,1126.5
643.606,1131.3
643.738,1124.45
643.87,1123.15
644.001,1123.95
644.133,1122.35
644.265,1119.25
644.397,1122.05
644.528,1123.7
644.66,1127.85
644.792,1125.75
644.923,1127.25
645.055,1122.85
645.187,1125.2
645.319,1123.1
645.45,1125.75
645.582,1131.6
645.714,1124.9
645.845,1121.65
645.977,1128.8
646.109,1126.35
646.24,1131.05
646.372,1135.25
646.504,1132.15
646.635,1133.9
646.767,1130.95
646.899,1132.2
647.03,1137.1
647.162,1133.9
647.294,1139.55
647.425,1133.3
647.557,1134.55
647.689,1138.5
647.82,1142.05
647.952,1138.1
648.084,1138.75
648.215,1133.95
648.347,1138.1
648.479,1133.9
648.61,1135.8
648.742,1137.85
648.874,1137.15
649.005,1138.7
649.137,1132.35
649.268,1134.85
649.4,1130.5
649.532,1138.8
649.663,1134.0
649.795,1135.8
649.927,1139.9
650.058,1137.75
650.19,1138.9
650.321,1135.8
650.453,1136.9
650.585,1133.75
650.716,1138.3
650.848,1133.15
650.979,1137.7
651.111,1141.8
651.243,1141.65
651.374,1139.75
651.506,1139.45
651.637,1139.8
651.769,1140.9
651.9,1135.3
652.032,1137.85
652.164,1141.25
652.295,1142.75
652.427,1140.4
652.558,1142.3
652.69,1145.65
652.821,1144.75
652.953,1140.1
653.084,1142.45
653.216,1143.3
653.348,1145.6
653.479,1149.45
653.611,1144.85
653.742,1144.45
653.874,1146.55
654.005,1148.05
654.137,1144.7
654.268,1144.15
654.4,1147.2
654.531,1141.85
654.663,1144.1
654.794,1145.05
654.926,1141.4
655.057,1142.0
655.189,1146.85
655.32,1144.25
655.452,1145.15
655.583,1149.8
655.715,1146.6
655.846,1146.8
655.978,1145.3
656.109,1147.6
656.241,1147.85
656.372,1141.4
656.504,1148.2
656.635,1144.8
656.767,1150.6
656.898,1148.25
657.03,1149.7
657.161,1149.75
657.293,1150.15
657.424,1148.2
657.556,1146.9
657.687,1144.5
657.819,1148.15
657.95,1143.05
658.082,1152.4
658.213,1144.95
658.345,1156.05
658.476,1149.4
658.607,1150.1
658.739,1152.65
658.87,1150.5
659.002,1149.7
659.133,1147.0
659.265,1148.45
659.396,1155.15
659.528,1150.25
659.659,1147.35
659.79,1156.7
659.922,1152.1
660.053,1156.65
660.185,1148.0
660.316,1146.35
660.448,1149.85
660.579,1158.1
660.71,1151.95
660.842,1151.05
660.973,1145.6
661.105,1145.15
661.236,1152.5
661.367,1149.6
661.499,1149.35
661.63,1146.0
661.762,1146.85
661.893,1147.75
662.024,1145.45
662.156,1150.95
662.287,1143.4
662.419,1146.8
662.55,1145.4
662.681,1144.8
662.813,1147.9
662.944,1149.65
663.076,1145.6