File: spectra/VLFR_08-PLA_bio_Raman_e6e25c18.csv
nm,Intensity
528.626,1862.1
528.795,1862.0
528.963,1861.9
529.132,1861.2
529.3,1861.5
529.469,1861.1
529.637,1861.9
529.806,1862.0
529.974,1860.9
530.143,1861.3
530.311,1864.3
530.48,1862.8
530.648,1860.7
530.816,1862.6
530.985,1862.5
531.153,1864.2
531.322,1868.7
531.49,1869.1
531.658,1915.5
531.827,2529.4
531.995,4497.3
532.164,4637.2
532.332,2241.2
532.5,1867.2
532.669,1864.8
532.837,1863.8
533.006,1866.1
533.174,1866.3
533.342,1869.1
533.511,1905.5
533.679,2134.0
533.847,2590.1
534.016,2842.4
534.184,2894.9
534.352,2795.3
534.521,2723.0
534.689,2690.9
534.857,2621.1
535.025,2612.0
535.194,2577.8
535.362,2554.8
535.53,2499.4
535.699,2461.1
535.867,2428.6
536.035,2413.3
536.203,2414.9
536.372,2465.8
536.54,2467.4
536.708,2460.0
536.876,2410.0
537.044,2421.6
537.213,2384.7
537.381,2405.7
537.549,2434.1
537.717,2414.9
537.885,2413.2
538.054,2370.5
538.222,2351.2
538.39,2326.1
538.558,2338.3
538.726,2323.5
538.894,2331.3
539.063,2306.8
539.231,2308.4
539.399,2302.4
539.567,2286.0
539.735,2268.9
539.903,2267.9
540.071,2297.9
540.239,2311.2
540.408,2346.7
540.576,2370.2
540.744,2399.2
540.912,2391.1
541.08,2390.5
541.248,2396.4
541.416,2369.2
541.584,2348.4
541.752,2315.3
541.92,2312.4
542.088,2303.3
542.256,2317.1
542.424,2306.7
542.592,2318.1
542.76,2327.6
542.928,2350.7
543.096,2408.3
543.264,2411.2
543.432,2484.7
543.6,2491.5
543.768,2540.0
543.936,2488.3
544.104,2481.3
544.272,2417.5
544.44,2367.2
544.608,2333.3
544.776,2339.3
544.944,2316.4
545.112,2306.9
545.28,2296.6
545.448,2291.2
545.616,2298.1
545.784,2296.2
545.951,2279.2
546.119,2276.2
546.287,2304.9
546.455,2303.1
546.623,2303.3
546.791,2313.5
546.959,2322.8
547.127,2316.9
547.294,2333.2
547.462,2330.2
547.63,2293.0
547.798,2309.8
547.966,2334.9
548.134,2330.4
548.301,2315.7
548.469,2324.2
548.637,2334.9
548.805,2338.9
548.972,2342.8
549.14,2332.0
549.308,2341.3
549.476,2345.6
549.644,2337.9
549.811,2335.5
549.979,2348.8
550.147,2338.2
550.315,2344.2
550.482,2358.6
550.65,2380.8
550.818,2382.6
550.985,2372.1
551.153,2388.9
551.321,2394.0
551.488,2406.3
551.656,2394.8
551.824,2405.5
551.991,2405.0
552.159,2439.1
552.327,2421.6
552.494,2405.6
552.662,2432.8
552.83,2429.7
552.997,2399.5
553.165,2405.5
553.333,2424.6
553.5,2386.7
553.668,2421.0
553.835,2462.7
554.003,2483.6
554.171,2450.4
554.338,2421.5
554.506,2430.7
554.673,2422.5
554.841,2398.0
555.008,2385.6
555.176,2394.1
555.343,2380.1
555.511,2359.9
555.679,2369.7
555.846,2374.3
556.014,2373.0
556.181,2381.9
556.349,2385.5
556.516,2374.4
556.684,2394.2
556.851,2409.3
557.018,2406.4
557.186,2456.3
557.353,2512.5
557.521,2589.3
557.688,2809.1
557.856,3100.2
558.023,3385.9
558.191,3259.1
558.358,2881.9
558.525,2663.9
558.693,2520.5
558.86,2526.4
559.028,2502.1
559.195,2516.4
559.362,2494.3
559.53,2467.6
559.697,2478.6
559.864,2445.7
560.032,2452.5
560.199,2458.6
560.366,2442.4
560.534,2430.6
560.701,2428.1
560.868,2453.4
561.036,2435.2
561.203,2427.9
561.37,2412.0
561.538,2415.9
561.705,2406.5
561.872,2432.4
562.039,2417.8
562.207,2431.5
562.374,2429.7
562.541,2448.8
562.708,2499.8
562.876,2547.6
563.043,2573.5
563.21,2657.9
563.377,2729.6
563.545,2722.9
563.712,2636.0
563.879,2591.1
564.046,2513.4
564.213,2501.4
564.38,2515.5
564.548,2538.3
564.715,2571.4
564.882,2627.8
565.049,2652.6
565.216,2663.3
565.383,2640.3
565.551,2643.6
565.718,2681.6
565.885,2795.5
566.052,2825.5
566.219,2838.6
566.386,2727.7
566.553,2619.1
566.72,2550.1
566.887,2504.1
567.054,2457.0
567.221,2482.1
567.388,2507.7
567.555,2480.8
567.722,2559.9
567.889,2559.7
568.057,2558.9
568.224,2532.8
568.391,2536.7
568.558,2526.6
568.725,2520.0
568.892,2518.4
569.058,2536.0
569.225,2552.9
569.392,2495.3
569.559,2526.4
569.726,2497.7
569.893,2507.5
570.06,2508.3
570.227,2507.6
570.394,2497.7
570.561,2507.2
570.728,2505.2
570.895,2526.1
571.062,2541.4
571.229,2569.3
571.395,2625.7
571.562,2701.9
571.729,2711.8
571.896,2682.9
572.063,2649.9
572.23,2643.6
572.397,2620.3
572.563,2621.3
572.73,2646.4
572.897,2607.4
573.064,2648.1
573.231,2615.6
573.397,2627.0
573.564,2620.4
573.731,2672.4
573.898,2620.0
574.064,2642.4
574.231,2632.2
574.398,2684.6
574.565,2671.4
574.731,2631.4
574.898,2594.9
575.065,2540.6
575.232,2529.0
575.398,2543.2
575.565,2530.9
575.732,2542.5
575.898,2573.4
576.065,2589.4
576.232,2704.2
576.398,2839.4
576.565,2995.5
576.732,3098.0
576.898,3060.1
577.065,2963.1
577.232,2783.9
577.398,2668.3
577.565,2612.0
577.731,2539.6
577.898,2538.8
578.065,2541.6
578.231,2521.6
578.398,2541.7
578.564,2521.4
578.731,2534.0
578.897,2531.0
579.064,2541.5
579.23,2525.3
579.397,2526.8
579.563,2544.5
579.73,2537.6
579.896,2552.8
580.063,2511.4
580.229,2545.7
580.396,2531.7
580.562,2520.6
580.729,2567.7
580.895,2531.1
581.062,2545.9
581.228,2521.5
581.395,2539.5
581.561,2542.2
581.728,2526.6
581.894,2555.5
582.06,2534.2
582.227,2525.6
582.393,2529.7
582.56,2522.3
582.726,2517.6
582.892,2556.0
583.059,2536.0
583.225,2540.7
583.391,2549.4
583.558,2540.0
583.724,2544.9
583.89,2543.8
584.057,2547.0
584.223,2541.0
584.389,2538.7
584.556,2542.6
584.722,2542.7
584.888,2544.1
585.054,2549.6
585.221,2532.1
585.387,2533.6
585.553,2552.4
585.719,2514.3
585.886,2563.5
586.052,2573.8
586.218,2576.5
586.384,2626.3
586.55,2688.8
586.717,2792.0
586.883,2858.8
587.049,2889.4
587.215,2943.7
587.381,3008.2
587.548,3006.7
587.714,2951.2
587.88,2779.2
588.046,2705.0
588.212,2617.2
588.378,2566.1
588.544,2567.4
588.71,2548.4
588.876,2546.4
589.043,2537.2
589.209,2515.6
589.375,2516.6
589.541,2514.9
589.707,2524.6
589.873,2497.1
590.039,2529.4
590.205,2533.4
590.371,2515.0
590.537,2528.5
590.703,2504.7
590.869,2521.3
591.035,2535.3
591.201,2516.6
591.367,2535.3
591.533,2522.6
591.699,2511.7
591.865,2506.0
592.031,2511.6
592.197,2535.4
592.363,2525.7
592.529,2525.6
592.694,2529.3
592.86,2514.8
593.026,2523.5
593.192,2505.4
593.358,2509.3
593.524,2530.5
593.69,2551.2
593.856,2509.2
594.021,2516.3
594.187,2504.0
594.353,2522.8
594.519,2500.7
594.685,2533.9
594.851,2518.2
595.016,2520.3
595.182,2531.5
595.348,2516.4
595.514,2498.3
595.68,2537.9
595.845,2526.0
596.011,2539.0
596.177,2524.4
596.342,2516.8
596.508,2525.6
596.674,2536.1
596.84,2533.7
597.005,2533.1
597.171,2516.7
597.337,2537.8
597.502,2495.2
597.668,2544.1
597.834,2516.9
597.999,2503.7
598.165,2509.6
598.331,2524.8
598.496,2497.7
598.662,2504.6
598.828,2520.0
598.993,2506.4
599.159,2549.5
599.324,2509.1
599.49,2518.0
599.656,2537.1
599.821,2506.9
599.987,2521.5
600.152,2532.8
600.318,2519.0
600.483,2490.4
600.649,2518.7
600.814,2520.5
600.98,2515.2
601.145,2519.5
601.311,2513.3
601.476,2536.6
601.642,2528.7
601.807,2517.5
601.973,2506.9
602.138,2537.2
602.304,2513.7
602.469,2507.8
602.635,2530.9
602.8,2523.8
602.965,2501.0
603.131,2519.5
603.296,2508.1
603.462,2512.1
603.627,2514.8
603.792,2546.4
603.958,2523.4
604.123,2517.4
604.288,2489.7
604.454,2534.4
604.619,2519.9
604.784,2498.3
604.95,2508.8
605.115,2501.8
605.28,2496.9
605.446,2494.4
605.611,2504.8
605.776,2493.6
605.941,2490.1
606.107,2518.5
606.272,2494.0
606.437,2505.1
606.602,2508.9
606.767,2524.6
606.933,2515.1
607.098,2511.7
607.263,2523.4
607.428,2505.5
607.593,2509.1
607.759,2512.2
607.924,2498.7
608.089,2522.4
608.254,2516.1
608.419,2501.8
608.584,2488.9
608.749,2524.7
608.915,2514.9
609.08,2486.3
609.245,2493.3
609.41,2496.3
609.575,2516.7
609.74,2505.2
609.905,2535.7
610.07,2499.0
610.235,2504.4
610.4,2499.4
610.565,2513.3
610.73,2497.0
610.895,2512.6
611.06,2534.2
611.225,2494.2
611.39,2497.3
611.555,2496.6
611.72,2522.3
611.885,2503.1
612.05,2486.9
612.215,2491.8
612.38,2498.2
612.545,2509.5
612.71,2482.4
612.875,2489.8
613.04,2501.6
613.204,2515.7
613.369,2493.5
613.534,2498.1
613.699,2499.3
613.864,2465.8
614.029,2505.8
614.194,2484.3
614.358,2498.8
614.523,2506.4
614.688,2495.3
614.853,2509.1
615.018,2493.4
615.182,2517.0
615.347,2492.6
615.512,2494.1
615.677,2516.5
615.841,2476.7
616.006,2482.4
616.171,2517.3
616.336,2506.8
616.5,2495.3
616.665,2526.1
616.83,2504.1
616.994,2484.5
617.159,2513.2
617.324,2515.5
617.489,2468.9
617.653,2497.3
617.818,2506.7
617.982,2492.1
618.147,2486.9
618.312,2497.1
618.476,2461.2
618.641,2494.0
618.805,2489.7
618.97,2479.5
619.135,2480.2
619.299,2478.2
619.464,2467.1
619.628,2491.5
619.793,2487.0
619.957,2507.1
620.122,2470.3
620.286,2487.8
620.451,2474.1
620.615,2494.4
620.78,2469.5
620.944,2493.7
621.109,2490.4
621.273,2477.6
621.438,2479.5
621.602,2500.2
621.767,2478.3
621.931,2485.5
622.095,2491.9
622.26,2530.5
622.424,2533.6
622.589,2548.1
622.753,2587.0
622.917,2584.2
623.082,2592.7
623.246,2603.5
623.41,2548.0
623.575,2554.8
623.739,2529.2
623.903,2524.1
624.068,2531.4
624.232,2499.2
624.396,2504.2
624.561,2487.3
624.725,2471.6
624.889,2489.5
625.053,2484.5
625.218,2488.2
625.382,2445.8
625.546,2467.9
625.71,2480.6
625.875,2454.1
626.039,2468.4
626.203,2469.4
626.367,2475.0
626.531,2463.9
626.695,2490.7
626.86,2486.9
627.024,2468.1
627.188,2476.9
627.352,2507.9
627.516,2488.7
627.68,2518.2
627.844,2568.7
628.008,2661.5
628.172,2846.2
628.337,3010.0
628.501,3052.9
628.665,3039.6
628.829,2928.4
628.993,2914.0
629.157,2908.1
629.321,2896.1
629.485,2952.6
629.649,2916.2
629.813,2932.0
629.977,2977.4
630.141,3020.6
630.305,3167.8
630.469,3427.1
630.633,3986.8
630.797,4830.4
630.96,5679.2
631.124,5876.9
631.288,5397.2
631.452,4579.8
631.616,4054.1
631.78,3691.8
631.944,3483.7
632.108,3403.9
632.272,3231.6
632.435,3257.8
632.599,3269.3
632.763,3478.9
632.927,3678.3
633.091,3925.0
633.254,3948.6
633.418,3872.6
633.582,3810.8
633.746,3550.5
633.91,3273.8
634.073,3118.4
634.237,2869.4
634.401,2775.6
634.564,2664.8
634.728,2561.4
634.892,2564.1
635.056,2526.4
635.219,2466.4
635.383,2471.4
635.547,2449.0
635.71,2449.8
635.874,2456.0
636.038,2412.0
636.201,2408.1
636.365,2428.7
636.528,2419.9
636.692,2419.6
636.856,2391.7
637.019,2402.5
637.183,2397.6
637.346,2396.9
637.51,2398.0
637.673,2390.7
637.837,2387.6
638.0,2371.2
638.164,2392.4
638.327,2383.7
638.491,2389.8
638.654,2370.2
638.818,2357.2
638.981,2353.8
639.145,2365.8
639.308,2370.2
639.472,2382.4
639.635,2345.4
639.799,2388.0
639.962,2376.4
640.125,2357.0
640.289,2367.2
640.452,2374.9
640.616,2364.1
640.779,2341.7
640.942,2351.9
641.106,2371.3
641.269,2361.5
641.432,2386.9
641.596,2357.0
641.759,2347.2
641.922,2362.5
642.085,2353.5
642.249,2351.4
642.412,2347.2
642.575,2353.6
642.738,2346.0
642.902,2323.8
643.065,2358.5
643.228,2343.5
643.391,2335.5
643.555,2352.6
643.718,2327.2
643.881,2316.4
644.044,2307.9
644.207,2327.9
644.37,2320.9
644.534,2321.7
644.697,2302.8
644.86,2307.4
645.023,2311.9
645.186,2295.9
645.349,2306.6
645.512,2308.2
645.675,2304.3
645.838,2314.2
646.001,2308.9
646.164,2301.0
646.327,2314.2
646.49,2289.1
646.653,2288.8
646.816,2275.7
646.979,2301.0
647.142,2293.8
647.305,2285.6
647.468,2292.8
647.631,2274.7
647.794,2282.8
647.957,2284.1
648.12,2293.3
648.283,2264.3
648.446,2268.5
648.609,2264.1
648.772,2278.6
648.935,2283.7
649.098,2271.5
649.26,2264.9
649.423,2251.5
649.586,2242.5
649.749,2264.1
649.912,2253.7
650.075,2248.7
650.237,2271.2
650.4,2256.3
650.563,2252.3
650.726,2254.3
650.888,2248.6
651.051,2250.7
651.214,2282.5
651.377,2244.5
651.539,2248.0
651.702,2247.3
651.865,2245.4
652.027,2230.0
652.19,2256.9
652.353,2237.7
652.515,2239.3
652.678,2245.0
652.841,2222.6
653.003,2229.1
653.166,2227.6
653.329,2247.4
653.491,2228.2
653.654,2232.2
653.816,2230.1
653.979,2231.2
654.142,2215.2
654.304,2219.2
654.467,2203.2
654.629,2207.5
654.792,2215.0
654.954,2217.4
655.117,2217.4
655.279,2217.1
655.442,2196.2
655.604,2215.4
655.767,2212.3
655.929,2209.5
656.091,2199.2
656.254,2178.5
656.416,2199.3
656.579,2200.8
656.741,2201.7
656.904,2191.3
657.066,2206.1
657.228,2207.1
657.391,2190.7
657.553,2172.1
657.715,2202.2
657.878,2199.7
658.04,2188.2
658.202,2180.7
658.365,2177.2
658.527,2172.6
658.689,2187.5
658.851,2171.8
659.014,2160.7
659.176,2182.7
659.338,2183.7
659.5,2166.4
659.663,2166.7
659.825,2157.9
659.987,2177.1
660.149,2167.3
660.311,2156.0
660.474,2167.8
660.636,2167.0
660.798,2152.9
660.96,2151.2
661.041,2155.4