File: spectra/VLFR_08-PLA_nobio_Raman_46733898.csv
cm-1,Intensity
-123.878,1853.65
-117.855,1854.2
-111.836,1854.35
-105.821,1854.45
-99.8104,1853.5
-93.8036,1853.7
-87.8007,1855.8
-81.8019,1855.5
-75.807,1854.75
-69.8161,1853.6
-63.8293,1854.45
-57.8464,1855.2
-51.8675,1854.35
-45.8926,1855.6
-39.9216,1854.05
-33.9547,1856.2
-27.9917,1857.4
-22.0326,1859.3
-16.0776,1884.4
-10.1265,2230.45
-4.17932,3014.8
1.76388,3247.05
7.70313,2001.25
13.6384,1857.25
19.5698,1855.4
25.4972,1854.8
31.4207,1855.5
37.3403,1856.35
43.256,1859.15
49.1677,1882.7
55.0755,2024.25
60.9794,2269.65
66.8794,2431.9
72.7754,2456.25
78.6676,2405.2
84.5559,2384.1
90.4402,2349.45
96.3207,2343.1
102.197,2327.4
108.07,2311.15
113.939,2315.55
119.804,2298.8
125.665,2269.1
131.522,2245.35
137.375,2244.45
143.225,2240.85
149.07,2262.0
154.912,2265.45
160.75,2268.55
166.584,2239.55
172.414,2233.9
178.241,2227.9
184.063,2251.0
189.882,2246.4
195.697,2250.95
201.508,2243.25
207.315,2238.05
213.119,2224.5
218.918,2210.35
224.714,2217.5
230.506,2232.4
236.294,2236.0
242.078,2249.5
247.859,2252.5
253.636,2230.15
259.409,2221.85
265.178,2203.55
270.943,2216.45
276.705,2211.35
282.463,2229.85
288.217,2258.7
293.967,2244.65
299.713,2254.6
305.456,2270.2
311.195,2271.95
316.93,2261.55
322.662,2254.65
328.389,2248.0
334.113,2250.7
339.834,2252.15
345.55,2243.6
351.263,2246.35
356.972,2243.35
362.677,2263.75
368.379,2272.3
374.077,2278.95
379.771,2296.9
385.461,2316.5
391.148,2342.05
396.831,2340.6
402.51,2354.7
408.186,2349.45
413.858,2341.95
419.526,2299.7
425.19,2280.7
430.851,2269.8
436.508,2249.6
442.162,2257.4
447.811,2249.3
453.458,2245.1
459.1,2236.3
464.739,2246.5
470.374,2249.55
476.005,2252.3
481.633,2259.4
487.257,2250.85
492.878,2250.65
498.494,2253.5
504.107,2253.6
509.717,2257.45
515.323,2260.9
520.925,2250.0
526.524,2251.75
532.119,2271.05
537.71,2278.1
543.298,2272.1
548.882,2265.3
554.462,2278.1
560.039,2278.6
565.613,2282.7
571.182,2278.2
576.748,2280.95
582.311,2285.15
587.87,2293.15
593.425,2275.7
598.977,2283.65
604.525,2297.15
610.069,2290.9
615.61,2292.95
621.148,2304.55
626.682,2296.05
632.212,2308.6
637.739,2316.15
643.262,2319.6
648.781,2323.1
654.297,2331.25
659.81,2335.85
665.319,2341.05
670.824,2337.1
676.326,2338.1
681.824,2338.65
687.319,2341.1
692.81,2339.65
698.298,2345.95
703.782,2339.4
709.262,2344.45
714.739,2340.95
720.213,2330.1
725.683,2332.2
731.15,2355.35
736.613,2356.1
742.072,2384.9
747.528,2377.45
752.981,2372.3
758.43,2357.1
763.875,2359.95
769.317,2356.4
774.756,2343.65
780.191,2356.35
785.623,2344.25
791.051,2339.5
796.475,2338.55
801.897,2337.3
807.314,2343.6
812.729,2351.55
818.139,2351.2
823.547,2344.95
828.951,2340.45
834.351,2352.45
839.748,2368.6
845.142,2408.9
850.532,2415.2
855.918,2467.9
861.302,2577.9
866.681,2717.6
872.058,2861.05
877.431,2780.05
882.8,2613.8
888.166,2484.85
893.529,2436.95
898.888,2418.3
904.244,2425.65
909.596,2436.1
914.945,2400.0
920.291,2412.2
925.633,2394.1
930.972,2406.75
936.308,2397.9
941.64,2391.25
946.968,2376.7
952.294,2392.25
957.615,2396.25
962.934,2394.75
968.249,2393.95
973.561,2383.9
978.869,2366.15
984.174,2383.4
989.476,2405.65
994.774,2381.55
1000.07,2392.55
1005.36,2391.3
1010.65,2383.95
1015.93,2408.55
1021.22,2416.8
1026.49,2440.85
1031.77,2475.8
1037.04,2509.5
1042.31,2544.65
1047.57,2558.05
1052.83,2497.8
1058.09,2465.75
1063.35,2434.3
1068.6,2431.4
1073.85,2452.3
1079.09,2459.1
1084.33,2461.9
1089.57,2501.45
1094.81,2508.8
1100.04,2508.1
1105.27,2504.55
1110.49,2493.95
1115.71,2515.65
1120.93,2555.9
1126.15,2597.7
1131.36,2606.0
1136.57,2536.4
1141.77,2502.4
1146.98,2449.5
1152.18,2431.3
1157.37,2410.2
1162.56,2430.2
1167.75,2446.15
1172.94,2436.15
1178.12,2461.85
1183.3,2457.05
1188.48,2477.85
1193.65,2453.8
1198.82,2445.2
1203.99,2443.7
1209.15,2454.2
1214.31,2443.4
1219.46,2442.35
1224.62,2454.45
1229.77,2437.65
1234.92,2429.1
1240.06,2439.05
1245.2,2456.7
1250.34,2448.8
1255.47,2439.15
1260.6,2441.2
1265.73,2463.3
1270.85,2442.25
1275.97,2463.85
1281.09,2451.95
1286.21,2476.9
1291.32,2520.4
1296.43,2534.7
1301.53,2568.15
1306.63,2550.25
1311.73,2517.0
1316.83,2495.35
1321.92,2518.9
1327.01,2518.25
1332.1,2494.45
1337.18,2507.55
1342.26,2507.4
1347.34,2510.85
1352.41,2531.5
1357.48,2515.25
1362.55,2506.7
1367.61,2509.05
1372.67,2496.85
1377.73,2517.1
1382.78,2521.75
1387.84,2520.85
1392.88,2501.25
1397.93,2467.25
1402.97,2471.75
1408.01,2453.7
1413.05,2464.0
1418.08,2460.5
1423.11,2463.0
1428.14,2495.65
1433.16,2502.9
1438.18,2537.3
1443.2,2605.5
1448.21,2689.75
1453.22,2733.25
1458.23,2722.1
1463.23,2668.1
1468.23,2584.0
1473.23,2500.7
1478.23,2492.5
1483.22,2461.65
1488.21,2479.55
1493.2,2463.4
1498.18,2456.8
1503.16,2466.8
1508.14,2472.15
1513.11,2447.6
1518.08,2455.1
1523.05,2453.05
1528.01,2484.85
1532.97,2449.1
1537.93,2470.9
1542.89,2452.75
1547.84,2462.1
1552.79,2473.5
1557.73,2459.6
1562.68,2473.65
1567.62,2466.85
1572.56,2466.3
1577.49,2457.35
1582.42,2473.75
1587.35,2463.8
1592.27,2465.15
1597.19,2456.7
1602.11,2488.95
1607.03,2469.2
1611.94,2483.7
1616.85,2461.25
1621.76,2478.95
1626.66,2483.85
1631.56,2477.15
1636.46,2471.65
1641.36,2481.0
1646.25,2468.25
1651.14,2469.75
1656.02,2479.7
1660.9,2477.95
1665.78,2485.45
1670.66,2484.0
1675.54,2464.4
1680.41,2485.95
1685.27,2492.85
1690.14,2474.0
1695.0,2474.4
1699.86,2482.6
1704.71,2484.4
1709.57,2481.05
1714.42,2480.5
1719.26,2486.35
1724.11,2452.65
1728.95,2484.35
1733.79,2505.9
1738.62,2520.95
1743.46,2571.8
1748.28,2612.9
1753.11,2643.9
1757.93,2685.05
1762.75,2694.15
1767.57,2763.05
1772.39,2740.65
1777.2,2690.2
1782.01,2635.4
1786.81,2569.6
1791.62,2538.45
1796.41,2505.15
1801.21,2478.4
1806.01,2487.5
1810.8,2495.3
1815.59,2479.35
1820.37,2473.6
1825.15,2474.4
1829.93,2451.3
1834.71,2468.8
1839.48,2471.7
1844.25,2476.4
1849.02,2460.75
1853.79,2461.8
1858.55,2490.15
1863.31,2458.7
1868.06,2460.4
1872.82,2461.15
1877.57,2473.3
1882.31,2469.85
1887.06,2465.6
1891.8,2471.3
1896.54,2469.3
1901.28,2482.1
1906.01,2476.2
1910.74,2466.9
1915.47,2493.5
1920.19,2467.9
1924.91,2491.2
1929.63,2462.0
1934.35,2476.1
1939.06,2471.7
1943.77,2452.35
1948.48,2472.15
1953.19,2456.85
1957.89,2478.55
1962.59,2460.25
1967.28,2467.05
1971.98,2457.15
1976.67,2451.6
1981.35,2458.15
1986.04,2483.6
1990.72,2453.65
1995.4,2469.9
2000.08,2461.1
2004.75,2473.5
2009.42,2474.65
2014.09,2465.45
2018.75,2466.7
2023.42,2471.1
2028.08,2472.55
2032.73,2473.8
2037.39,2467.45
2042.04,2462.45
2046.69,2470.75
2051.33,2455.3
2055.97,2459.7
2060.61,2473.05
2065.25,2471.1
2069.88,2446.55
2074.52,2468.95
2079.15,2467.9
2083.77,2477.45
2088.39,2462.9
2093.01,2476.05
2097.63,2459.45
2102.25,2462.1
2106.86,2442.35
2111.47,2473.1
2116.08,2480.7
2120.68,2461.85
2125.28,2445.1
2129.88,2455.8
2134.47,2455.8
2139.07,2449.0
2143.66,2471.15
2148.24,2464.65
2152.83,2466.1
2157.41,2447.65
2161.99,2464.2
2166.57,2466.9
2171.14,2445.15
2175.71,2460.9
2180.28,2452.8
2184.84,2463.0
2189.41,2444.65
2193.97,2458.3
2198.52,2460.2
2203.08,2460.05
2207.63,2450.75
2212.18,2442.25
2216.73,2449.55
2221.27,2446.15
2225.81,2457.85
2230.35,2432.15
2234.89,2437.15
2239.42,2442.55
2243.95,2462.25
2248.48,2433.0
2253.0,2445.1
2257.52,2442.75
2262.04,2450.95
2266.56,2446.35
2271.07,2428.85
2275.58,2436.8
2280.09,2431.25
2284.6,2441.7
2289.1,2431.8
2293.6,2428.6
2298.1,2421.1
2302.6,2432.1
2307.09,2438.55
2311.58,2435.5
2316.07,2433.95
2320.55,2446.05
2325.03,2429.95
2329.51,2438.15
2333.99,2426.8
2338.46,2437.8
2342.93,2408.5
2347.4,2422.2
2351.87,2422.75
2356.33,2415.15
2360.79,2412.6
2365.25,2413.85
2369.71,2435.85
2374.16,2424.55
2378.61,2409.1
2383.06,2446.75
2387.5,2405.75
2391.94,2414.95
2396.38,2401.1
2400.82,2407.9
2405.26,2429.7
2409.69,2416.95
2414.12,2419.75
2418.54,2413.2
2422.97,2421.55
2427.39,2413.15
2431.81,2417.15
2436.22,2419.5
2440.64,2412.95
2445.05,2413.05
2449.46,2420.35
2453.86,2397.8
2458.27,2390.5
2462.67,2412.25
2467.06,2397.1
2471.46,2400.5
2475.85,2419.45
2480.24,2408.2
2484.63,2397.65
2489.02,2414.3
2493.4,2405.35
2497.78,2400.35
2502.16,2407.15
2506.53,2413.1
2510.9,2414.85
2515.27,2410.85
2519.64,2405.2
2524.0,2395.1
2528.37,2392.05
2532.73,2392.05
2537.08,2404.85
2541.44,2395.8
2545.79,2400.75
2550.14,2396.3
2554.48,2412.45
2558.83,2381.5
2563.17,2408.95
2567.51,2391.95
2571.85,2398.55
2576.18,2402.25
2580.51,2379.95
2584.84,2398.8
2589.17,2397.3
2593.49,2401.05
2597.81,2399.15
2602.13,2397.7
2606.45,2383.05
2610.76,2393.95
2615.07,2383.75
2619.38,2374.25
2623.69,2377.75
2627.99,2399.6
2632.29,2375.6
2636.59,2371.6
2640.89,2392.8
2645.18,2398.05
2649.47,2370.25
2653.76,2380.4
2658.05,2384.45
2662.33,2390.75
2666.61,2380.5
2670.89,2383.1
2675.17,2388.4
2679.44,2383.5
2683.71,2387.45
2687.98,2374.4
2692.25,2370.2
2696.51,2372.35
2700.77,2373.55
2705.03,2375.9
2709.29,2370.2
2713.54,2390.9
2717.79,2390.7
2722.04,2379.2
2726.29,2412.3
2730.53,2414.0
2734.77,2432.75
2739.01,2421.7
2743.25,2422.4
2747.48,2417.75
2751.71,2416.35
2755.94,2394.25
2760.17,2394.7
2764.39,2406.35
2768.61,2398.35
2772.83,2385.9
2777.05,2383.2
2781.27,2374.7
2785.48,2372.85
2789.69,2371.75
2793.89,2380.55
2798.1,2370.85
2802.3,2366.8
2806.5,2359.4
2810.7,2350.8
2814.89,2369.8
2819.09,2367.6
2823.28,2360.45
2827.46,2387.35
2831.65,2363.35
2835.83,2366.35
2840.01,2370.6
2844.19,2352.65
2848.37,2367.5
2852.54,2371.7
2856.71,2371.55
2860.88,2374.65
2865.05,2419.25
2869.21,2465.55
2873.37,2551.2
2877.53,2664.1
2881.69,2673.15
2885.84,2658.1
2889.99,2639.95
2894.14,2596.4
2898.29,2595.7
2902.43,2592.05
2906.58,2604.2
2910.72,2607.35
2914.85,2645.85
2918.99,2625.15
2923.12,2678.8
2927.25,2740.15
2931.38,2880.55
2935.5,3207.45
2939.63,3718.25
2943.75,4234.15
2947.87,4291.65
2951.98,3975.95
2956.1,3577.85
2960.21,3230.05
2964.32,3030.15
2968.42,2951.1
2972.53,2888.65
2976.63,2802.9
2980.73,2813.25
2984.83,2843.45
2988.92,2921.75
2993.01,3049.75
2997.1,3182.35
3001.19,3224.3
3005.28,3158.3
3009.36,3092.2
3013.44,2943.0
3017.52,2859.8
3021.6,2728.45
3025.67,2608.0
3029.74,2515.7
3033.81,2484.8
3037.88,2425.75
3041.94,2407.3
3046.01,2401.95
3050.07,2370.05
3054.12,2350.5
3058.18,2362.45
3062.23,2333.45
3066.28,2328.95
3070.33,2321.3
3074.38,2331.4
3078.42,2335.05
3082.46,2340.5
3086.5,2315.35
3090.54,2328.3
3094.57,2315.65
3098.6,2309.95
3102.63,2311.9
3106.66,2319.75
3110.69,2311.2
3114.71,2308.7
3118.73,2309.75
3122.75,2322.05
3126.77,2310.75
3130.78,2298.55
3134.79,2309.8
3138.8,2299.95
3142.81,2302.8
3146.81,2297.95
3150.82,2299.4
3154.82,2301.65
3158.81,2301.65
3162.81,2288.45
3166.8,2290.7
3170.79,2308.0
3174.78,2316.75
3178.77,2278.8
3182.75,2283.65
3186.74,2291.65
3190.72,2287.6
3194.69,2289.35
3198.67,2292.45
3202.64,2292.25
3206.61,2279.15
3210.58,2285.0
3214.55,2291.85
3218.51,2295.6
3222.47,2292.4
3226.43,2294.75
3230.39,2281.3
3234.35,2278.95
3238.3,2306.7
3242.25,2279.45
3246.2,2275.95
3250.15,2261.9
3254.09,2275.55
3258.03,2273.1
3261.97,2276.15
3265.91,2265.95
3269.84,2265.8
3273.78,2262.15
3277.71,2261.0
3281.64,2246.55
3285.56,2247.4
3289.49,2254.95
3293.41,2258.05
3297.33,2253.4
3301.25,2245.0
3305.16,2259.55
3309.07,2240.3
3312.99,2247.85
3316.89,2235.2
3320.8,2228.8
3324.7,2233.05
3328.61,2239.5
3332.51,2241.4
3336.4,2223.85
3340.3,2228.15
3344.19,2232.15
3348.08,2229.9
3351.97,2222.0
3355.86,2232.85
3359.74,2236.7
3363.63,2221.4
3367.51,2215.4
3371.39,2216.6
3375.26,2218.95
3379.13,2227.35
3383.01,2210.85
3386.88,2217.7
3390.74,2215.2
3394.61,2211.6
3398.47,2211.25
3402.33,2218.35
3406.19,2211.25
3410.05,2200.6
3413.9,2202.85
3417.75,2224.95
3421.6,2212.9
3425.45,2211.5
3429.3,2200.4
3433.14,2203.45
3436.98,2212.35
3440.82,2203.65
3444.66,2196.8
3448.49,2191.0
3452.32,2199.6
3456.15,2205.6
3459.98,2198.25
3463.81,2199.3
3467.63,2185.75
3471.46,2194.25
3475.28,2195.0
3479.09,2185.8
3482.91,2190.45
3486.72,2184.65
3490.53,2184.65
3494.34,2174.45
3498.15,2172.75
3501.96,2176.45
3505.76,2169.7
3509.56,2166.7
3513.36,2174.2
3517.15,2176.45
3520.95,2163.75
3524.74,2164.3
3528.53,2163.25
3532.32,2168.0
3536.11,2169.4
3539.89,2178.0
3543.67,2182.35
3547.45,2155.3
3551.23,2164.4
3555.0,2144.8
3558.78,2137.9
3562.55,2164.1
3566.32,2157.6
3570.09,2155.15
3573.85,2146.85
3577.61,2170.15
3581.37,2151.55
3585.13,2152.35
3588.89,2135.95
3592.64,2143.4
3596.4,2157.25
3600.15,2146.6
3603.9,2138.0
3607.64,2138.5
3611.39,2130.4
3615.13,2127.7
3618.87,2148.35
3622.61,2136.05
3626.34,2121.7
3630.08,2131.15
3633.81,2135.4
3637.54,2120.4
3641.27,2120.6
3644.99,2143.45
3648.72,2120.2
3652.44,2125.05
3656.16,2129.35
3659.87,2122.45
3663.59,2117.3
3665.45,2119.65