File: spectra/VLFR_07-PET_nobio_Raman_8feda554.csv
nm,Intensity
791.75,11228.5
792.024,11234.5
792.298,10984.2
792.572,10813.8
792.846,10568.0
793.12,10535.6
793.394,10455.0
793.668,10407.7
793.942,10337.6
794.215,10131.7
794.489,10078.7
794.763,10191.6
795.037,10159.0
795.311,10110.0
795.585,10079.2
795.859,10069.7
796.133,9959.2
796.407,10006.5
796.681,10106.1
796.955,10091.3
797.228,10087.1
797.502,10014.3
797.776,10060.2
798.05,10003.2
798.324,9997.25
798.598,10002.2
798.871,10055.5
799.145,9852.85
799.419,9938.7
799.693,9923.85
799.967,10016.7
800.241,9931.6
800.514,9888.35
800.788,9896.6
801.062,9845.2
801.336,9855.75
801.61,9794.1
801.883,9850.45
802.157,9851.35
802.431,9783.5
802.705,9723.45
802.978,9728.9
803.252,9698.3
803.526,9556.35
803.8,9525.45
804.073,9568.3
804.347,9546.6
804.621,9570.85
804.894,9610.25
805.168,9517.2
805.442,9403.0
805.715,9354.3
805.989,9333.8
806.263,9320.5
806.536,9319.75
806.81,9247.1
807.084,9290.55
807.357,9362.25
807.631,9233.2
807.905,9217.35
808.178,9291.55
808.452,9202.45
808.726,9287.35
808.999,9232.2
809.273,9091.65
809.546,9199.2
809.82,9220.75
810.094,9154.75
810.367,9186.35
810.641,9179.85
810.914,9065.35
811.188,8983.0
811.461,8979.05
811.735,9033.45
812.008,9048.8
812.282,8992.8
812.556,9054.95
812.829,8998.0
813.103,8936.65
813.376,8915.3
813.65,8939.9
813.923,8861.1
814.197,8873.65
814.47,8780.65
814.744,8895.05
815.017,8836.55
815.29,8764.2
815.564,8880.8
815.837,8832.15
816.111,8773.1
816.384,8776.45
816.658,8800.4
816.931,8691.6
817.205,8610.15
817.478,8611.15
817.751,8772.4
818.025,8645.35
818.298,8628.95
818.572,8605.45
818.845,8628.5
819.118,8611.65
819.392,8643.4
819.665,8532.4
819.938,8486.2
820.212,8518.25
820.485,8467.45
820.758,8431.3
821.032,8492.7
821.305,8402.2
821.578,8375.9
821.852,8358.45
822.125,8406.9
822.398,8392.15
822.672,8439.85
822.945,8371.95
823.218,8246.75
823.491,8271.3
823.765,8177.75
824.038,8189.8
824.311,8135.2
824.585,8162.2
824.858,8229.75
825.131,8326.95
825.404,8462.65
825.677,8413.3
825.951,8374.95
826.224,8120.55
826.497,8046.4
826.77,8122.6
827.043,8025.8
827.317,8035.3
827.59,8027.9
827.863,7948.15
828.136,7998.0
828.409,7893.35
828.682,7845.65
828.956,7883.95
829.229,7928.75
829.502,7824.85
829.775,7847.3
830.048,7908.4
830.321,7945.95
830.594,7904.55
830.867,7878.3
831.14,7802.3
831.413,7734.15
831.687,7700.9
831.96,7670.1
832.233,7581.6
832.506,7656.5
832.779,7624.4
833.052,7666.7
833.325,7665.7
833.598,7618.75
833.871,7591.25
834.144,7554.65
834.417,7503.4
834.69,7420.85
834.963,7398.7
835.236,7452.15
835.509,7480.6
835.782,7442.7
836.055,7421.2
836.328,7433.15
836.601,7482.2
836.874,7517.55
837.147,7463.95
837.419,7524.6
837.692,7520.95
837.965,7452.85
838.238,7397.7
838.511,7355.75
838.784,7319.3
839.057,7400.3
839.33,7414.05
839.603,7359.9
839.876,7324.95
840.148,7380.15
840.421,7467.95
840.694,7574.85
840.967,7567.95
841.24,7551.25
841.513,7440.8
841.785,7366.65
842.058,7350.55
842.331,7336.7
842.604,7262.0
842.877,7195.75
843.149,7220.1
843.422,7257.35
843.695,7117.5
843.968,7057.75
844.24,7052.95
844.513,7009.05
844.786,7046.95
845.059,6994.35
845.331,6916.4
845.604,6941.35
845.877,6904.9
846.15,6787.7
846.422,6780.1
846.695,6838.8
846.968,6873.5
847.24,6849.0
847.513,6834.95
847.786,6824.15
848.058,6765.85
848.331,6821.7
848.604,6845.35
848.876,6813.65
849.149,6751.55
849.421,6740.0
849.694,6695.9
849.967,6702.6
850.239,6679.7
850.512,6705.85
850.784,6713.0
851.057,6757.5
851.33,6748.75
851.602,6663.7
851.875,6667.9
852.147,6693.3
852.42,6651.9
852.692,6687.3
852.965,6725.55
853.237,6723.3
853.51,6678.45
853.782,6658.05
854.055,6606.55
854.327,6588.8
854.6,6584.05
854.872,6568.75
855.145,6504.5
855.417,6523.65
855.69,6486.9
855.962,6515.05
856.235,6561.05
856.507,6544.95
856.779,6363.4
857.052,6459.8
857.324,6586.85
857.597,6577.2
857.869,6561.55
858.142,6587.45
858.414,6641.0
858.686,6613.95
858.959,6576.55
859.231,6583.9
859.503,6659.2
859.776,6634.8
860.048,6556.9
860.32,6572.7
860.593,6579.5
860.865,6474.05
861.137,6421.35
861.41,6406.6
861.682,6324.7
861.954,6379.2
862.226,6328.35
862.499,6314.45
862.771,6327.7
863.043,6308.8
863.315,6312.55
863.588,6341.45
863.86,6369.95
864.132,6349.9
864.404,6341.65
864.677,6339.95
864.949,6325.1
865.221,6312.9
865.493,6199.1
865.765,6213.85
866.038,6228.55
866.31,6201.7
866.582,6184.5
866.854,6184.9
867.126,6179.35
867.398,6145.5
867.67,6137.15
867.943,6143.5
868.215,6154.7
868.487,6132.95
868.759,6165.95
869.031,6193.3
869.303,6158.0
869.575,6134.75
869.847,6174.3
870.119,6233.25
870.391,6182.75
870.663,6163.75
870.935,6224.95
871.207,6349.35
871.479,6396.95
871.751,6401.5
872.023,6379.95
872.295,6405.8
872.567,6411.0
872.839,6424.45
873.111,6430.95
873.383,6350.6
873.655,6348.8
873.927,6275.4
874.199,6190.8
874.471,6144.85
874.743,6115.7
875.015,6090.8
875.287,6048.95
875.559,6052.9
875.831,6029.95
876.103,5988.1
876.374,5955.4
876.646,5915.9
876.918,5906.1
877.19,5971.6
877.462,5951.25
877.734,5940.05
878.006,5912.75
878.277,5882.3
878.549,5899.6
878.821,5952.2
879.093,5909.75
879.365,5904.55
879.636,5871.35
879.908,5889.7
880.18,5831.0
880.452,5775.4
880.723,5796.2
880.995,5826.5
881.267,5833.15
881.539,5829.6
881.81,5828.7
882.082,5763.35
882.354,5774.65
882.626,5752.7
882.897,5781.1
883.169,5824.0
883.441,5801.6
883.712,5771.4
883.984,5753.8
884.256,5767.75
884.527,5780.75
884.799,5808.4
885.07,5791.95
885.342,5737.35
885.614,5716.5
885.885,5699.7
886.157,5706.9
886.428,5684.35
886.7,5635.4
886.972,5592.7
887.243,5626.35
887.515,5623.3
887.786,5607.35
888.058,5573.35
888.329,5594.1
888.601,5597.75
888.872,5583.5
889.144,5544.6
889.415,5551.75
889.687,5536.0
889.958,5505.65
890.23,5543.2
890.501,5541.3
890.773,5585.05
891.044,5564.65
891.316,5556.05
891.587,5556.35
891.859,5495.7
892.13,5512.5
892.401,5504.8
892.673,5495.25
892.944,5463.95
893.216,5418.75
893.487,5419.25
893.758,5422.25
894.03,5405.65
894.301,5418.8
894.572,5411.4
894.844,5393.55
895.115,5358.6
895.386,5404.4
895.658,5417.55
895.929,5366.1
896.2,5393.95
896.472,5408.0
896.743,5449.6
897.014,5564.15
897.285,5711.4
897.557,5868.1
897.828,5936.7
898.099,5970.3
898.37,5919.0
898.642,5817.7
898.913,5737.25
899.184,5605.8
899.455,5470.55
899.726,5400.3
899.998,5324.85
900.269,5241.1
900.54,5191.9
900.811,5185.6
901.082,5190.25
901.353,5171.55
901.625,5177.05
901.896,5190.95
902.167,5195.0
902.438,5201.55
902.709,5191.9
902.98,5137.5
903.251,5082.25
903.522,5113.25
903.793,5147.05
904.064,5126.3
904.335,5119.35
904.606,5171.15
904.877,5152.4
905.148,5160.1
905.419,5182.35
905.69,5211.75
905.961,5266.35
906.232,5271.7
906.503,5373.6
906.774,5445.65
907.045,5450.95
907.316,5502.4
907.587,5508.05
907.858,5445.2
908.129,5419.6
908.4,5339.65
908.671,5236.95
908.942,5179.6
909.213,5121.65
909.484,5038.4
909.755,4968.8
910.025,4962.15
910.296,4973.05
910.567,4982.5
910.838,4962.45
911.109,4913.45
911.38,4910.9
911.65,4905.65
911.921,4889.8
912.192,4897.05
912.463,4898.9
912.734,4908.95
913.004,4878.55
913.275,4856.3
913.546,4835.95
913.817,4833.95
914.087,4827.0
914.358,4842.25
914.629,4827.0
914.9,4802.1
915.17,4819.0
915.441,4783.1
915.712,4787.9
915.982,4790.2
916.253,4786.65
916.524,4777.95
916.794,4757.6
917.065,4745.25
917.336,4734.15
917.606,4730.1
917.877,4733.55
918.147,4741.5
918.418,4730.65
918.689,4716.6
918.959,4725.25
919.23,4708.6
919.5,4701.9
919.771,4701.95
920.042,4686.15
920.312,4651.35
920.583,4651.8
920.853,4641.65
921.124,4651.45
921.394,4648.1
921.665,4648.75
921.935,4621.95
922.206,4621.3
922.476,4623.85
922.747,4632.55
923.017,4590.75
923.287,4590.6
923.558,4589.45
923.828,4590.75
924.099,4611.35
924.369,4603.45
924.639,4573.95
924.91,4552.3
925.18,4547.95
925.451,4532.6
925.721,4521.85
925.991,4511.9
926.262,4508.0
926.532,4543.75
926.802,4547.6
927.073,4532.05
927.343,4515.65
927.613,4496.8
927.884,4501.2
928.154,4475.65
928.424,4471.15
928.694,4472.6
928.965,4481.3
929.235,4451.65
929.505,4449.05
929.775,4454.25
930.046,4455.7
930.316,4436.15
930.586,4429.35
930.856,4448.05
931.126,4455.3
931.397,4446.95
931.667,4429.75
931.937,4396.6
932.207,4397.4
932.477,4405.15
932.747,4394.5
933.017,4380.25
933.288,4365.1
933.558,4355.3
933.828,4363.6
934.098,4359.0
934.368,4359.0
934.638,4357.1
934.908,4346.9
935.178,4338.7
935.448,4356.5
935.718,4346.35
935.988,4326.95
936.258,4314.7
936.528,4316.8
936.798,4312.15
937.068,4306.9
937.338,4315.6
937.608,4319.2
937.878,4297.75
938.148,4293.65
938.418,4291.65
938.688,4296.85
938.958,4276.6
939.228,4267.8
939.498,4258.55
939.767,4263.0
940.037,4245.55
940.307,4247.05
940.577,4252.9
940.847,4248.65
941.117,4234.75
941.387,4241.7
941.656,4263.9
941.926,4249.8
942.196,4226.35
942.466,4207.4
942.736,4209.15
943.005,4210.35
943.275,4213.5
943.545,4200.65
943.815,4206.4
944.084,4196.95
944.354,4190.5
944.624,4197.35
944.894,4196.35
945.163,4177.3
945.433,4170.95
945.703,4157.9
945.972,4158.55
946.242,4156.45
946.512,4159.2
946.781,4172.5
947.051,4152.05
947.321,4158.6
947.59,4141.95
947.86,4135.35
948.13,4137.45
948.399,4127.5
948.669,4120.15
948.938,4128.55
949.208,4135.25
949.477,4134.0
949.747,4130.9
950.016,4120.8
950.286,4127.25
950.556,4116.4
950.825,4105.45
951.095,4098.8
951.364,4097.7
951.634,4098.85
951.903,4095.45
952.172,4092.35
952.442,4074.8
952.711,4078.3
952.981,4076.4
953.25,4072.15
953.52,4071.25
953.789,4071.4
954.058,4060.15
954.328,4057.4
954.597,4057.0
954.867,4059.35
955.136,4051.95
955.405,4059.1
955.675,4062.0
955.944,4046.85
956.213,4035.15
956.483,4042.8
956.752,4045.85
957.021,4043.15
957.29,4033.15
957.56,4027.4
957.829,4033.3
958.098,4031.3
958.367,4031.4
958.637,4022.6
958.906,4019.25
959.175,4007.7
959.444,4017.8
959.714,4005.95
959.983,4005.9
960.252,4001.3
960.521,3996.9
960.79,3992.0
961.059,3980.25
961.328,3986.0
961.598,3980.9
961.867,3984.7
962.136,3987.4
962.405,3982.45
962.674,3978.55
962.943,3969.5
963.212,3966.65
963.481,3970.95
963.75,3968.25
964.019,3964.9
964.288,3961.75
964.557,3960.15
964.826,3961.0
965.095,3960.25
965.364,3956.2
965.633,3946.3
965.902,3944.4
966.171,3947.75
966.44,3948.7
966.709,3952.75
966.978,3950.45
967.247,3946.2
967.516,3944.35
967.785,3934.95
968.054,3933.25
968.323,3924.6
968.591,3927.25
968.86,3923.3
969.129,3918.55
969.398,3919.0
969.667,3917.0
969.936,3913.3
970.204,3913.15
970.473,3919.6
970.742,3922.45
971.011,3919.6
971.28,3908.0
971.548,3903.75
971.817,3908.65
972.086,3906.3
972.355,3901.0
972.623,3897.6
972.892,3895.5
973.161,3890.75
973.429,3895.7
973.698,3895.05
973.967,3887.65
974.235,3883.6
974.504,3880.25
974.773,3893.3
975.041,3886.25
975.31,3884.3
975.579,3886.55
975.847,3885.6
976.116,3881.7
976.384,3875.8
976.653,3872.4
976.922,3869.55
977.19,3869.2
977.459,3871.85
977.727,3865.2
977.996,3860.95
978.264,3863.85
978.533,3862.4
978.801,3859.45
979.07,3859.8
979.338,3855.8
979.607,3856.3
979.875,3856.5
980.143,3857.8
980.412,3857.4
980.68,3852.9
980.949,3847.95
981.217,3845.15
981.486,3844.1
981.754,3844.5
982.022,3848.45
982.291,3845.9
982.559,3838.95
982.827,3838.0
983.096,3838.25
983.364,3835.1
983.632,3829.4
983.901,3833.35
984.169,3833.45
984.437,3829.8
984.705,3832.55
984.974,3833.35
985.242,3824.45
985.51,3822.25
985.778,3827.4
986.047,3828.5
986.315,3826.2
986.583,3824.0
986.851,3815.45
987.119,3814.15
987.388,3813.9
987.656,3814.6
987.924,3814.8
988.192,3812.7
988.46,3807.95
988.728,3809.55
988.996,3805.35
989.264,3812.4
989.533,3809.4
989.801,3811.5
990.069,3803.9
990.337,3805.6
990.605,3805.85
990.873,3806.0
991.141,3799.75
991.409,3798.9
991.677,3795.5
991.945,3796.85
992.213,3795.85
992.481,3791.1
992.749,3793.75
993.017,3792.0
993.285,3788.4
993.553,3788.75
993.82,3786.35
994.088,3786.25
994.356,3785.25
994.624,3787.1
994.892,3785.75
995.16,3783.35
995.428,3781.4
995.696,3782.85
995.963,3779.45
996.231,3782.75
996.499,3781.15
996.767,3777.9
997.035,3781.25
997.302,3780.05
997.57,3777.45
997.838,3778.85
998.106,3777.15
998.373,3776.3
998.641,3778.8
998.909,3775.8
999.177,3770.0
999.444,3767.4
999.712,3769.55
999.98,3769.7
1000.25,3766.65
1000.51,3767.3
1000.78,3767.9
1001.05,3763.35
1001.32,3764.0
1001.59,3766.1
1001.85,3761.6
1002.12,3761.85
1002.39,3763.6
1002.66,3760.7
1002.92,3761.2
1003.19,3760.8
1003.46,3758.95
1003.73,3757.8
1003.99,3752.95
1004.26,3756.2
1004.53,3758.45
1004.8,3759.0
1005.06,3760.2
1005.33,3759.2
1005.6,3752.05
1005.87,3750.8
1006.13,3747.55
1006.4,3752.45
1006.67,3750.65
1006.94,3751.2
1007.2,3749.45
1007.47,3749.05
1007.74,3749.75
1008.0,3749.0
1008.27,3746.55
1008.54,3745.7
1008.81,3746.35
1009.07,3744.95
1009.34,3744.65
1009.61,3742.85
1009.88,3742.55
1010.14,3742.3
1010.41,3740.55
1010.68,3740.3
1010.95,3742.55
1011.21,3740.85
1011.48,3741.3
1011.75,3740.0
1012.01,3738.9
1012.28,3740.85
1012.55,3738.85
1012.82,3740.3
1013.08,3736.65
1013.35,3737.85
1013.62,3734.65
1013.88,3738.6
1014.15,3739.0
1014.42,3738.15
1014.69,3733.9
1014.95,3735.7
1015.22,3734.95
1015.49,3733.85
1015.75,3736.2
1016.02,3732.95
1016.29,3733.0
1016.55,3733.25
1016.82,3733.15
1017.09,3731.3
1017.36,3730.4
1017.62,3733.65
1017.89,3732.4
1018.16,3732.05
1018.42,3731.05
1018.69,3730.85
1018.96,3725.55
1019.22,3728.65
1019.49,3730.55
1019.76,3728.75
1020.02,3730.55
1020.29,3731.85
1020.56,3729.6
1020.83,3729.7
1021.09,3732.85
1021.36,3733.65
1021.63,3733.75
1021.89,3733.85
1022.16,3733.55
1022.43,3733.05
1022.69,3733.2
1022.96,3730.3
1023.23,3728.45
1023.49,3728.15
1023.76,3726.85
1024.03,3729.1
1024.29,3728.2
1024.56,3727.35
1024.83,3725.85
1025.09,3724.85
1025.36,3724.6
1025.63,3723.2
1025.89,3721.05
1026.16,3719.5
1026.43,3721.2
1026.69,3717.1
1026.96,3719.35
1027.23,3718.85
1027.49,3719.1
1027.76,3714.9
1028.03,3715.5
1028.29,3715.65
1028.56,3712.85
1028.83,3713.1
1029.09,3714.3
1029.36,3712.25
1029.62,3711.85
1029.89,3715.2
1030.16,3713.05
1030.42,3713.95
1030.69,3709.3
1030.96,3711.45
1031.22,3711.9
1031.49,3712.35
1031.76,3712.8
1032.02,3712.55
1032.29,3712.95
1032.56,3712.8
1032.82,3712.2
1033.09,3713.25
1033.35,3712.8
1033.62,3713.6
1033.89,3714.3
1034.15,3714.8
1034.42,3714.1
1034.69,3715.8
1034.95,3714.15
1035.22,3714.5
1035.48,3713.8
1035.75,3713.3
1036.02,3710.1
1036.28,3711.85
1036.55,3711.7
1036.81,3710.1
1037.08,3709.7
1037.35,3708.0
1037.61,3708.1
1037.88,3706.95
1038.15,3705.45
1038.41,3704.85
1038.68,3704.0
1038.94,3704.25
1039.21,3703.45
1039.48,3703.45
1039.74,3702.35
1040.01,3703.55
1040.27,3703.5
1040.54,3702.65
1040.81,3703.25
1041.07,3702.9
1041.34,3702.95
1041.6,3702.85
1041.87,3701.65
1042.14,3701.2
1042.4,3703.45
1042.67,3700.9
1042.93,3701.55
1043.2,3701.65
1043.47,3701.45
1043.73,3700.2
1044.0,3699.75
1044.26,3701.15
1044.53,3700.9
1044.79,3700.95
1045.06,3700.4
1045.33,3700.45
1045.59,3699.55
1045.86,3700.0
1046.12,3698.0
1046.39,3698.35
1046.65,3701.25
1046.92,3699.5
1047.19,3698.0
1047.45,3697.25
1047.72,3697.7
1047.98,3698.85
1048.25,3699.0
1048.51,3700.65
1048.78,3698.95
1049.05,3697.85
1049.31,3699.3
1049.58,3698.35
1049.84,3698.15
1050.11,3696.9
1050.37,3698.95
1050.64,3698.45
1050.91,3696.85
1051.17,3698.6
1051.44,3697.95
1051.7,3698.1
1051.97,3698.5
1052.23,3698.0
1052.5,3696.75
1052.76,3698.5
1053.03,3696.7
1053.29,3697.5
1053.56,3697.05
1053.83,3698.0
1054.09,3698.65
1054.36,3697.0
1054.62,3697.25
1054.89,3696.6
1055.15,3698.3
1055.42,3696.7
1055.68,3696.5
1055.95,3698.65
1056.21,3698.25
1056.48,3697.95
1056.74,3696.0
1057.01,3696.8
1057.27,3696.8
1057.54,3696.6
1057.81,3696.15
1058.07,3695.65
1058.34,3695.15
1058.6,3696.0
1058.87,3695.85
1059.13,3695.5
1059.4,3696.9
1059.66,3697.25
1059.93,3696.9
1060.19,3696.1
1060.46,3696.45
1060.72,3696.2
1060.99,3696.6
1061.25,3695.35
1061.52,3695.25
1061.78,3695.3
1062.05,3695.4
1062.31,3694.85
1062.58,3695.4
1062.84,3696.2
1063.11,3696.15
1063.37,3694.75
1063.64,3696.6
1063.9,3694.7
1064.17,3694.7
1064.43,3696.5
1064.7,3695.1
1064.96,3694.95
1065.23,3694.7
1065.49,3695.45
1065.76,3694.1
1066.02,3695.4
1066.29,3695.1
1066.55,3693.95
1066.82,3695.25
1067.08,3694.75
1067.35,3692.35
1067.61,3694.95
1067.88,3693.85