File: spectra/VLFR_09-PET_bio_Raman_51f64c52.csv
nm,Intensity
528.626,1868.9
528.795,1869.75
528.963,1870.55
529.132,1868.75
529.3,1872.45
529.469,1871.1
529.637,1871.85
529.806,1869.55
529.974,1869.6
530.143,1870.3
530.311,1872.15
530.48,1870.95
530.648,1873.95
530.816,1870.75
530.985,1871.8
531.153,1877.1
531.322,1877.95
531.49,1879.85
531.658,1907.25
531.827,2491.6
531.995,4764.85
532.164,4614.75
532.332,2346.2
532.5,1881.2
532.669,1878.95
532.837,1876.4
533.006,1880.3
533.174,1886.6
533.342,1908.3
533.511,2108.45
533.679,3379.25
533.847,6061.55
534.016,7991.75
534.184,8463.6
534.352,7917.3
534.521,7659.45
534.689,7671.65
534.857,7529.75
535.025,7284.9
535.194,7095.0
535.362,7086.95
535.53,6839.7
535.699,6483.75
535.867,6337.65
536.035,6231.35
536.203,6176.5
536.372,6067.05
536.54,6046.9
536.708,6074.65
536.876,6023.3
537.044,6047.9
537.213,5982.65
537.381,5959.8
537.549,6105.6
537.717,6072.65
537.885,5990.05
538.054,6024.75
538.222,6066.35
538.39,5951.95
538.558,6021.8
538.726,6068.3
538.894,6103.75
539.063,6193.4
539.231,6199.45
539.399,6371.1
539.567,6475.85
539.735,6516.05
539.903,6485.0
540.071,6606.6
540.239,6509.2
540.408,6492.0
540.576,6490.05
540.744,6407.45
540.912,6384.2
541.08,6358.8
541.248,6515.15
541.416,6458.85
541.584,6436.4
541.752,6449.3
541.92,6481.65
542.088,6549.95
542.256,6612.75
542.424,6617.6
542.592,6620.2
542.76,6692.9
542.928,6790.05
543.096,6699.55
543.264,6687.65
543.432,6711.65
543.6,6820.35
543.768,6914.55
543.936,6890.1
544.104,6937.95
544.272,6847.6
544.44,6830.5
544.608,7029.25
544.776,7054.75
544.944,7025.9
545.112,7027.55
545.28,7110.75
545.448,6980.65
545.616,7114.65
545.784,7139.0
545.951,7202.75
546.119,7176.8
546.287,7343.75
546.455,7269.6
546.623,7397.05
546.791,7245.55
546.959,7334.15
547.127,7306.6
547.294,7427.7
547.462,7395.25
547.63,7449.1
547.798,7486.7
547.966,7643.55
548.134,7555.95
548.301,7529.1
548.469,7612.25
548.637,7711.8
548.805,7694.75
548.972,7694.8
549.14,7731.6
549.308,7695.9
549.476,7687.85
549.644,7719.1
549.811,7703.7
549.979,7791.6
550.147,7874.15
550.315,7920.05
550.482,8813.3
550.65,9086.55
550.818,8848.55
550.985,7989.75
551.153,8034.5
551.321,8157.75
551.488,8001.6
551.656,8095.45
551.824,8175.4
551.991,8130.2
552.159,8243.45
552.327,8098.85
552.494,8343.5
552.662,8448.65
552.83,8717.05
552.997,8460.4
553.165,8392.8
553.333,8388.0
553.5,8260.2
553.668,8373.3
553.835,8468.7
554.003,8439.35
554.171,8546.7
554.338,8510.05
554.506,8507.15
554.673,8542.5
554.841,8525.55
555.008,8804.8
555.176,8930.85
555.343,8907.7
555.511,9021.6
555.679,9131.55
555.846,8907.25
556.014,8995.95
556.181,9108.75
556.349,9163.75
556.516,9255.85
556.684,9266.75
556.851,9205.3
557.018,9585.95
557.186,9905.2
557.353,10415.5
557.521,11400.0
557.688,11569.4
557.856,10531.8
558.023,9801.65
558.191,9773.9
558.358,9434.35
558.525,9515.7
558.693,9409.05
558.86,9474.6
559.028,9450.55
559.195,9529.0
559.362,9333.85
559.53,9297.7
559.697,9466.85
559.864,9484.4
560.032,9452.85
560.199,9406.7
560.366,9524.0
560.534,9495.8
560.701,9589.7
560.868,9722.4
561.036,9756.1
561.203,9865.0
561.37,9826.85
561.538,10109.5
561.705,10150.3
561.872,10402.3
562.039,10482.2
562.207,10406.3
562.374,10296.3
562.541,10253.3
562.708,10006.2
562.876,10130.4
563.043,10184.3
563.21,10030.0
563.377,10109.3
563.545,10210.5
563.712,10259.3
563.879,10188.1
564.046,10242.2
564.213,10363.5
564.38,10578.1
564.548,10752.5
564.715,11196.0
564.882,11627.9
565.049,11693.0
565.216,11888.2
565.383,11532.5
565.551,11528.0
565.718,11762.4
565.885,11613.8
566.052,11340.0
566.219,11008.7
566.386,10966.5
566.553,10891.2
566.72,10716.0
566.887,10783.2
567.054,10801.5
567.221,10814.0
567.388,10961.3
567.555,11456.3
567.722,11361.0
567.889,11357.3
568.057,11371.2
568.224,11038.7
568.391,11122.3
568.558,10998.3
568.725,11028.8
568.892,11148.5
569.058,10968.8
569.225,11191.0
569.392,11191.2
569.559,11404.3
569.726,11250.5
569.893,11321.3
570.06,11404.8
570.227,11376.0
570.394,11796.3
570.561,12306.8
570.728,12412.7
570.895,13057.5
571.062,13798.3
571.229,14878.8
571.395,15000.7
571.562,14564.8
571.729,13681.8
571.896,12976.2
572.063,12700.7
572.23,12388.0
572.397,12052.8
572.563,12096.5
572.73,11839.5
572.897,11804.8
573.064,11741.8
573.231,11796.9
573.397,11782.7
573.564,11726.2
573.731,11711.1
573.898,11542.2
574.064,11724.3
574.231,12093.3
574.398,11861.8
574.565,11889.7
574.731,11779.6
574.898,11919.8
575.065,12084.5
575.232,12176.3
575.398,12700.7
575.565,12584.0
575.732,12222.0
575.898,12165.8
576.065,12284.7
576.232,12225.5
576.398,12442.5
576.565,12391.6
576.732,12523.3
576.898,12448.0
577.065,12502.8
577.232,12336.3
577.398,12187.5
577.565,12414.0
577.731,12190.0
577.898,12030.0
578.065,12215.0
578.231,11911.2
578.398,12395.0
578.564,12054.3
578.731,12013.0
578.897,12259.5
579.064,12125.5
579.23,12353.8
579.397,12312.4
579.563,12357.0
579.73,12334.3
579.896,12362.0
580.063,12347.3
580.229,12421.3
580.396,12665.2
580.562,12533.2
580.729,12671.8
580.895,12724.5
581.062,12727.7
581.228,12891.6
581.395,13087.8
581.561,13974.6
581.728,15592.5
581.894,18936.8
582.06,23559.7
582.227,24209.8
582.393,18575.4
582.56,14289.6
582.726,13266.8
582.892,12948.8
583.059,12862.3
583.225,12846.4
583.391,12830.8
583.558,12723.8
583.724,12648.8
583.89,12837.7
584.057,12937.7
584.223,12725.3
584.389,12769.0
584.556,12935.5
584.722,12963.5
584.888,12957.2
585.054,13059.2
585.221,13325.7
585.387,14098.3
585.553,15162.3
585.719,16765.9
585.886,18376.3
586.052,19155.6
586.218,18121.2
586.384,16758.6
586.55,15515.5
586.717,14054.8
586.883,13363.6
587.049,13552.5
587.215,13088.0
587.381,12947.7
587.548,13124.5
587.714,13208.2
587.88,13120.2
588.046,13154.2
588.212,13110.5
588.378,12893.5
588.544,13024.8
588.71,12947.5
588.876,12955.5
589.043,13044.8
589.209,12881.5
589.375,12975.5
589.541,13144.5
589.707,12809.6
589.873,13086.0
590.039,12766.3
590.205,12917.3
590.371,12811.4
590.537,12970.0
590.703,12977.5
590.869,13042.5
591.035,13107.7
591.201,13002.3
591.367,13229.2
591.533,13026.2
591.699,13045.1
591.865,13220.3
592.031,13396.3
592.197,13135.7
592.363,13227.2
592.529,13018.0
592.694,13135.4
592.86,13279.3
593.026,13207.8
593.192,12907.3
593.358,13327.3
593.524,13139.7
593.69,13175.5
593.856,13038.0
594.021,13335.3
594.187,12906.0
594.353,13288.7
594.519,13182.8
594.685,13259.0
594.851,13099.7
595.016,13056.7
595.182,13599.2
595.348,13329.9
595.514,13342.0
595.68,13337.0
595.845,13483.0
596.011,13640.2
596.177,13367.7
596.342,13456.8
596.508,13655.6
596.674,13255.7
596.84,13494.3
597.005,13594.0
597.171,13460.6
597.337,13665.1
597.502,13443.2
597.668,13393.4
597.834,13443.8
597.999,13470.0
598.165,13433.5
598.331,13609.3
598.496,13743.9
598.662,13486.0
598.828,13766.5
598.993,13727.3
599.159,13566.0
599.324,13573.7
599.49,13760.1
599.656,13816.9
599.821,13500.7
599.987,13927.2
600.152,13649.3
600.318,13872.3
600.483,13622.7
600.649,13740.0
600.814,13930.0
600.98,13782.1
601.145,13526.7
601.311,14237.7
601.476,13847.5
601.642,13717.2
601.807,13942.8
601.973,13949.3
602.138,13741.8
602.304,13683.4
602.469,14090.5
602.635,14186.9
602.8,14089.3
602.965,14000.3
603.131,13926.0
603.296,13837.0
603.462,14271.3
603.627,14073.1
603.792,14213.7
603.958,14190.4
604.123,14042.4
604.288,13826.5
604.454,13912.2
604.619,14393.2
604.784,14234.2
604.95,14188.9
605.115,14037.4
605.28,14335.8
605.446,14166.2
605.611,14158.8
605.776,13907.4
605.941,14359.7
606.107,14248.0
606.272,14279.3
606.437,14362.5
606.602,14495.2
606.767,14506.0
606.933,14312.9
607.098,14516.8
607.263,14605.6
607.428,14407.8
607.593,14470.5
607.759,14621.0
607.924,14523.5
608.089,14539.0
608.254,14663.0
608.419,14659.3
608.584,14733.3
608.749,14771.5
608.915,14778.6
609.08,14649.8
609.245,14478.7
609.41,14824.5
609.575,14686.0
609.74,14830.0
609.905,14868.3
610.07,14694.1
610.235,14821.4
610.4,15122.0
610.565,15032.0
610.73,14966.2
610.895,15254.4
611.06,14992.5
611.225,15132.3
611.39,15078.2
611.555,15028.3
611.72,15207.8
611.885,15438.5
612.05,14952.7
612.215,15369.7
612.38,15302.8
612.545,15142.4
612.71,15513.7
612.875,15385.3
613.04,15218.7
613.204,15118.3
613.369,15539.4
613.534,15578.9
613.699,15597.9
613.864,15570.5
614.029,15516.3
614.194,15507.3
614.358,15587.8
614.523,15771.5
614.688,15824.5
614.853,15822.0
615.018,15532.7
615.182,15988.6
615.347,15669.3
615.512,16072.9
615.677,16099.0
615.841,15775.7
616.006,16173.1
616.171,16163.8
616.336,16096.5
616.5,15840.6
616.665,16098.4
616.83,16154.3
616.994,16239.9
617.159,16625.3
617.324,16236.1
617.489,16166.9
617.653,16257.0
617.818,16647.9
617.982,16439.3
618.147,16704.1
618.312,16598.8
618.476,16530.8
618.641,16628.0
618.805,16571.2
618.97,16701.7
619.135,17057.5
619.299,16706.3
619.464,16628.3
619.628,16954.9
619.793,16688.4
619.957,16961.7
620.122,17575.3
620.286,16828.7
620.451,16798.8
620.615,17412.1
620.78,17047.9
620.944,17074.4
621.109,17055.9
621.273,16892.8
621.438,16888.3
621.602,17318.3
621.767,17291.2
621.931,17326.9
622.095,17560.8
622.26,17445.9
622.424,17011.1
622.589,17357.9
622.753,17689.8
622.917,17531.3
623.082,17132.8
623.246,17474.1
623.41,17821.4
623.575,17770.8
623.739,17834.1
623.903,17990.3
624.068,17386.1
624.232,17953.5
624.396,17967.2
624.561,17910.9
624.725,17992.7
624.889,17993.8
625.053,18228.6
625.218,17943.8
625.382,17927.8
625.546,18199.5
625.71,18256.7
625.875,18400.4
626.039,17969.5
626.203,18169.8
626.367,18166.8
626.531,17930.6
626.695,18191.2
626.86,18174.0
627.024,18017.3
627.188,18188.0
627.352,18345.9
627.516,18241.4
627.68,18627.2
627.844,18515.7
628.008,18590.2
628.172,18578.9
628.337,18678.4
628.501,18939.3
628.665,18648.0
628.829,18413.3
628.993,18989.0
629.157,18847.2
629.321,18745.7
629.485,19025.3
629.649,19342.2
629.813,19076.2
629.977,19302.9
630.141,19223.2
630.305,18599.2
630.469,19206.2
630.633,19279.8
630.797,19124.6
630.96,19256.8
631.124,19435.4
631.288,19660.3
631.452,19904.2
631.616,20289.7
631.78,19679.6
631.944,19981.1
632.108,20009.3
632.272,20229.0
632.435,19716.8
632.599,19691.0
632.763,19931.3
632.927,19782.7
633.091,20089.1
633.254,19943.9
633.418,19806.6
633.582,20341.8
633.746,19454.8
633.91,19834.2
634.073,19616.8
634.237,19716.8
634.401,19214.5
634.564,19483.6
634.728,19638.9
634.892,19688.9
635.056,19649.0
635.219,19786.9
635.383,19728.7
635.547,19869.0
635.71,19340.9
635.874,19865.7
636.038,20431.8
636.201,20812.6
636.365,21455.9
636.528,21529.5
636.692,21259.4
636.856,20750.6
637.019,20304.8
637.183,20330.9
637.346,19660.8
637.51,20139.9
637.673,20211.4
637.837,19535.1
638.0,19415.5
638.164,19856.9
638.327,20040.2
638.491,19915.0
638.654,19405.3
638.818,19829.2
638.981,19863.3
639.145,19418.2
639.308,19610.6
639.472,19289.9
639.635,19674.4
639.799,19653.1
639.962,19584.1
640.125,19863.8
640.289,19599.7
640.452,19744.0
640.616,19304.8
640.779,19432.8
640.942,18921.7
641.106,19518.8
641.269,19138.6
641.432,19940.2
641.596,19713.3
641.759,18959.9
641.922,19504.1
642.085,20044.8
642.249,19952.4
642.412,19709.6
642.575,19555.2
642.738,19409.8
642.902,19287.8
643.065,18938.7
643.228,19782.5
643.391,19322.4
643.555,19764.8
643.718,19153.0
643.881,19510.1
644.044,19683.9
644.207,19612.6
644.37,19348.6
644.534,19460.4
644.697,19354.8
644.86,19385.5
645.023,19241.8
645.186,19270.3
645.349,19828.9
645.512,19607.8
645.675,19159.1
645.838,19354.6
646.001,19329.7
646.164,19272.2
646.327,19059.0
646.49,18912.9
646.653,18949.4
646.816,19568.8
646.979,19345.8
647.142,19786.8
647.305,19107.9
647.468,19031.6
647.631,19319.7
647.794,18842.2
647.957,18451.4
648.12,19537.6
648.283,18917.7
648.446,18575.3
648.609,18930.4
648.772,19145.4
648.935,18668.2
649.098,18745.3
649.26,19300.4
649.423,18542.6
649.586,18975.5
649.749,18458.6
649.912,18574.3
650.075,18627.8
650.237,18010.6
650.4,18875.8
650.563,18638.2
650.726,18262.4
650.888,18286.6
651.051,18614.8
651.214,17959.3
651.377,18272.6
651.539,18501.6
651.702,18387.3
651.865,18147.6
652.027,18382.3
652.19,18577.4
652.353,18130.4
652.515,18064.3
652.678,17368.6
652.841,17779.4
653.003,18180.0
653.166,17791.7
653.329,18194.3
653.491,18052.5
653.654,17470.3
653.816,17363.8
653.979,17535.1
654.142,17731.1
654.304,17876.5
654.467,17390.4
654.629,17050.1
654.792,17634.4
654.954,17761.2
655.117,16700.1
655.279,17889.7
655.442,17180.8
655.604,17291.1
655.767,17293.1
655.929,17523.0
656.091,17070.4
656.254,17149.2
656.416,17070.9
656.579,17108.6
656.741,16571.8
656.904,16601.3
657.066,16714.7
657.228,17199.4
657.391,17107.2
657.553,16645.5
657.715,15842.1
657.878,16397.3
658.04,16541.5
658.202,16430.6
658.365,16456.3
658.527,16521.5
658.689,16170.0
658.851,15735.0
659.014,16139.8
659.176,15912.0
659.338,15666.5
659.5,15963.5
659.663,15940.1
659.825,15754.2
659.987,15421.6
660.149,15691.3
660.311,16217.6
660.474,15379.5
660.636,15328.3
660.798,15022.5
660.96,15795.2
661.041,15411.4