File: spectra/VLFR_06-PET_bio_Raman_7c93d14b.csv
nm,Intensity
528.635,1842.0
528.803,1841.6
528.972,1842.0
529.14,1840.8
529.308,1840.3
529.477,1840.9
529.645,1842.7
529.814,1841.0
529.982,1841.2
530.151,1842.2
530.319,1840.8
530.487,1842.8
530.656,1843.8
530.824,1842.5
530.993,1845.8
531.161,1844.1
531.329,1847.8
531.498,1854.8
531.666,1892.7
531.835,2420.3
532.003,4440.2
532.171,3775.4
532.34,2053.2
532.508,1854.2
532.676,1847.8
532.845,1850.5
533.013,1852.5
533.181,1868.0
533.35,1904.5
533.518,2294.4
533.686,4568.1
533.854,8995.0
534.023,11421.3
534.191,11180.2
534.359,10148.0
534.528,9214.0
534.696,8725.6
534.864,7864.9
535.032,7084.0
535.201,6546.1
535.369,5852.5
535.537,5324.7
535.705,4815.8
535.874,4388.1
536.042,4072.8
536.21,3797.9
536.378,3638.4
536.546,3510.0
536.715,3452.4
536.883,3292.4
537.051,3315.8
537.219,3271.6
537.387,3211.5
537.556,3184.9
537.724,3126.1
537.892,3125.0
538.06,3195.8
538.228,3203.9
538.396,3220.5
538.565,3165.4
538.733,3210.5
538.901,3170.9
539.069,3201.9
539.237,3213.7
539.405,3336.7
539.573,3427.0
539.741,3460.6
539.909,3516.0
540.077,3416.9
540.246,3226.6
540.414,3164.7
540.582,3062.3
540.75,3032.3
540.918,2961.1
541.086,2937.5
541.254,2920.9
541.422,2893.8
541.59,2926.5
541.758,2882.8
541.926,2920.6
542.094,2907.4
542.262,2900.5
542.43,2931.5
542.598,2935.6
542.766,2960.1
542.934,2951.4
543.102,2923.1
543.27,2962.5
543.438,2919.1
543.606,2986.9
543.774,3015.4
543.942,3045.9
544.11,2996.1
544.278,2978.4
544.445,3023.2
544.613,3000.9
544.781,3013.7
544.949,2989.7
545.117,3021.1
545.285,3022.4
545.453,3027.9
545.621,3021.8
545.789,3049.3
545.957,3062.5
546.124,3066.0
546.292,3082.8
546.46,3063.7
546.628,3100.9
546.796,3111.9
546.964,3094.0
547.131,3110.0
547.299,3139.9
547.467,3103.6
547.635,3152.4
547.803,3161.8
547.97,3137.9
548.138,3169.1
548.306,3186.2
548.474,3203.1
548.642,3211.3
548.809,3185.4
548.977,3172.4
549.145,3236.8
549.313,3192.9
549.48,3212.6
549.648,3157.2
549.816,3242.2
549.983,3201.1
550.151,3294.3
550.319,3450.3
550.487,4105.6
550.654,4821.1
550.822,4140.3
550.99,3401.5
551.157,3390.7
551.325,3340.4
551.493,3346.9
551.66,3372.9
551.828,3369.3
551.996,3405.2
552.163,3450.2
552.331,3416.9
552.499,3503.2
552.666,3856.4
552.834,4014.6
553.001,3801.6
553.169,3497.2
553.337,3471.7
553.504,3455.1
553.672,3513.0
553.839,3556.1
554.007,3488.3
554.174,3487.4
554.342,3533.5
554.509,3545.1
554.677,3535.2
554.845,3586.6
555.012,3612.2
555.18,3713.5
555.347,3869.4
555.515,4196.0
555.682,4412.3
555.85,4315.9
556.017,4319.3
556.185,4329.6
556.352,4400.4
556.52,4453.4
556.687,4446.9
556.854,4488.4
557.022,4668.6
557.189,5150.1
557.357,5829.2
557.524,6244.6
557.692,5951.4
557.859,5104.7
558.026,4818.2
558.194,4726.2
558.361,4785.4
558.529,4707.5
558.696,4561.3
558.863,4393.6
559.031,4250.2
559.198,4161.3
559.365,4030.0
559.533,3961.4
559.7,3919.8
559.867,3989.7
560.035,3974.3
560.202,3991.4
560.369,3969.6
560.537,4021.1
560.704,3989.6
560.871,4016.9
561.039,4055.7
561.206,4119.4
561.373,4198.8
561.54,4159.2
561.708,4165.0
561.875,4253.5
562.042,4326.6
562.209,4411.3
562.377,4360.4
562.544,4430.4
562.711,4461.7
562.878,4549.3
563.046,4594.0
563.213,4564.4
563.38,4475.7
563.547,4416.2
563.714,4356.6
563.881,4407.7
564.049,4414.2
564.216,4400.9
564.383,4489.3
564.55,4560.0
564.717,4769.7
564.884,4969.6
565.052,5182.3
565.219,5489.1
565.386,5632.0
565.553,5873.8
565.72,5932.8
565.887,5958.0
566.054,5676.2
566.221,5411.8
566.388,5002.7
566.555,4861.8
566.722,4699.0
566.889,4559.8
567.056,4623.4
567.224,4680.5
567.391,5016.6
567.558,5320.1
567.725,5479.5
567.892,5272.3
568.059,4949.6
568.226,4793.4
568.393,4723.7
568.56,4748.1
568.727,4756.5
568.893,4794.2
569.06,4809.7
569.227,4752.1
569.394,4881.0
569.561,4946.0
569.728,5054.5
569.895,5136.4
570.062,5336.7
570.229,5501.2
570.396,5771.4
570.563,6282.0
570.73,6683.2
570.897,7330.6
571.063,7851.9
571.23,8263.0
571.397,8282.9
571.564,7727.5
571.731,7043.1
571.898,6631.3
572.064,6435.7
572.231,5953.1
572.398,5506.3
572.565,5434.7
572.732,5309.2
572.899,5226.3
573.065,5146.3
573.232,5247.2
573.399,5264.9
573.566,5222.6
573.732,5354.4
573.899,5428.4
574.066,5445.3
574.233,5394.8
574.399,5335.6
574.566,5398.1
574.733,5292.9
574.9,5434.6
575.066,5561.0
575.233,5774.9
575.4,5858.1
575.566,5632.4
575.733,5531.6
575.9,5427.5
576.066,5591.4
576.233,5850.7
576.4,5915.5
576.566,5925.5
576.733,5957.3
576.899,5891.0
577.066,5709.3
577.233,5658.6
577.399,5495.5
577.566,5464.2
577.732,5438.6
577.899,5477.0
578.066,5416.4
578.232,5518.2
578.399,5534.3
578.565,5471.3
578.732,5543.4
578.898,5475.7
579.065,5605.0
579.231,5499.7
579.398,5596.7
579.564,5612.6
579.731,5582.4
579.897,5628.5
580.064,5729.8
580.23,5697.4
580.397,5787.8
580.563,5783.2
580.73,5869.4
580.896,5999.6
581.063,6018.7
581.229,6124.2
581.396,6316.8
581.562,6928.2
581.728,8714.4
581.895,12222.4
582.061,17047.9
582.228,16687.5
582.394,11104.9
582.56,7349.7
582.727,6300.6
582.893,6152.1
583.059,6056.7
583.226,6003.3
583.392,5971.9
583.558,5908.9
583.725,5924.6
583.891,6136.8
584.057,5987.9
584.224,6054.5
584.39,6115.6
584.556,6178.1
584.722,6202.8
584.889,6287.2
585.055,6525.4
585.221,7003.9
585.387,7936.3
585.554,9753.6
585.72,11662.2
585.886,12676.3
586.052,12624.8
586.219,11661.5
586.385,10152.3
586.551,8679.4
586.717,7530.9
586.883,6739.3
587.049,6584.4
587.216,6346.3
587.382,6356.0
587.548,6132.0
587.714,6279.1
587.88,6233.6
588.046,6294.8
588.212,6238.6
588.379,6171.1
588.545,6279.7
588.711,6198.4
588.877,6168.2
589.043,6236.2
589.209,6239.3
589.375,6212.0
589.541,6126.0
589.707,6166.4
589.873,6272.1
590.039,6122.2
590.205,6143.2
590.371,6141.0
590.537,6200.3
590.703,6232.4
590.869,6178.7
591.035,6195.9
591.201,6238.1
591.367,6206.8
591.533,6245.4
591.699,6253.7
591.865,6325.4
592.031,6260.2
592.197,6310.7
592.363,6298.3
592.529,6356.0
592.695,6206.8
592.86,6245.3
593.026,6346.8
593.192,6256.6
593.358,6349.0
593.524,6381.7
593.69,6226.1
593.856,6291.5
594.022,6441.5
594.187,6291.0
594.353,6431.3
594.519,6410.2
594.685,6378.2
594.851,6389.9
595.016,6374.5
595.182,6417.6
595.348,6358.3
595.514,6422.9
595.679,6510.7
595.845,6489.7
596.011,6479.6
596.177,6462.9
596.342,6468.1
596.508,6424.7
596.674,6470.5
596.84,6471.5
597.005,6539.1
597.171,6479.4
597.337,6454.8
597.502,6498.7
597.668,6450.5
597.834,6488.1
597.999,6425.3
598.165,6524.8
598.331,6432.2
598.496,6535.9
598.662,6471.4
598.827,6544.8
598.993,6547.0
599.159,6415.3
599.324,6490.3
599.49,6595.2
599.655,6653.6
599.821,6554.7
599.987,6577.3
600.152,6546.8
600.318,6563.2
600.483,6696.4
600.649,6559.9
600.814,6560.4
600.98,6553.3
601.145,6592.4
601.311,6670.3
601.476,6725.6
601.642,6567.4
601.807,6536.6
601.973,6647.4
602.138,6611.2
602.303,6676.5
602.469,6729.6
602.634,6508.9
602.8,6674.6
602.965,6732.5
603.13,6685.9
603.296,6661.9
603.461,6594.0
603.627,6560.2
603.792,6677.5
603.957,6712.7
604.123,6699.9
604.288,6475.6
604.453,6739.5
604.619,6720.3
604.784,6704.5
604.949,6732.8
605.115,6652.1
605.28,6619.0
605.445,6812.5
605.61,6600.8
605.776,6644.9
605.941,6673.8
606.106,6754.9
606.272,6742.5
606.437,6583.0
606.602,6719.3
606.767,6759.7
606.932,6753.8
607.098,6731.2
607.263,6649.4
607.428,6797.8
607.593,6645.6
607.758,6692.5
607.923,6742.5
608.089,6726.5
608.254,6705.9
608.419,6792.5
608.584,6638.9
608.749,6773.7
608.914,6700.3
609.079,6644.8
609.244,6800.6
609.41,6862.3
609.575,6572.5
609.74,6792.4
609.905,6869.3
610.07,6823.5
610.235,6749.0
610.4,6702.7
610.565,6799.0
610.73,6825.9
610.895,6872.5
611.06,6650.7
611.225,6675.4
611.39,6785.0
611.555,6983.7
611.72,6769.9
611.885,6780.8
612.05,6745.3
612.215,6705.8
612.38,6879.3
612.545,6748.6
612.709,6759.6
612.874,6827.4
613.039,6844.0
613.204,6765.9
613.369,6713.0
613.534,6941.2
613.699,6797.7
613.864,6839.2
614.028,6899.2
614.193,6856.3
614.358,6824.2
614.523,6865.4
614.688,6843.8
614.853,6878.7
615.017,6889.6
615.182,6857.6
615.347,6853.9
615.512,6955.9
615.676,6806.5
615.841,6926.6
616.006,7068.0
616.171,7067.5
616.335,6936.7
616.5,6798.4
616.665,6903.5
616.829,6986.8
616.994,6917.0
617.159,6938.1
617.324,6920.5
617.488,7061.2
617.653,6959.5
617.818,6994.5
617.982,7122.5
618.147,6983.7
618.311,7064.2
618.476,7190.4
618.641,7107.1
618.805,7086.6
618.97,6990.6
619.134,7056.8
619.299,6955.8
619.463,7161.6
619.628,7114.2
619.793,7084.1
619.957,6915.0
620.122,7056.2
620.286,7022.3
620.451,7019.7
620.615,6941.7
620.78,7075.4
620.944,7089.8
621.109,7147.5
621.273,6994.6
621.438,6985.4
621.602,7158.6
621.766,7227.8
621.931,7000.4
622.095,7086.4
622.26,7026.0
622.424,7191.5
622.588,7259.8
622.753,7196.5
622.917,7098.0
623.082,7220.6
623.246,7097.0
623.41,7214.7
623.575,7200.9
623.739,7193.0
623.903,7283.1
624.068,7358.7
624.232,7274.2
624.396,7368.9
624.56,7402.5
624.725,7329.1
624.889,7391.8
625.053,7385.9
625.218,7406.0
625.382,7348.0
625.546,7324.9
625.71,7347.8
625.874,7447.6
626.039,7297.1
626.203,7483.7
626.367,7338.7
626.531,7304.2
626.695,7498.9
626.86,7380.2
627.024,7372.6
627.188,7339.5
627.352,7471.9
627.516,7484.9
627.68,7597.5
627.844,7537.8
628.008,7554.4
628.172,7678.8
628.337,7922.5
628.501,7700.4
628.665,7865.4
628.829,7941.1
628.993,7869.0
629.157,8003.8
629.321,8077.0
629.485,8206.8
629.649,8069.5
629.813,7974.2
629.977,7952.4
630.141,7962.6
630.305,7903.2
630.469,7854.0
630.633,8210.2
630.797,8506.5
630.961,8491.4
631.124,8908.4
631.288,9328.2
631.452,9589.5
631.616,10167.5
631.78,10064.5
631.944,9844.8
632.108,9815.7
632.272,9326.5
632.436,9352.1
632.599,9020.2
632.763,8953.2
632.927,8946.5
633.091,9056.1
633.255,8912.8
633.418,8945.9
633.582,8790.2
633.746,8511.1
633.91,8636.2
634.074,8595.2
634.237,8480.9
634.401,8276.4
634.565,8365.1
634.728,8367.4
634.892,8455.2
635.056,8652.3
635.22,8345.4
635.383,8465.1
635.547,8659.5
635.711,8760.9
635.874,9017.5
636.038,9562.5
636.202,10035.9
636.365,10646.2
636.529,10841.2
636.692,10414.5
636.856,9630.3
637.02,9338.1
637.183,8995.9
637.347,8907.0
637.51,8659.1
637.674,8630.3
637.837,8600.7
638.001,8628.4
638.164,8575.5
638.328,8584.0
638.491,8392.9
638.655,8430.6
638.818,8471.8
638.982,8412.2
639.145,8594.5
639.309,8356.1
639.472,8425.6
639.636,8307.6
639.799,8516.1
639.963,8615.5
640.126,8542.0
640.289,8492.4
640.453,8087.8
640.616,8496.1
640.78,8396.3
640.943,8405.3
641.106,8280.4
641.27,8486.1
641.433,8526.8
641.596,8505.3
641.76,8510.5
641.923,8713.0
642.086,8815.8
642.249,8638.0
642.413,8843.6
642.576,8559.8
642.739,8588.5
642.903,8488.0
643.066,8518.8
643.229,8346.3
643.392,8646.4
643.555,8479.7
643.719,8697.1
643.882,8562.1
644.045,8508.7
644.208,8703.1
644.371,8308.5
644.534,8657.4
644.698,8548.3
644.861,8487.7
645.024,8733.8
645.187,8556.2
645.35,8617.3
645.513,8652.1
645.676,8576.8
645.839,8739.5
646.002,8530.1
646.165,8405.8
646.329,8437.3
646.492,8569.3
646.655,8432.4
646.818,8600.0
646.981,8833.9
647.144,8548.1
647.307,8696.7
647.47,8732.7
647.633,8600.8
647.796,8397.1
647.958,8524.3
648.121,8692.3
648.284,8213.5
648.447,8191.6
648.61,8524.4
648.773,8460.4
648.936,8380.8
649.099,8764.1
649.262,8375.7
649.425,8065.3
649.587,8348.9
649.75,8672.8
649.913,8389.3
650.076,8353.6
650.239,8177.2
650.402,8506.4
650.564,8707.0
650.727,8451.6
650.89,8386.8
651.053,8478.1
651.215,8418.9
651.378,8191.1
651.541,8182.6
651.704,8296.1
651.866,8188.7
652.029,8189.0
652.192,8302.4
652.354,8288.7
652.517,8120.6
652.68,8250.5
652.842,8365.5
653.005,8070.3
653.168,7947.5
653.33,8246.1
653.493,7988.1
653.656,8115.4
653.818,8004.1
653.981,8196.3
654.143,8045.4
654.306,8000.4
654.468,7937.3
654.631,7827.4
654.794,8075.6
654.956,7974.7
655.119,8074.4
655.281,8051.8
655.444,7876.8
655.606,7673.5
655.769,7819.3
655.931,7991.1
656.093,8015.2
656.256,7776.9
656.418,7735.7
656.581,7778.2
656.743,7677.7
656.906,7753.1
657.068,7855.2
657.23,7996.1
657.393,7707.6
657.555,7599.0
657.718,7834.2
657.88,7642.2
658.042,7610.1
658.205,7578.0
658.367,7508.9
658.529,7653.5
658.691,7519.6
658.854,7571.2
659.016,7371.2
659.178,7502.0
659.341,7262.5
659.503,7363.4
659.665,7247.5
659.827,7187.2
659.989,7336.4
660.152,7166.3
660.314,7203.1
660.476,7274.9
660.638,7186.7
660.8,7077.6
660.963,7262.4
661.044,7142.0