File: spectra/VLFR_06-PET_bio_Raman_cdc18f22.csv
nm,Intensity
526.493,828.95
526.629,828.3
526.766,828.6
526.903,829.15
527.039,829.8
527.176,829.05
527.313,829.45
527.449,828.9
527.586,829.25
527.723,829.5
527.859,828.7
527.996,829.25
528.133,829.15
528.269,829.65
528.406,829.4
528.542,828.65
528.679,829.2
528.816,829.75
528.952,829.75
529.089,829.0
529.225,829.55
529.362,829.6
529.498,829.25
529.635,829.15
529.771,829.35
529.908,828.35
530.044,829.55
530.181,829.0
530.317,829.55
530.454,828.9
530.59,830.35
530.727,827.95
530.863,829.5
531.0,829.8
531.136,829.3
531.273,829.6
531.409,829.95
531.546,829.65
531.682,829.4
531.818,829.7
531.955,833.05
532.091,857.35
532.227,868.05
532.364,838.95
532.5,830.05
532.637,829.35
532.773,828.95
532.909,829.3
533.046,829.7
533.182,829.15
533.318,830.3
533.455,831.3
533.591,843.35
533.727,940.95
533.863,1395.55
534.0,2146.8
534.136,2497.55
534.272,2489.45
534.408,2396.4
534.545,2305.7
534.681,2260.95
534.817,2178.7
534.953,2092.5
535.09,2021.85
535.226,1958.2
535.362,1916.8
535.498,1886.85
535.634,1859.25
535.771,1830.7
535.907,1791.7
536.043,1769.9
536.179,1744.1
536.315,1739.9
536.451,1714.35
536.588,1707.25
536.724,1714.65
536.86,1695.75
536.996,1702.0
537.132,1688.7
537.268,1686.3
537.404,1685.9
537.54,1678.6
537.676,1686.55
537.812,1692.0
537.948,1687.85
538.084,1695.0
538.22,1710.05
538.357,1702.15
538.493,1705.1
538.629,1714.3
538.765,1706.55
538.901,1702.2
539.037,1710.9
539.173,1707.2
539.309,1721.9
539.444,1721.55
539.58,1742.7
539.716,1735.5
539.852,1744.15
539.988,1742.8
540.124,1744.0
540.26,1732.35
540.396,1729.2
540.532,1725.75
540.668,1719.2
540.804,1717.05
540.94,1717.75
541.076,1718.05
541.211,1730.15
541.347,1729.4
541.483,1730.55
541.619,1734.25
541.755,1744.7
541.891,1732.8
542.026,1743.5
542.162,1742.95
542.298,1742.95
542.434,1744.2
542.57,1741.95
542.705,1747.4
542.841,1754.45
542.977,1758.6
543.113,1757.0
543.249,1763.35
543.384,1770.15
543.52,1765.35
543.656,1773.95
543.791,1786.2
543.927,1791.25
544.063,1780.55
544.199,1785.55
544.334,1784.5
544.47,1789.2
544.606,1788.0
544.741,1797.05
544.877,1804.25
545.013,1809.5
545.148,1814.1
545.284,1813.1
545.42,1811.3
545.555,1811.45
545.691,1819.85
545.827,1815.4
545.962,1820.9
546.098,1826.5
546.233,1831.35
546.369,1835.3
546.504,1833.25
546.64,1839.55
546.776,1839.95
546.911,1841.3
547.047,1851.9
547.182,1846.6
547.318,1847.85
547.453,1850.55
547.589,1854.8
547.724,1851.6
547.86,1854.65
547.995,1866.6
548.131,1860.1
548.266,1863.85
548.402,1869.45
548.537,1869.65
548.673,1877.05
548.808,1872.85
548.944,1886.05
549.079,1879.45
549.214,1886.25
549.35,1888.15
549.485,1890.7
549.621,1887.8
549.756,1899.7
549.892,1902.0
550.027,1897.95
550.162,1902.45
550.298,1909.25
550.433,1906.75
550.568,1971.25
550.704,2045.0
550.839,1994.55
550.974,1929.0
551.11,1926.0
551.245,1925.5
551.38,1922.55
551.516,1933.2
551.651,1939.75
551.786,1931.55
551.922,1941.25
552.057,1944.25
552.192,1946.05
552.327,1943.1
552.463,1936.6
552.598,1954.3
552.733,1970.15
552.868,1993.25
553.004,1981.6
553.139,1960.2
553.274,1951.5
553.409,1952.5
553.544,1963.8
553.68,1970.1
553.815,1973.2
553.95,1977.5
554.085,1972.15
554.22,1971.2
554.356,1983.85
554.491,1987.05
554.626,1980.25
554.761,1989.75
554.896,1981.15
555.031,1988.1
555.166,1994.3
555.301,1987.1
555.437,2002.8
555.572,2021.55
555.707,2036.7
555.842,2023.0
555.977,2017.05
556.112,2028.75
556.247,2038.85
556.382,2032.4
556.517,2042.75
556.652,2038.55
556.787,2059.4
556.922,2059.05
557.057,2065.55
557.192,2097.15
557.327,2104.6
557.462,2160.7
557.597,2180.75
557.732,2166.65
557.867,2103.3
558.002,2078.4
558.137,2074.3
558.272,2075.1
558.407,2069.85
558.542,2064.85
558.677,2058.55
558.812,2051.35
558.947,2049.05
559.082,2047.5
559.217,2053.8
559.351,2047.9
559.486,2047.15
559.621,2049.85
559.756,2053.55
559.891,2059.55
560.026,2060.0
560.161,2074.0
560.295,2077.05
560.43,2065.3
560.565,2078.8
560.7,2064.7
560.835,2071.95
560.97,2078.55
561.104,2078.45
561.239,2068.75
561.374,2078.0
561.509,2081.2
561.644,2087.25
561.778,2078.35
561.913,2082.25
562.048,2081.15
562.183,2103.25
562.317,2089.1
562.452,2097.9
562.587,2104.8
562.722,2121.1
562.856,2130.5
562.991,2135.75
563.126,2142.5
563.26,2142.2
563.395,2137.4
563.53,2144.8
563.665,2141.15
563.799,2161.5
563.934,2160.5
564.069,2150.2
564.203,2156.6
564.338,2160.35
564.472,2171.25
564.607,2179.75
564.742,2188.85
564.876,2200.65
565.011,2216.05
565.146,2233.4
565.28,2241.7
565.415,2261.05
565.549,2258.5
565.684,2274.5
565.818,2277.1
565.953,2273.45
566.088,2257.55
566.222,2246.5
566.357,2238.5
566.491,2218.15
566.626,2204.65
566.76,2206.7
566.895,2197.75
567.029,2196.15
567.164,2202.85
567.298,2211.05
567.433,2216.85
567.567,2237.4
567.702,2270.75
567.836,2267.55
567.971,2241.7
568.105,2219.05
568.24,2225.3
568.374,2230.8
568.509,2238.3
568.643,2242.05
568.777,2249.9
568.912,2251.15
569.046,2259.4
569.181,2261.8
569.315,2269.4
569.449,2279.25
569.584,2289.5
569.718,2281.7
569.853,2302.9
569.987,2298.9
570.121,2313.8
570.256,2310.6
570.39,2335.95
570.524,2351.4
570.659,2383.8
570.793,2412.5
570.927,2429.5
571.062,2466.75
571.196,2498.1
571.33,2495.5
571.465,2491.85
571.599,2451.15
571.733,2412.4
571.867,2397.75
572.002,2396.0
572.136,2383.65
572.27,2365.5
572.404,2364.0
572.539,2346.7
572.673,2340.6
572.807,2351.9
572.941,2348.8
573.076,2352.4
573.21,2342.6
573.344,2352.75
573.478,2351.6
573.612,2371.0
573.747,2366.35
573.881,2384.45
574.015,2388.2
574.149,2380.25
574.283,2384.7
574.417,2373.95
574.552,2379.85
574.686,2376.15
574.82,2376.1
574.954,2376.5
575.088,2390.0
575.222,2402.2
575.356,2417.05
575.491,2411.8
575.625,2395.7
575.759,2383.7
575.893,2381.4
576.027,2388.45
576.161,2396.95
576.295,2409.0
576.429,2419.35
576.563,2416.2
576.697,2423.05
576.831,2418.5
576.965,2414.45
577.099,2425.15
577.233,2409.8
577.367,2416.2
577.501,2412.3
577.635,2406.5
577.769,2397.55
577.903,2392.45
578.037,2408.1
578.171,2417.45
578.305,2420.15
578.439,2413.0
578.573,2419.2
578.707,2424.85
578.841,2423.95
578.975,2425.75
579.109,2414.6
579.243,2436.55
579.377,2437.35
579.511,2443.55
579.645,2442.25
579.779,2454.6
579.913,2452.7
580.046,2436.8
580.18,2452.35
580.314,2459.15
580.448,2455.65
580.582,2441.8
580.716,2466.55
580.85,2466.5
580.984,2472.3
581.117,2477.85
581.251,2472.5
581.385,2485.3
581.519,2512.95
581.653,2552.75
581.787,2629.35
581.92,2793.5
582.054,3051.4
582.188,3280.85
582.322,3055.3
582.456,2699.8
582.589,2535.35
582.723,2488.45
582.857,2464.3
582.991,2459.05
583.124,2449.9
583.258,2440.8
583.392,2443.65
583.526,2436.25
583.659,2442.95
583.793,2439.9
583.927,2439.3
584.061,2432.9
584.194,2437.3
584.328,2443.5
584.462,2434.95
584.595,2438.05
584.729,2434.25
584.863,2446.65
584.997,2439.45
585.13,2465.55
585.264,2467.45
585.398,2497.25
585.531,2562.35
585.665,2661.45
585.798,2778.15
585.932,2855.9
586.066,2883.2
586.199,2848.8
586.333,2801.35
586.467,2734.45
586.6,2644.4
586.734,2581.8
586.867,2534.0
587.001,2497.0
587.135,2478.45
587.268,2477.8
587.402,2467.5
587.535,2466.35
587.669,2450.05
587.802,2460.75
587.936,2451.5
588.07,2456.25
588.203,2451.25
588.337,2453.05
588.47,2453.5
588.604,2443.1
588.737,2444.05
588.871,2434.0
589.004,2430.65
589.138,2424.1
589.271,2436.0
589.405,2426.6
589.538,2427.05
589.672,2433.1
589.805,2430.35
589.939,2431.85
590.072,2433.1
590.206,2431.45
590.339,2438.9
590.472,2434.7
590.606,2444.15
590.739,2436.05
590.873,2440.35
591.006,2430.1
591.14,2448.05
591.273,2443.1
591.406,2449.1
591.54,2437.8
591.673,2441.6
591.807,2440.6
591.94,2441.6
592.073,2438.95
592.207,2438.4
592.34,2441.8
592.473,2428.4
592.607,2428.85
592.74,2442.95
592.873,2426.5
593.007,2429.65
593.14,2429.55
593.273,2430.9
593.407,2427.3
593.54,2423.05
593.673,2426.3
593.807,2419.4
593.94,2424.45
594.073,2429.65
594.207,2437.8
594.34,2431.45
594.473,2433.0
594.606,2437.1
594.74,2442.0
594.873,2431.0
595.006,2434.55
595.14,2436.25
595.273,2448.75
595.406,2442.6
595.539,2456.65
595.673,2454.1
595.806,2440.2
595.939,2456.5
596.072,2448.65
596.205,2444.8
596.339,2428.95
596.472,2462.75
596.605,2441.85
596.738,2452.4
596.871,2454.3
597.005,2455.6
597.138,2462.0
597.271,2447.65
597.404,2453.2
597.537,2444.25
597.67,2451.55
597.804,2455.6
597.937,2448.6
598.07,2455.45
598.203,2466.15
598.336,2491.65
598.469,2458.9
598.602,2459.95
598.735,2471.15
598.869,2464.85
599.002,2460.85
599.135,2473.35
599.268,2464.85
599.401,2457.0
599.534,2455.75
599.667,2465.5
599.8,2460.0
599.933,2458.8
600.066,2464.3
600.199,2459.2
600.332,2451.6
600.465,2440.5
600.598,2441.9
600.731,2444.8
600.865,2434.45
600.998,2430.6
601.131,2437.45
601.264,2440.9
601.397,2437.55
601.53,2426.35
601.663,2430.6
601.796,2421.4
601.929,2425.1
602.062,2432.3
602.195,2426.15
602.328,2423.95
602.46,2436.75
602.593,2429.55
602.726,2427.2
602.859,2439.35
602.992,2435.8
603.125,2424.75
603.258,2427.6
603.391,2437.85
603.524,2423.35
603.657,2434.6
603.79,2437.65
603.923,2429.9
604.056,2420.05
604.189,2430.05
604.322,2425.7
604.454,2422.85
604.587,2410.5
604.72,2400.15
604.853,2401.0
604.986,2398.2
605.119,2391.8
605.252,2379.75
605.385,2375.35
605.517,2373.7
605.65,2368.15
605.783,2365.05
605.916,2355.05
606.049,2361.25
606.182,2364.75
606.315,2346.6
606.447,2366.45
606.58,2343.9
606.713,2347.05
606.846,2353.7
606.979,2352.05
607.111,2357.7
607.244,2355.25
607.377,2346.4
607.51,2355.0
607.643,2351.8
607.775,2357.6
607.908,2354.25
608.041,2355.1
608.174,2360.65
608.306,2354.55
608.439,2351.95
608.572,2361.8
608.705,2354.65
608.837,2353.3
608.97,2366.7
609.103,2357.5
609.236,2357.05
609.368,2355.0
609.501,2350.45
609.634,2355.8
609.766,2339.85
609.899,2341.75
610.032,2350.05
610.164,2345.35
610.297,2340.3
610.43,2330.6
610.563,2328.3
610.695,2312.9
610.828,2320.45
610.961,2327.95
611.093,2323.65
611.226,2310.8
611.359,2322.05
611.491,2325.45
611.624,2332.95
611.756,2331.15
611.889,2332.7
612.022,2328.05
612.154,2342.65
612.287,2341.65
612.42,2333.75
612.552,2341.1
612.685,2334.0
612.817,2339.4
612.95,2345.4
613.083,2337.85
613.215,2347.65
613.348,2345.45
613.48,2363.2
613.613,2345.7
613.745,2350.2
613.878,2350.65
614.011,2340.95
614.143,2346.25
614.276,2347.2
614.408,2332.95
614.541,2337.15
614.673,2332.2
614.806,2334.3
614.938,2327.7
615.071,2335.55
615.203,2323.95
615.336,2321.45
615.469,2315.35
615.601,2319.95
615.734,2314.95
615.866,2303.35
615.999,2310.15
616.131,2306.7
616.263,2310.1
616.396,2310.35
616.528,2300.75
616.661,2305.1
616.793,2312.95
616.926,2310.65
617.058,2302.5
617.191,2297.55
617.323,2293.8
617.456,2297.5
617.588,2295.15
617.721,2305.55
617.853,2292.2
617.985,2292.3
618.118,2297.85
618.25,2309.7
618.383,2297.55
618.515,2296.4
618.648,2290.2
618.78,2292.4
618.912,2292.0
619.045,2285.95
619.177,2270.65
619.31,2274.6
619.442,2270.85
619.574,2272.25
619.707,2273.25
619.839,2260.9
619.971,2257.15
620.104,2250.55
620.236,2257.3
620.369,2248.75
620.501,2248.45
620.633,2237.95
620.766,2239.2
620.898,2230.45
621.03,2235.45
621.163,2231.4
621.295,2241.7
621.427,2224.5
621.56,2240.25
621.692,2235.65
621.824,2232.15
621.957,2229.85
622.089,2232.05
622.221,2235.65
622.353,2222.75
622.486,2233.9
622.618,2228.15
622.75,2230.0
622.883,2231.8
623.015,2242.3
623.147,2229.85
623.279,2232.5
623.412,2235.2
623.544,2224.45
623.676,2225.7
623.808,2232.7
623.941,2221.95
624.073,2228.25
624.205,2216.05
624.337,2221.7
624.47,2218.6
624.602,2218.1
624.734,2209.0
624.866,2215.2
624.999,2208.15
625.131,2217.15
625.263,2201.85
625.395,2201.45
625.527,2207.9
625.66,2200.2
625.792,2207.75
625.924,2188.85
626.056,2184.85
626.188,2185.0
626.321,2181.8
626.453,2185.85
626.585,2173.8
626.717,2179.15
626.849,2182.15
626.981,2168.5
627.114,2162.55
627.246,2164.6
627.378,2159.5
627.51,2160.35
627.642,2163.05
627.774,2151.45
627.906,2152.75
628.039,2159.0
628.171,2152.6
628.303,2147.45
628.435,2161.7
628.567,2153.95
628.699,2171.55
628.831,2164.3
628.963,2165.0
629.095,2176.6
629.228,2164.0
629.36,2155.0
629.492,2163.3
629.624,2164.05
629.756,2150.85
629.888,2146.1
630.02,2154.9
630.152,2137.15
630.284,2146.3
630.416,2143.75
630.548,2148.65
630.68,2141.2
630.813,2147.8
630.945,2157.25
631.077,2169.9
631.209,2192.3
631.341,2208.65
631.473,2233.65
631.605,2245.4
631.737,2257.65
631.869,2248.65
632.001,2241.0
632.133,2227.45
632.265,2211.45
632.397,2189.3
632.529,2161.05
632.661,2153.5
632.793,2144.85
632.925,2139.85
633.057,2141.0
633.189,2131.5
633.321,2135.7
633.453,2135.6
633.585,2112.95
633.717,2106.6
633.849,2093.1
633.981,2086.8
634.113,2094.4
634.245,2083.4
634.377,2073.1
634.509,2073.05
634.641,2064.8
634.773,2061.95
634.905,2060.8
635.036,2063.1
635.168,2057.25
635.3,2061.45
635.432,2063.1
635.564,2070.9
635.696,2076.35
635.828,2096.25
635.96,2119.4
636.092,2128.2
636.224,2143.3
636.356,2159.35
636.488,2185.2
636.62,2200.45
636.751,2193.65
636.883,2143.4
637.015,2106.2
637.147,2084.8
637.279,2064.95
637.411,2048.8
637.543,2039.7
637.675,2036.7
637.807,2025.05
637.938,2022.95
638.07,2017.0
638.202,2000.35
638.334,2005.55
638.466,2005.05
638.598,2009.6
638.73,2007.3
638.862,1994.65
638.993,1987.6
639.125,1988.6
639.257,1986.95
639.389,1990.25
639.521,1982.25
639.653,1976.25
639.784,1979.2
639.916,1970.4
640.048,1979.6
640.18,1964.95
640.312,1971.35
640.443,1951.8
640.575,1964.4
640.707,1959.15
640.839,1952.8
640.971,1963.25
641.103,1951.25
641.234,1959.25
641.366,1939.55
641.498,1952.45
641.63,1947.15
641.761,1936.05
641.893,1942.8
642.025,1932.2
642.157,1937.65
642.289,1931.95
642.42,1927.7
642.552,1925.25
642.684,1927.5
642.816,1913.3
642.947,1908.1
643.079,1910.0
643.211,1897.55
643.343,1895.05
643.474,1883.9
643.606,1884.7
643.738,1878.85
643.87,1880.8
644.001,1873.25
644.133,1858.9
644.265,1871.15
644.397,1866.7
644.528,1858.2
644.66,1856.95
644.792,1855.65
644.923,1847.5
645.055,1855.05
645.187,1846.35
645.319,1837.05
645.45,1849.95
645.582,1830.3
645.714,1847.6
645.845,1845.7
645.977,1837.1
646.109,1829.75
646.24,1824.65
646.372,1832.4
646.504,1823.7
646.635,1819.15
646.767,1827.15
646.899,1817.2
647.03,1827.8
647.162,1814.8
647.294,1812.5
647.425,1815.1
647.557,1813.0
647.689,1816.85
647.82,1804.75
647.952,1807.05
648.084,1799.7
648.215,1795.45
648.347,1794.75
648.479,1785.15
648.61,1785.35
648.742,1782.55
648.874,1787.95
649.005,1772.6
649.137,1771.6
649.268,1762.3
649.4,1772.05
649.532,1761.7
649.663,1762.6
649.795,1754.25
649.927,1752.15
650.058,1758.4
650.19,1747.85
650.321,1747.75
650.453,1732.8
650.585,1743.2
650.716,1740.75
650.848,1743.65
650.979,1728.05
651.111,1733.05
651.243,1730.7
651.374,1726.6
651.506,1726.2
651.637,1730.8
651.769,1728.1
651.9,1723.15
652.032,1719.95
652.164,1719.4
652.295,1725.55
652.427,1721.7
652.558,1713.3
652.69,1707.75
652.821,1708.55
652.953,1706.2
653.084,1703.5
653.216,1711.6
653.348,1705.05
653.479,1702.2
653.611,1689.5
653.742,1701.6
653.874,1690.9
654.005,1696.65
654.137,1689.8
654.268,1688.35
654.4,1689.3
654.531,1687.55
654.663,1682.0
654.794,1679.7
654.926,1666.45
655.057,1672.2
655.189,1674.2
655.32,1668.05
655.452,1667.5
655.583,1674.6
655.715,1659.5
655.846,1665.3
655.978,1655.15
656.109,1654.7
656.241,1656.85
656.372,1645.95
656.504,1652.8
656.635,1649.2
656.767,1650.1
656.898,1646.55
657.03,1651.9
657.161,1646.3
657.293,1643.6
657.424,1638.0
657.556,1631.45
657.687,1634.3
657.819,1636.85
657.95,1632.75
658.082,1638.25
658.213,1628.35
658.345,1632.35
658.476,1619.3
658.607,1624.7
658.739,1615.15
658.87,1621.15
659.002,1617.0
659.133,1618.8
659.265,1618.95
659.396,1618.25
659.528,1618.15
659.659,1612.85
659.79,1612.3
659.922,1613.25
660.053,1600.8
660.185,1598.7
660.316,1600.85
660.448,1592.15
660.579,1591.45
660.71,1595.25
660.842,1587.5
660.973,1586.25
661.105,1584.7
661.236,1581.5
661.367,1579.75
661.499,1575.65
661.63,1569.1
661.762,1577.0
661.893,1579.4
662.024,1567.2
662.156,1563.9
662.287,1568.85
662.419,1561.05
662.55,1563.9
662.681,1558.9
662.813,1552.3
662.944,1550.45
663.076,1548.0