File: spectra/VLFR_02-HDPE_nobio_Raman_24bc6922.csv
nm,Intensity
526.547,833.2
526.683,833.9
526.82,832.3
526.957,831.8
527.094,831.4
527.23,832.9
527.367,832.6
527.504,832.9
527.641,832.4
527.777,832.4
527.914,832.6
528.051,832.8
528.188,833.5
528.324,830.7
528.461,833.2
528.598,830.8
528.734,832.3
528.871,833.4
529.008,831.7
529.144,833.0
529.281,833.6
529.417,833.5
529.554,832.3
529.691,833.0
529.827,832.1
529.964,832.2
530.1,833.8
530.237,832.4
530.373,832.2
530.51,833.6
530.647,831.7
530.783,833.2
530.92,832.4
531.056,831.1
531.193,833.2
531.329,833.2
531.466,832.0
531.602,832.2
531.738,833.8
531.875,832.5
532.011,841.8
532.148,865.2
532.284,858.7
532.421,835.8
532.557,831.9
532.693,832.3
532.83,831.3
532.966,833.1
533.103,833.0
533.239,834.2
533.375,833.5
533.512,832.1
533.648,834.7
533.784,840.8
533.921,864.0
534.057,888.9
534.193,894.8
534.33,894.7
534.466,892.0
534.602,889.7
534.738,892.2
534.875,889.6
535.011,886.3
535.147,885.9
535.283,880.4
535.42,879.4
535.556,877.6
535.692,876.4
535.828,876.7
535.964,873.6
536.101,875.0
536.237,871.5
536.373,873.8
536.509,865.8
536.645,868.0
536.781,869.6
536.917,867.7
537.054,866.7
537.19,867.6
537.326,867.4
537.462,867.5
537.598,868.9
537.734,867.2
537.87,865.6
538.006,869.9
538.142,867.4
538.278,866.8
538.414,866.0
538.55,863.9
538.686,866.9
538.822,864.8
538.958,862.6
539.094,862.8
539.23,862.6
539.366,861.7
539.502,859.3
539.638,862.3
539.774,864.3
539.91,864.0
540.046,862.2
540.182,864.3
540.318,862.8
540.454,861.7
540.59,859.9
540.726,859.8
540.862,862.6
540.997,860.8
541.133,860.6
541.269,861.7
541.405,860.0
541.541,861.0
541.677,858.7
541.812,858.9
541.948,861.8
542.084,860.4
542.22,860.9
542.356,860.3
542.492,860.0
542.627,859.5
542.763,862.2
542.899,860.2
543.035,863.5
543.17,864.2
543.306,860.4
543.442,859.4
543.578,859.9
543.713,859.1
543.849,861.6
543.985,860.4
544.12,858.9
544.256,860.5
544.392,861.4
544.527,859.9
544.663,862.0
544.799,859.5
544.934,863.4
545.07,860.5
545.206,861.5
545.341,857.8
545.477,858.0
545.612,858.3
545.748,859.3
545.884,860.2
546.019,864.2
546.155,863.0
546.29,860.5
546.426,861.8
546.562,858.5
546.697,858.9
546.833,860.1
546.968,860.3
547.104,860.3
547.239,859.5
547.375,858.4
547.51,859.8
547.646,861.9
547.781,857.0
547.917,861.3
548.052,860.8
548.188,860.3
548.323,858.1
548.458,860.2
548.594,860.2
548.729,859.8
548.865,860.5
549.0,858.0
549.136,858.8
549.271,864.1
549.406,860.7
549.542,859.6
549.677,859.6
549.812,860.1
549.948,860.8
550.083,860.3
550.219,859.9
550.354,859.0
550.489,860.9
550.625,861.8
550.76,862.2
550.895,859.7
551.03,858.6
551.166,859.5
551.301,861.8
551.436,860.3
551.572,858.9
551.707,862.9
551.842,861.0
551.977,862.3
552.113,861.1
552.248,861.5
552.383,860.9
552.518,861.0
552.654,861.5
552.789,859.1
552.924,859.3
553.059,864.0
553.194,860.8
553.329,862.2
553.465,863.9
553.6,862.0
553.735,863.4
553.87,863.3
554.005,865.7
554.14,864.2
554.276,863.8
554.411,862.5
554.546,865.1
554.681,865.0
554.816,866.0
554.951,863.0
555.086,862.9
555.221,864.6
555.356,864.2
555.491,862.4
555.626,864.4
555.761,868.5
555.896,864.1
556.031,863.6
556.167,866.3
556.302,868.3
556.437,862.8
556.572,865.8
556.707,863.3
556.842,866.4
556.977,870.7
557.112,867.4
557.246,870.5
557.381,869.0
557.516,870.0
557.651,867.6
557.786,869.4
557.921,873.0
558.056,869.4
558.191,871.6
558.326,872.1
558.461,871.0
558.596,871.7
558.731,873.5
558.866,869.9
559.0,871.5
559.135,873.0
559.27,870.4
559.405,870.4
559.54,873.6
559.675,872.8
559.81,871.2
559.944,868.2
560.079,871.0
560.214,872.1
560.349,871.7
560.484,872.2
560.618,873.1
560.753,873.0
560.888,871.1
561.023,869.4
561.158,873.0
561.292,870.9
561.427,873.0
561.562,871.3
561.697,874.3
561.831,874.7
561.966,873.1
562.101,873.4
562.235,877.0
562.37,874.6
562.505,877.5
562.64,874.9
562.774,877.0
562.909,877.4
563.044,880.6
563.178,878.4
563.313,879.3
563.448,882.8
563.582,885.0
563.717,890.7
563.852,909.1
563.986,955.3
564.121,988.7
564.255,936.2
564.39,902.0
564.525,898.0
564.659,898.0
564.794,899.1
564.928,894.0
565.063,893.3
565.198,892.9
565.332,891.1
565.467,889.9
565.601,893.0
565.736,891.1
565.87,904.7
566.005,934.8
566.139,1024.3
566.274,1048.0
566.408,956.9
566.543,906.5
566.677,892.4
566.812,894.1
566.946,886.9
567.081,887.0
567.215,889.9
567.35,891.5
567.484,897.3
567.619,893.5
567.753,886.2
567.887,885.5
568.022,886.0
568.156,889.2
568.291,887.6
568.425,886.9
568.56,889.7
568.694,887.1
568.828,889.0
568.963,887.3
569.097,889.0
569.231,890.1
569.366,889.6
569.5,889.2
569.635,893.0
569.769,890.2
569.903,890.2
570.038,890.4
570.172,894.3
570.306,893.6
570.441,896.9
570.575,901.4
570.709,903.3
570.843,905.4
570.978,900.7
571.112,904.1
571.246,911.1
571.381,942.5
571.515,1047.2
571.649,1071.5
571.783,963.5
571.918,928.4
572.052,920.1
572.186,913.0
572.32,915.0
572.455,912.0
572.589,908.4
572.723,906.3
572.857,909.5
572.991,903.8
573.126,908.0
573.26,907.2
573.394,911.2
573.528,910.1
573.662,909.8
573.796,913.2
573.931,916.4
574.065,920.0
574.199,917.5
574.333,914.4
574.467,914.8
574.601,912.7
574.735,917.8
574.869,917.5
575.004,921.2
575.138,920.8
575.272,928.6
575.406,953.1
575.54,1011.5
575.674,1007.8
575.808,972.3
575.942,967.4
576.076,983.0
576.21,1012.5
576.344,1035.7
576.478,1023.8
576.612,1003.3
576.746,998.6
576.88,996.9
577.014,1001.8
577.148,1002.6
577.282,989.2
577.416,981.9
577.55,971.2
577.684,966.4
577.818,959.1
577.952,959.2
578.086,966.2
578.22,959.6
578.354,962.4
578.488,965.0
578.622,970.2
578.756,968.3
578.89,971.5
579.024,979.9
579.158,977.0
579.292,980.6
579.426,987.4
579.559,980.5
579.693,984.4
579.827,989.0
579.961,987.9
580.095,989.7
580.229,996.8
580.363,997.0
580.497,997.5
580.63,1002.1
580.764,1006.7
580.898,1009.5
581.032,1008.0
581.166,1014.8
581.3,1019.3
581.433,1013.7
581.567,1021.4
581.701,1021.7
581.835,1025.3
581.969,1023.0
582.102,1028.7
582.236,1033.9
582.37,1032.9
582.504,1040.6
582.637,1036.8
582.771,1038.4
582.905,1040.7
583.039,1050.8
583.172,1046.1
583.306,1050.2
583.44,1055.1
583.574,1052.9
583.707,1059.4
583.841,1057.8
583.975,1057.8
584.108,1061.0
584.242,1070.2
584.376,1068.9
584.51,1066.2
584.643,1069.7
584.777,1066.2
584.911,1077.2
585.044,1077.9
585.178,1074.0
585.312,1076.2
585.445,1080.7
585.579,1080.0
585.712,1082.2
585.846,1079.7
585.98,1085.7
586.113,1089.8
586.247,1088.3
586.381,1092.5
586.514,1099.1
586.648,1089.4
586.781,1090.4
586.915,1094.1
587.048,1092.7
587.182,1100.1
587.316,1102.9
587.449,1101.5
587.583,1099.2
587.716,1103.9
587.85,1106.9
587.983,1107.1
588.117,1101.8
588.25,1100.9
588.384,1107.1
588.517,1110.5
588.651,1107.8
588.784,1106.5
588.918,1108.2
589.051,1112.4
589.185,1108.0
589.318,1117.0
589.452,1109.3
589.585,1115.9
589.719,1115.2
589.852,1111.6
589.986,1114.0
590.119,1116.3
590.253,1117.9
590.386,1117.8
590.519,1118.9
590.653,1118.3
590.786,1121.1
590.92,1117.5
591.053,1120.7
591.187,1119.7
591.32,1123.5
591.453,1132.0
591.587,1136.4
591.72,1134.6
591.853,1132.5
591.987,1130.5
592.12,1131.5
592.254,1133.3
592.387,1134.4
592.52,1130.4
592.654,1135.7
592.787,1133.1
592.92,1136.3
593.054,1124.9
593.187,1136.0
593.32,1136.6
593.454,1133.3
593.587,1132.0
593.72,1134.7
593.853,1135.0
593.987,1138.5
594.12,1135.7
594.253,1140.7
594.387,1132.2
594.52,1141.0
594.653,1140.0
594.786,1141.3
594.92,1142.1
595.053,1145.6
595.186,1148.2
595.319,1146.3
595.453,1142.5
595.586,1145.6
595.719,1153.1
595.852,1156.9
595.985,1141.2
596.119,1142.5
596.252,1144.9
596.385,1146.7
596.518,1151.3
596.651,1143.8
596.785,1153.7
596.918,1154.3
597.051,1151.2
597.184,1152.7
597.317,1154.1
597.45,1156.4
597.584,1154.1
597.717,1150.8
597.85,1155.6
597.983,1159.7
598.116,1164.5
598.249,1158.6
598.382,1164.1
598.516,1158.3
598.649,1163.8
598.782,1165.4
598.915,1163.5
599.048,1160.2
599.181,1162.6
599.314,1166.6
599.447,1160.2
599.58,1169.5
599.713,1169.4
599.846,1159.4
599.979,1165.9
600.113,1168.1
600.246,1167.5
600.379,1164.1
600.512,1163.2
600.645,1166.6
600.778,1165.8
600.911,1162.9
601.044,1162.7
601.177,1163.5
601.31,1166.0
601.443,1162.5
601.576,1163.2
601.709,1172.6
601.842,1167.9
601.975,1169.3
602.108,1167.8
602.241,1166.3
602.374,1176.1
602.507,1163.6
602.64,1161.3
602.773,1161.2
602.905,1157.1
603.038,1167.1
603.171,1160.4
603.304,1156.2
603.437,1157.5
603.57,1159.2
603.703,1159.0
603.836,1152.0
603.969,1158.1
604.102,1161.5
604.235,1150.2
604.368,1154.5
604.501,1147.6
604.633,1143.9
604.766,1145.4
604.899,1141.5
605.032,1148.0
605.165,1139.3
605.298,1138.8
605.431,1140.3
605.563,1131.7
605.696,1128.9
605.829,1125.1
605.962,1131.2
606.095,1129.7
606.228,1127.3
606.36,1116.9
606.493,1118.5
606.626,1119.9
606.759,1117.0
606.892,1117.8
607.025,1114.2
607.157,1112.7
607.29,1110.9
607.423,1112.9
607.556,1107.1
607.688,1111.0
607.821,1109.8
607.954,1105.4
608.087,1104.4
608.219,1105.6
608.352,1101.6
608.485,1103.8
608.618,1096.1
608.75,1104.9
608.883,1102.2
609.016,1107.4
609.149,1093.2
609.281,1087.4
609.414,1092.5
609.547,1092.5
609.68,1088.6
609.812,1086.9
609.945,1084.3
610.078,1094.4
610.21,1090.8
610.343,1081.8
610.476,1078.1
610.608,1080.0
610.741,1081.1
610.874,1079.0
611.006,1083.7
611.139,1083.7
611.272,1075.0
611.404,1073.0
611.537,1073.8
611.67,1072.0
611.802,1070.2
611.935,1062.3
612.067,1071.5
612.2,1075.1
612.333,1068.5
612.465,1068.7
612.598,1068.2
612.731,1066.8
612.863,1072.3
612.996,1067.5
613.128,1067.6
613.261,1062.0
613.393,1065.9
613.526,1063.8
613.659,1065.8
613.791,1059.7
613.924,1058.5
614.056,1064.3
614.189,1056.3
614.321,1060.2
614.454,1058.1
614.586,1056.1
614.719,1052.6
614.852,1051.3
614.984,1050.5
615.117,1050.0
615.249,1049.3
615.382,1050.0
615.514,1044.8
615.647,1046.6
615.779,1046.5
615.912,1047.8
616.044,1041.2
616.177,1039.9
616.309,1042.0
616.442,1043.0
616.574,1038.8
616.707,1042.6
616.839,1039.7
616.971,1037.3
617.104,1039.1
617.236,1043.8
617.369,1038.1
617.501,1040.3
617.634,1039.8
617.766,1040.8
617.899,1043.2
618.031,1038.4
618.163,1032.0
618.296,1036.3
618.428,1027.5
618.561,1035.6
618.693,1032.2
618.826,1032.5
618.958,1030.0
619.09,1034.2
619.223,1028.1
619.355,1032.9
619.487,1031.2
619.62,1034.5
619.752,1026.5
619.885,1035.1
620.017,1027.5
620.149,1033.3
620.282,1033.6
620.414,1021.2
620.546,1026.0
620.679,1026.3
620.811,1024.0
620.943,1028.9
621.076,1020.5
621.208,1031.4
621.34,1036.3
621.473,1030.7
621.605,1036.1
621.737,1036.8
621.87,1047.2
622.002,1050.8
622.134,1052.6
622.267,1054.3
622.399,1053.0
622.531,1052.2
622.663,1044.5
622.796,1040.1
622.928,1036.6
623.06,1028.8
623.193,1029.9
623.325,1019.6
623.457,1022.6
623.589,1023.4
623.722,1026.5
623.854,1021.3
623.986,1024.2
624.118,1022.9
624.251,1023.5
624.383,1025.8
624.515,1020.9
624.647,1026.1
624.78,1023.4
624.912,1023.8
625.044,1022.7
625.176,1029.6
625.308,1019.9
625.441,1022.9
625.573,1028.4
625.705,1028.4
625.837,1033.1
625.969,1036.5
626.102,1037.6
626.234,1043.4
626.366,1051.9
626.498,1068.7
626.63,1111.3
626.762,1155.8
626.895,1266.9
627.027,1418.2
627.159,1572.3
627.291,1627.2
627.423,1560.9
627.555,1471.6
627.687,1414.1
627.82,1362.3
627.952,1341.7
628.084,1319.6
628.216,1326.4
628.348,1396.3
628.48,1568.0
628.612,1731.0
628.744,1603.0
628.877,1457.5
629.009,1397.2
629.141,1371.0
629.273,1358.0
629.405,1331.8
629.537,1304.5
629.669,1281.2
629.801,1252.2
629.933,1235.1
630.065,1234.3
630.197,1228.6
630.33,1222.4
630.462,1213.4
630.594,1205.0
630.726,1185.9
630.858,1158.9
630.99,1129.5
631.122,1102.5
631.254,1079.2
631.386,1059.0
631.518,1058.9
631.65,1056.6
631.782,1047.8
631.914,1049.2
632.046,1043.6
632.178,1042.6
632.31,1042.3
632.442,1042.7
632.574,1040.8
632.706,1040.1
632.838,1039.6
632.97,1034.6
633.102,1031.1
633.234,1033.9
633.366,1034.0
633.498,1037.1
633.63,1035.0
633.762,1029.0
633.894,1023.9
634.026,1029.8
634.158,1034.2
634.29,1034.9
634.422,1029.1
634.554,1030.3
634.686,1030.0
634.818,1023.0
634.95,1031.1
635.082,1028.9
635.214,1032.5
635.346,1029.8
635.477,1030.9
635.609,1028.5
635.741,1035.0
635.873,1032.4
636.005,1034.8
636.137,1027.6
636.269,1030.1
636.401,1036.1
636.533,1024.4
636.665,1031.0
636.797,1028.4
636.929,1027.2
637.06,1034.5
637.192,1027.4
637.324,1026.8
637.456,1033.1
637.588,1025.2
637.72,1031.0
637.852,1025.8
637.984,1029.5
638.115,1028.2
638.247,1030.9
638.379,1029.3
638.511,1034.2
638.643,1029.0
638.775,1029.3
638.907,1027.0
639.039,1032.1
639.17,1023.4
639.302,1027.5
639.434,1022.7
639.566,1027.6
639.698,1025.9
639.83,1025.5
639.961,1026.7
640.093,1025.4
640.225,1033.0
640.357,1027.6
640.489,1024.4
640.62,1030.4
640.752,1026.5
640.884,1029.4
641.016,1028.0
641.148,1028.5
641.279,1026.2
641.411,1027.0
641.543,1030.4
641.675,1023.3
641.807,1026.7
641.938,1022.6
642.07,1028.6
642.202,1027.3
642.334,1026.7
642.466,1022.2
642.597,1030.6
642.729,1021.4
642.861,1022.3
642.993,1019.6
643.124,1022.9
643.256,1021.2
643.388,1026.8
643.52,1017.1
643.651,1018.4
643.783,1020.9
643.915,1018.4
644.047,1019.4
644.178,1023.2
644.31,1021.8
644.442,1021.1
644.574,1024.1
644.705,1016.2
644.837,1017.8
644.969,1017.3
645.1,1017.7
645.232,1019.0
645.364,1021.0
645.496,1017.7
645.627,1013.0
645.759,1015.0
645.891,1017.9
646.022,1014.1
646.154,1014.4
646.286,1017.8
646.417,1017.0
646.549,1020.0
646.681,1014.7
646.812,1019.1
646.944,1018.6
647.076,1015.4
647.207,1016.4
647.339,1011.7
647.471,1011.6
647.602,1013.4
647.734,1013.5
647.866,1015.1
647.997,1011.3
648.129,1014.6
648.261,1019.0
648.392,1013.5
648.524,1013.4
648.656,1012.4
648.787,1010.7
648.919,1008.1
649.051,1008.1
649.182,1006.5
649.314,1015.0
649.446,1006.5
649.577,1012.8
649.709,1005.7
649.84,1007.1
649.972,1010.8
650.104,1010.0
650.235,1000.8
650.367,1004.6
650.498,1004.3
650.63,1007.9
650.762,1007.7
650.893,1007.1
651.025,1004.5
651.157,1006.4
651.288,1004.5
651.42,1003.9
651.551,1008.6
651.683,1000.8
651.814,1008.5
651.946,1006.1
652.078,1007.0
652.209,1003.0
652.341,1003.5
652.472,1007.8
652.604,999.8
652.736,1004.9
652.867,1001.1
652.999,1001.4
653.13,999.3
653.262,1001.0
653.393,1003.1
653.525,1005.0
653.656,1005.3
653.788,998.5
653.92,1003.5
654.051,1003.9
654.183,1004.5
654.314,1000.0
654.446,995.2
654.577,997.2
654.709,1004.2
654.84,995.6
654.972,996.9
655.103,995.7
655.235,993.6
655.366,999.7
655.498,998.6
655.63,998.3
655.761,995.9
655.893,991.6
656.024,997.3
656.156,994.3
656.287,993.0
656.419,992.2
656.55,993.6
656.682,991.4
656.813,988.8
656.945,986.2
657.076,991.0
657.208,994.3
657.339,989.4
657.471,988.5
657.602,983.7
657.734,989.5
657.865,988.4
657.997,983.4
658.128,985.6
658.26,985.1
658.391,986.0
658.522,984.2
658.654,985.8
658.785,982.1
658.917,985.4
659.048,981.2
659.18,980.9
659.311,981.5
659.443,980.1
659.574,980.2
659.706,975.3
659.837,976.5
659.969,984.0
660.1,980.7
660.232,979.8
660.363,972.9
660.494,973.0
660.626,975.9
660.757,972.4
660.889,975.6
661.02,971.4
661.152,970.3
661.283,970.3
661.415,970.1
661.546,961.9
661.677,967.7
661.809,961.6
661.94,963.9
662.072,961.4
662.203,959.3
662.335,959.1
662.466,962.1
662.597,958.4
662.729,959.8
662.86,956.0
662.992,956.4
663.123,954.2