File: spectra/VLFR_06-PET_bio_Raman_de3eba68.csv
nm,Intensity
526.493,828.7
526.629,828.5
526.766,829.15
526.903,829.2
527.039,829.3
527.176,828.65
527.313,829.6
527.449,829.15
527.586,828.85
527.723,829.45
527.859,827.95
527.996,828.4
528.133,829.2
528.269,829.15
528.406,828.9
528.542,828.7
528.679,828.55
528.816,829.75
528.952,829.25
529.089,829.0
529.225,828.45
529.362,828.55
529.498,830.5
529.635,829.45
529.771,828.45
529.908,829.3
530.044,828.3
530.181,828.75
530.317,829.1
530.454,828.85
530.59,828.6
530.727,830.4
530.863,830.3
531.0,828.85
531.136,828.8
531.273,830.15
531.409,829.8
531.546,829.4
531.682,827.9
531.818,829.1
531.955,831.1
532.091,847.45
532.227,855.35
532.364,835.75
532.5,830.15
532.637,829.3
532.773,829.2
532.909,829.5
533.046,828.7
533.182,829.2
533.318,829.0
533.455,830.95
533.591,840.3
533.727,918.0
533.863,1293.6
534.0,1886.9
534.136,2130.3
534.272,2067.4
534.408,1949.8
534.545,1848.55
534.681,1757.35
534.817,1665.85
534.953,1561.25
535.09,1468.7
535.226,1394.35
535.362,1328.25
535.498,1268.1
535.634,1215.55
535.771,1168.75
535.907,1125.15
536.043,1085.05
536.179,1053.8
536.315,1030.1
536.451,1011.75
536.588,993.75
536.724,980.95
536.86,977.1
536.996,966.0
537.132,960.5
537.268,950.85
537.404,949.4
537.54,948.25
537.676,944.0
537.812,939.9
537.948,939.4
538.084,937.85
538.22,947.0
538.357,946.55
538.493,945.0
538.629,944.85
538.765,942.5
538.901,939.4
539.037,940.0
539.173,941.95
539.309,941.9
539.444,949.0
539.58,955.5
539.716,958.85
539.852,967.45
539.988,967.9
540.124,961.0
540.26,948.8
540.396,937.05
540.532,927.55
540.668,918.65
540.804,914.7
540.94,910.1
541.076,908.0
541.211,903.1
541.347,900.85
541.483,899.1
541.619,898.6
541.755,899.15
541.891,898.0
542.026,897.3
542.162,899.6
542.298,898.15
542.434,900.2
542.57,898.45
542.705,898.8
542.841,896.35
542.977,898.55
543.113,896.65
543.249,896.4
543.384,893.65
543.52,893.95
543.656,897.0
543.791,899.1
543.927,905.45
544.063,903.75
544.199,898.5
544.334,898.35
544.47,897.6
544.606,897.1
544.741,897.8
544.877,898.3
545.013,900.55
545.148,898.5
545.284,902.8
545.42,898.3
545.555,900.55
545.691,900.35
545.827,901.95
545.962,900.9
546.098,898.65
546.233,898.45
546.369,901.6
546.504,899.7
546.64,900.65
546.776,902.15
546.911,903.8
547.047,903.4
547.182,901.7
547.318,903.25
547.453,903.05
547.589,902.6
547.724,904.85
547.86,904.05
547.995,904.9
548.131,903.75
548.266,905.55
548.402,903.1
548.537,904.3
548.673,905.25
548.808,909.4
548.944,905.85
549.079,907.3
549.214,905.6
549.35,905.4
549.485,905.2
549.621,904.0
549.756,904.05
549.892,906.6
550.027,907.95
550.162,907.1
550.298,909.6
550.433,924.25
550.568,989.7
550.704,1102.8
550.839,1031.75
550.974,932.8
551.11,914.4
551.245,914.0
551.38,915.0
551.516,913.5
551.651,913.55
551.786,910.6
551.922,912.1
552.057,914.4
552.192,917.2
552.327,917.35
552.463,916.65
552.598,922.45
552.733,947.85
552.868,982.45
553.004,967.45
553.139,941.35
553.274,923.8
553.409,918.25
553.544,921.45
553.68,922.05
553.815,920.8
553.95,921.85
554.085,917.4
554.22,916.9
554.356,915.55
554.491,918.45
554.626,918.85
554.761,918.65
554.896,921.0
555.031,926.4
555.166,928.25
555.301,936.6
555.437,948.2
555.572,977.85
555.707,998.5
555.842,984.45
555.977,983.1
556.112,981.95
556.247,986.6
556.382,990.9
556.517,990.6
556.652,997.95
556.787,997.6
556.922,997.7
557.057,1007.0
557.192,1029.5
557.327,1070.65
557.462,1129.8
557.597,1177.1
557.732,1146.0
557.867,1066.3
558.002,1021.3
558.137,1011.55
558.272,1010.85
558.407,1015.1
558.542,1015.85
558.677,999.1
558.812,990.15
558.947,981.4
559.082,965.3
559.217,955.95
559.351,945.3
559.486,942.15
559.621,939.8
559.756,939.45
559.891,940.5
560.026,936.1
560.161,936.75
560.295,938.45
560.43,936.05
560.565,939.8
560.7,938.65
560.835,940.1
560.97,940.15
561.104,942.0
561.239,942.5
561.374,945.65
561.509,945.6
561.644,947.7
561.778,945.55
561.913,952.85
562.048,957.85
562.183,967.0
562.317,965.45
562.452,958.9
562.587,965.05
562.722,967.95
562.856,971.75
562.991,975.95
563.126,978.95
563.26,979.75
563.395,975.2
563.53,970.25
563.665,969.2
563.799,963.35
563.934,959.4
564.069,960.0
564.203,962.3
564.338,960.05
564.472,971.05
564.607,976.95
564.742,980.5
564.876,995.4
565.011,1014.55
565.146,1035.7
565.28,1044.55
565.415,1055.9
565.549,1072.6
565.684,1089.05
565.818,1103.2
565.953,1100.05
566.088,1074.9
566.222,1048.8
566.357,1023.7
566.491,1000.6
566.626,988.05
566.76,970.95
566.895,969.3
567.029,969.15
567.164,968.7
567.298,973.35
567.433,991.95
567.567,1021.7
567.702,1050.55
567.836,1047.0
567.971,1013.55
568.105,991.05
568.24,978.15
568.374,974.8
568.509,971.4
568.643,969.4
568.777,969.4
568.912,969.05
569.046,973.65
569.181,971.5
569.315,974.45
569.449,978.55
569.584,988.9
569.718,996.5
569.853,1005.05
569.987,1005.0
570.121,1012.9
570.256,1021.85
570.39,1045.3
570.524,1079.6
570.659,1115.95
570.793,1142.3
570.927,1168.6
571.062,1217.45
571.196,1269.9
571.33,1297.25
571.465,1290.0
571.599,1237.45
571.733,1174.3
571.867,1141.05
572.002,1129.5
572.136,1102.35
572.27,1066.4
572.404,1040.1
572.539,1025.25
572.673,1013.5
572.807,1003.45
572.941,996.55
573.076,993.15
573.21,996.0
573.344,989.85
573.478,992.6
573.612,995.6
573.747,999.0
573.881,1007.95
574.015,1019.9
574.149,1025.65
574.283,1019.0
574.417,1009.65
574.552,1005.2
574.686,1001.25
574.82,1005.1
574.954,1007.75
575.088,1012.8
575.222,1031.5
575.356,1049.65
575.491,1050.7
575.625,1024.6
575.759,1010.25
575.893,1006.85
576.027,1008.45
576.161,1021.8
576.295,1030.75
576.429,1038.65
576.563,1044.55
576.697,1046.7
576.831,1043.45
576.965,1043.05
577.099,1032.8
577.233,1024.75
577.367,1011.55
577.501,1010.95
577.635,1002.1
577.769,997.35
577.903,999.35
578.037,999.9
578.171,1002.0
578.305,1002.7
578.439,1003.4
578.573,1006.35
578.707,1003.5
578.841,1002.25
578.975,1001.0
579.109,1002.05
579.243,1004.3
579.377,1004.9
579.511,1001.0
579.645,1004.8
579.779,1006.9
579.913,1009.8
580.046,1008.25
580.18,1007.25
580.314,1007.7
580.448,1015.0
580.582,1011.35
580.716,1017.45
580.85,1028.55
580.984,1032.2
581.117,1036.6
581.251,1035.0
581.385,1046.6
581.519,1066.75
581.653,1112.15
581.787,1212.15
581.92,1406.3
582.054,1818.55
582.188,2260.65
582.322,2067.4
582.456,1465.95
582.589,1158.7
582.723,1082.15
582.857,1058.8
582.991,1042.8
583.124,1033.65
583.258,1031.1
583.392,1026.8
583.526,1024.6
583.659,1023.45
583.793,1025.45
583.927,1033.1
584.061,1029.3
584.194,1029.9
584.328,1028.5
584.462,1037.1
584.595,1039.8
584.729,1040.25
584.863,1046.9
584.997,1050.6
585.13,1059.65
585.264,1084.0
585.398,1131.15
585.531,1240.95
585.665,1404.1
585.798,1555.45
585.932,1651.0
586.066,1669.1
586.199,1621.65
586.333,1531.1
586.467,1421.1
586.6,1291.6
586.734,1184.2
586.867,1125.05
587.001,1084.9
587.135,1068.0
587.268,1052.9
587.402,1049.7
587.535,1045.1
587.669,1040.1
587.802,1038.9
587.936,1038.45
588.07,1037.9
588.203,1031.85
588.337,1036.55
588.47,1033.6
588.604,1037.25
588.737,1030.55
588.871,1034.65
589.004,1034.2
589.138,1031.35
589.271,1030.25
589.405,1028.9
589.538,1030.55
589.672,1029.6
589.805,1031.15
589.939,1033.6
590.072,1029.85
590.206,1028.8
590.339,1031.35
590.472,1028.65
590.606,1028.95
590.739,1026.9
590.873,1029.7
591.006,1030.3
591.14,1030.65
591.273,1028.45
591.406,1033.25
591.54,1025.0
591.673,1029.7
591.807,1035.45
591.94,1029.0
592.073,1028.05
592.207,1031.4
592.34,1030.3
592.473,1033.7
592.607,1031.85
592.74,1031.2
592.873,1030.0
593.007,1031.35
593.14,1033.45
593.273,1034.3
593.407,1030.15
593.54,1032.0
593.673,1031.95
593.807,1034.9
593.94,1031.55
594.073,1035.2
594.207,1032.3
594.34,1039.55
594.473,1033.65
594.606,1033.55
594.74,1039.45
594.873,1034.95
595.006,1036.3
595.14,1035.25
595.273,1037.9
595.406,1038.1
595.539,1041.55
595.673,1038.4
595.806,1039.3
595.939,1040.95
596.072,1037.85
596.205,1039.55
596.339,1038.9
596.472,1038.05
596.605,1042.35
596.738,1038.65
596.871,1041.7
597.005,1040.25
597.138,1042.75
597.271,1037.15
597.404,1040.05
597.537,1038.85
597.67,1040.95
597.804,1042.05
597.937,1038.75
598.07,1044.35
598.203,1046.25
598.336,1046.8
598.469,1047.3
598.602,1046.4
598.735,1044.0
598.869,1042.85
599.002,1046.7
599.135,1042.9
599.268,1041.55
599.401,1049.3
599.534,1046.8
599.667,1052.85
599.8,1046.5
599.933,1045.85
600.066,1049.9
600.199,1046.05
600.332,1040.3
600.465,1046.65
600.598,1044.25
600.731,1043.95
600.865,1046.15
600.998,1046.75
601.131,1042.75
601.264,1045.95
601.397,1044.15
601.53,1041.85
601.663,1049.05
601.796,1050.95
601.929,1045.7
602.062,1043.45
602.195,1047.7
602.328,1046.2
602.46,1046.05
602.593,1047.05
602.726,1047.75
602.859,1043.7
602.992,1047.1
603.125,1049.2
603.258,1046.8
603.391,1050.45
603.524,1047.3
603.657,1047.3
603.79,1050.4
603.923,1050.8
604.056,1047.05
604.189,1049.9
604.322,1046.95
604.454,1050.75
604.587,1046.25
604.72,1050.45
604.853,1045.55
604.986,1048.25
605.119,1045.35
605.252,1041.55
605.385,1046.05
605.517,1047.2
605.65,1046.35
605.783,1045.65
605.916,1046.4
606.049,1040.8
606.182,1041.4
606.315,1043.45
606.447,1045.05
606.58,1041.8
606.713,1039.5
606.846,1045.85
606.979,1046.25
607.111,1045.7
607.244,1045.25
607.377,1049.2
607.51,1043.9
607.643,1045.05
607.775,1046.1
607.908,1044.95
608.041,1045.5
608.174,1051.75
608.306,1047.55
608.439,1049.2
608.572,1051.45
608.705,1048.55
608.837,1048.5
608.97,1049.9
609.103,1050.25
609.236,1049.5
609.368,1051.9
609.501,1048.3
609.634,1048.95
609.766,1053.1
609.899,1048.6
610.032,1046.05
610.164,1049.15
610.297,1043.45
610.43,1048.85
610.563,1047.9
610.695,1051.95
610.828,1048.05
610.961,1049.9
611.093,1047.0
611.226,1051.4
611.359,1050.7
611.491,1044.65
611.624,1051.1
611.756,1052.35
611.889,1051.9
612.022,1052.95
612.154,1049.45
612.287,1053.95
612.42,1055.2
612.552,1056.15
612.685,1057.45
612.817,1055.55
612.95,1063.6
613.083,1059.5
613.215,1059.75
613.348,1060.2
613.48,1060.2
613.613,1064.2
613.745,1055.8
613.878,1061.95
614.011,1058.45
614.143,1061.95
614.276,1060.55
614.408,1060.5
614.541,1064.6
614.673,1062.9
614.806,1059.1
614.938,1061.9
615.071,1063.3
615.203,1064.25
615.336,1064.9
615.469,1061.65
615.601,1059.15
615.734,1061.25
615.866,1062.65
615.999,1068.95
616.131,1059.05
616.263,1062.6
616.396,1067.2
616.528,1062.35
616.661,1067.9
616.793,1068.8
616.926,1067.8
617.058,1069.45
617.191,1073.9
617.323,1070.25
617.456,1075.9
617.588,1073.65
617.721,1074.95
617.853,1076.45
617.985,1082.2
618.118,1079.45
618.25,1081.3
618.383,1085.0
618.515,1079.35
618.648,1081.1
618.78,1077.6
618.912,1077.85
619.045,1073.3
619.177,1072.9
619.31,1071.95
619.442,1070.1
619.574,1069.6
619.707,1070.75
619.839,1074.45
619.971,1069.1
620.104,1070.55
620.236,1073.55
620.369,1068.7
620.501,1064.4
620.633,1065.15
620.766,1071.5
620.898,1068.3
621.03,1069.85
621.163,1070.8
621.295,1066.3
621.427,1075.85
621.56,1067.65
621.692,1066.9
621.824,1073.4
621.957,1073.5
622.089,1072.9
622.221,1067.15
622.353,1073.55
622.486,1074.8
622.618,1078.35
622.75,1077.95
622.883,1075.05
623.015,1080.4
623.147,1079.55
623.279,1080.8
623.412,1081.0
623.544,1083.9
623.676,1086.55
623.808,1085.15
623.941,1081.1
624.073,1085.5
624.205,1083.8
624.337,1086.95
624.47,1089.15
624.602,1089.55
624.734,1093.95
624.866,1094.7
624.999,1092.6
625.131,1093.8
625.263,1095.5
625.395,1097.1
625.527,1086.0
625.66,1093.6
625.792,1094.2
625.924,1091.05
626.056,1089.75
626.188,1090.8
626.321,1093.2
626.453,1091.0
626.585,1092.45
626.717,1084.6
626.849,1091.5
626.981,1092.2
627.114,1090.5
627.246,1091.85
627.378,1094.6
627.51,1099.75
627.642,1098.4
627.774,1098.9
627.906,1096.6
628.039,1099.75
628.171,1105.55
628.303,1110.95
628.435,1110.95
628.567,1121.85
628.699,1132.65
628.831,1134.65
628.963,1143.55
629.095,1148.85
629.228,1141.9
629.36,1137.5
629.492,1136.6
629.624,1135.1
629.756,1134.4
629.888,1136.8
630.02,1135.4
630.152,1132.0
630.284,1128.0
630.416,1132.7
630.548,1131.05
630.68,1138.5
630.813,1142.35
630.945,1162.5
631.077,1193.35
631.209,1221.2
631.341,1251.2
631.473,1290.05
631.605,1323.5
631.737,1330.55
631.869,1330.9
632.001,1315.65
632.133,1306.55
632.265,1280.75
632.397,1255.25
632.529,1240.85
632.661,1221.25
632.793,1212.35
632.925,1213.2
633.057,1211.9
633.189,1203.6
633.321,1213.25
633.453,1207.7
633.585,1203.75
633.717,1187.15
633.849,1181.2
633.981,1176.75
634.113,1174.05
634.245,1170.8
634.377,1163.65
634.509,1159.6
634.641,1159.75
634.773,1152.9
634.905,1151.8
635.036,1151.35
635.168,1158.5
635.3,1160.15
635.432,1166.25
635.564,1181.65
635.696,1189.4
635.828,1215.4
635.96,1244.05
636.092,1262.05
636.224,1290.0
636.356,1326.25
636.488,1374.75
636.62,1401.25
636.751,1383.05
636.883,1331.15
637.015,1280.4
637.147,1243.0
637.279,1211.35
637.411,1204.05
637.543,1189.2
637.675,1183.7
637.807,1176.65
637.938,1171.0
638.07,1167.15
638.202,1161.3
638.334,1162.2
638.466,1161.75
638.598,1162.8
638.73,1161.95
638.862,1157.7
638.993,1156.7
639.125,1159.0
639.257,1157.25
639.389,1164.85
639.521,1167.15
639.653,1163.4
639.784,1164.4
639.916,1161.2
640.048,1163.9
640.18,1158.65
640.312,1160.45
640.443,1160.8
640.575,1159.85
640.707,1163.65
640.839,1161.4
640.971,1164.2
641.103,1161.6
641.234,1164.65
641.366,1166.95
641.498,1170.45
641.63,1170.6
641.761,1174.6
641.893,1174.05
642.025,1174.4
642.157,1173.15
642.289,1181.8
642.42,1183.0
642.552,1183.9
642.684,1178.25
642.816,1182.7
642.947,1177.2
643.079,1169.5
643.211,1169.7
643.343,1165.4
643.474,1166.3
643.606,1162.95
643.738,1164.9
643.87,1163.8
644.001,1167.15
644.133,1166.35
644.265,1166.65
644.397,1168.35
644.528,1168.45
644.66,1167.25
644.792,1168.6
644.923,1166.75
645.055,1171.45
645.187,1168.85
645.319,1167.6
645.45,1169.45
645.582,1169.8
645.714,1176.55
645.845,1169.8
645.977,1175.1
646.109,1170.7
646.24,1171.65
646.372,1172.35
646.504,1175.1
646.635,1178.55
646.767,1180.55
646.899,1180.3
647.03,1175.05
647.162,1181.8
647.294,1176.95
647.425,1181.6
647.557,1183.1
647.689,1185.95
647.82,1179.4
647.952,1176.3
648.084,1181.0
648.215,1174.95
648.347,1180.3
648.479,1176.3
648.61,1179.55
648.742,1181.65
648.874,1180.35
649.005,1178.25
649.137,1173.85
649.268,1175.25
649.4,1180.4
649.532,1178.5
649.663,1175.3
649.795,1179.45
649.927,1175.4
650.058,1172.45
650.19,1180.8
650.321,1176.0
650.453,1180.3
650.585,1176.1
650.716,1174.6
650.848,1180.4
650.979,1180.9
651.111,1181.4
651.243,1175.7
651.374,1181.4
651.506,1181.0
651.637,1183.25
651.769,1179.55
651.9,1178.15
652.032,1180.4
652.164,1183.6
652.295,1186.25
652.427,1179.6
652.558,1181.85
652.69,1182.35
652.821,1177.15
652.953,1183.3
653.084,1188.25
653.216,1185.15
653.348,1179.15
653.479,1184.3
653.611,1180.85
653.742,1185.85
653.874,1187.35
654.005,1186.45
654.137,1181.85
654.268,1189.6
654.4,1183.5
654.531,1182.75
654.663,1178.4
654.794,1183.15
654.926,1185.55
655.057,1183.95
655.189,1179.05
655.32,1179.45
655.452,1186.6
655.583,1183.3
655.715,1183.25
655.846,1187.6
655.978,1188.6
656.109,1185.85
656.241,1179.5
656.372,1183.45
656.504,1183.35
656.635,1186.85
656.767,1186.05
656.898,1188.5
657.03,1189.35
657.161,1182.2
657.293,1180.55
657.424,1186.65
657.556,1184.3
657.687,1177.15
657.819,1185.9
657.95,1183.6
658.082,1188.75
658.213,1185.65
658.345,1187.75
658.476,1184.0
658.607,1186.7
658.739,1182.65
658.87,1184.85
659.002,1182.1
659.133,1181.45
659.265,1191.35
659.396,1192.05
659.528,1180.85
659.659,1190.2
659.79,1185.2
659.922,1187.05
660.053,1186.7
660.185,1188.1
660.316,1184.8
660.448,1185.15
660.579,1180.7
660.71,1186.15
660.842,1179.75
660.973,1187.55
661.105,1181.65
661.236,1179.05
661.367,1182.55
661.499,1181.4
661.63,1177.55
661.762,1188.1
661.893,1177.65
662.024,1180.2
662.156,1178.7
662.287,1184.65
662.419,1178.05
662.55,1182.15
662.681,1177.7
662.813,1176.15
662.944,1171.5
663.076,1176.65