File: spectra/VLFR_02-HDPE_bio_Raman_ebeda7c1.csv
nm,Intensity
526.494,833.7
526.631,833.5
526.768,833.3
526.904,835.5
527.041,833.1
527.178,832.5
527.315,833.4
527.451,834.5
527.588,834.5
527.725,833.3
527.862,833.6
527.998,833.0
528.135,834.4
528.272,833.8
528.409,833.6
528.545,835.4
528.682,833.5
528.819,833.7
528.955,834.6
529.092,834.3
529.229,834.5
529.365,835.1
529.502,835.1
529.639,835.0
529.775,834.5
529.912,834.2
530.048,834.0
530.185,834.4
530.321,833.4
530.458,834.1
530.595,835.2
530.731,834.5
530.868,834.0
531.004,834.4
531.141,834.0
531.277,833.6
531.414,834.6
531.55,835.0
531.687,834.0
531.823,835.8
531.96,845.9
532.096,939.3
532.233,965.1
532.369,861.5
532.506,836.7
532.642,834.8
532.778,834.6
532.915,834.5
533.051,833.5
533.188,832.8
533.324,833.7
533.46,834.6
533.597,834.3
533.733,836.8
533.869,847.5
534.006,869.1
534.142,879.6
534.278,879.7
534.415,880.8
534.551,876.2
534.687,876.9
534.824,876.9
534.96,874.3
535.096,873.3
535.232,875.0
535.369,866.0
535.505,868.3
535.641,866.0
535.777,861.5
535.914,860.1
536.05,861.4
536.186,859.8
536.322,859.9
536.458,859.6
536.595,859.1
536.731,860.9
536.867,859.3
537.003,856.7
537.139,855.4
537.275,858.6
537.411,857.9
537.548,859.6
537.684,857.5
537.82,857.7
537.956,857.8
538.092,858.7
538.228,856.8
538.364,857.4
538.5,854.8
538.636,854.8
538.772,857.0
538.908,855.9
539.044,854.1
539.18,855.2
539.316,854.5
539.452,855.3
539.588,853.4
539.724,854.0
539.86,853.4
539.996,854.5
540.132,853.5
540.268,853.2
540.404,851.9
540.54,850.6
540.676,853.2
540.812,852.2
540.948,852.0
541.084,851.7
541.22,851.0
541.355,852.2
541.491,851.7
541.627,852.9
541.763,849.9
541.899,852.9
542.035,852.7
542.171,853.7
542.306,854.7
542.442,855.1
542.578,853.4
542.714,851.8
542.85,853.8
542.985,852.3
543.121,852.0
543.257,855.5
543.393,852.4
543.529,852.8
543.664,851.9
543.8,853.7
543.936,854.0
544.072,853.8
544.207,852.1
544.343,851.6
544.479,850.6
544.614,848.5
544.75,850.2
544.886,853.7
545.021,853.5
545.157,851.9
545.293,852.9
545.428,851.2
545.564,852.0
545.7,852.4
545.835,852.7
545.971,852.6
546.106,853.3
546.242,852.4
546.378,851.4
546.513,852.4
546.649,853.6
546.784,852.1
546.92,853.1
547.055,851.9
547.191,850.1
547.327,853.6
547.462,855.3
547.598,852.2
547.733,855.0
547.869,852.7
548.004,852.1
548.14,852.0
548.275,852.9
548.411,854.5
548.546,853.6
548.682,854.3
548.817,853.7
548.952,850.1
549.088,853.8
549.223,854.3
549.359,855.1
549.494,854.0
549.63,854.2
549.765,853.6
549.9,855.1
550.036,853.7
550.171,852.6
550.306,852.4
550.442,853.0
550.577,853.5
550.713,852.2
550.848,852.7
550.983,853.5
551.119,853.4
551.254,853.1
551.389,853.4
551.524,854.6
551.66,855.6
551.795,853.0
551.93,854.2
552.066,854.0
552.201,852.6
552.336,852.6
552.471,855.8
552.607,853.2
552.742,852.6
552.877,853.4
553.012,852.9
553.148,855.9
553.283,853.6
553.418,854.3
553.553,857.1
553.688,857.3
553.823,857.2
553.959,855.0
554.094,857.3
554.229,857.2
554.364,856.2
554.499,855.8
554.634,856.9
554.77,854.8
554.905,857.5
555.04,856.4
555.175,855.9
555.31,854.7
555.445,854.8
555.58,856.0
555.715,857.0
555.85,857.8
555.985,859.7
556.12,857.1
556.255,855.3
556.39,855.9
556.525,859.1
556.661,859.0
556.796,856.7
556.931,857.1
557.066,860.2
557.201,860.4
557.336,859.2
557.471,858.3
557.605,858.7
557.74,859.0
557.875,859.0
558.01,860.5
558.145,861.8
558.28,860.3
558.415,861.2
558.55,861.1
558.685,859.0
558.82,856.9
558.955,858.8
559.09,860.6
559.225,859.1
559.36,859.1
559.494,858.3
559.629,858.7
559.764,860.3
559.899,858.6
560.034,859.1
560.169,859.7
560.303,857.4
560.438,858.6
560.573,858.5
560.708,859.7
560.843,858.5
560.978,858.5
561.112,856.6
561.247,856.8
561.382,858.0
561.517,857.7
561.651,861.4
561.786,857.7
561.921,860.4
562.056,861.4
562.19,859.4
562.325,860.0
562.46,862.2
562.595,860.4
562.729,862.7
562.864,862.6
562.999,863.0
563.133,864.1
563.268,865.1
563.403,865.3
563.537,867.2
563.672,867.9
563.807,878.1
563.941,915.1
564.076,953.0
564.211,922.8
564.345,882.6
564.48,874.5
564.615,874.0
564.749,872.8
564.884,872.8
565.018,872.9
565.153,866.3
565.287,867.2
565.422,868.2
565.557,867.8
565.691,870.9
565.826,869.2
565.96,879.1
566.095,904.8
566.229,923.2
566.364,900.2
566.498,874.2
566.633,868.7
566.767,865.7
566.902,866.2
567.036,863.0
567.171,867.5
567.305,869.6
567.44,877.5
567.574,874.9
567.709,867.6
567.843,864.2
567.978,863.4
568.112,861.7
568.247,864.1
568.381,863.9
568.515,862.5
568.65,863.7
568.784,863.8
568.919,859.4
569.053,863.6
569.187,864.3
569.322,862.4
569.456,864.4
569.591,869.6
569.725,864.4
569.859,866.0
569.994,864.3
570.128,868.7
570.262,868.7
570.397,867.9
570.531,869.0
570.665,874.2
570.8,873.2
570.934,870.1
571.068,871.1
571.202,876.7
571.337,891.9
571.471,965.2
571.605,1024.6
571.74,936.3
571.874,893.3
572.008,879.9
572.142,881.3
572.277,875.4
572.411,870.8
572.545,873.3
572.679,868.7
572.813,869.5
572.948,872.2
573.082,866.0
573.216,867.4
573.35,868.8
573.484,869.1
573.619,870.2
573.753,871.1
573.887,873.7
574.021,878.1
574.155,872.5
574.289,872.5
574.424,871.6
574.558,869.1
574.692,867.9
574.826,871.3
574.96,869.8
575.094,871.8
575.228,875.4
575.362,878.0
575.496,892.5
575.631,904.4
575.765,894.5
575.899,894.8
576.033,911.0
576.167,947.0
576.301,989.1
576.435,985.1
576.569,953.4
576.703,933.0
576.837,937.0
576.971,943.1
577.105,944.5
577.239,936.2
577.373,921.3
577.507,904.9
577.641,892.1
577.775,889.0
577.909,884.9
578.043,882.5
578.177,878.5
578.311,880.5
578.445,876.0
578.579,882.0
578.713,882.9
578.847,879.0
578.981,879.3
579.114,882.6
579.248,882.0
579.382,880.9
579.516,881.1
579.65,883.2
579.784,885.1
579.918,882.1
580.052,882.2
580.186,885.0
580.32,885.6
580.453,884.0
580.587,884.3
580.721,886.2
580.855,887.8
580.989,887.5
581.123,889.1
581.256,886.1
581.39,889.8
581.524,887.0
581.658,886.3
581.792,887.2
581.925,889.2
582.059,889.4
582.193,890.4
582.327,891.8
582.461,893.6
582.594,888.7
582.728,892.4
582.862,890.6
582.996,888.6
583.129,895.5
583.263,893.3
583.397,891.6
583.531,896.6
583.664,895.0
583.798,894.0
583.932,896.4
584.065,897.6
584.199,900.4
584.333,900.8
584.467,895.1
584.6,897.4
584.734,896.5
584.868,896.0
585.001,901.0
585.135,902.7
585.269,901.1
585.402,901.6
585.536,900.9
585.669,902.1
585.803,901.9
585.937,902.6
586.07,904.0
586.204,905.6
586.338,907.9
586.471,903.1
586.605,908.2
586.738,910.0
586.872,907.6
587.005,913.5
587.139,912.2
587.273,912.8
587.406,912.6
587.54,914.2
587.673,911.1
587.807,911.2
587.94,915.4
588.074,914.2
588.207,911.0
588.341,915.4
588.474,916.0
588.608,917.1
588.741,914.8
588.875,916.1
589.008,912.7
589.142,911.8
589.275,918.2
589.409,912.6
589.542,915.8
589.676,921.6
589.809,912.9
589.943,920.0
590.076,920.5
590.21,919.4
590.343,918.4
590.476,921.5
590.61,920.0
590.743,922.2
590.877,920.4
591.01,921.1
591.144,924.5
591.277,924.9
591.41,926.7
591.544,924.1
591.677,926.6
591.81,922.6
591.944,927.6
592.077,924.0
592.211,921.2
592.344,926.4
592.477,926.5
592.611,928.0
592.744,927.8
592.877,925.4
593.011,925.2
593.144,929.2
593.277,924.7
593.411,922.7
593.544,924.2
593.677,929.1
593.81,927.8
593.944,927.3
594.077,924.5
594.21,924.4
594.344,923.2
594.477,926.0
594.61,926.4
594.743,923.9
594.877,929.1
595.01,926.1
595.143,930.8
595.276,929.4
595.41,930.7
595.543,928.2
595.676,929.7
595.809,930.2
595.942,928.9
596.076,929.9
596.209,930.2
596.342,930.5
596.475,932.5
596.608,930.3
596.742,929.4
596.875,932.6
597.008,933.4
597.141,933.8
597.274,935.6
597.407,930.0
597.541,937.1
597.674,938.9
597.807,932.8
597.94,934.7
598.073,937.0
598.206,938.6
598.339,934.5
598.472,938.8
598.606,941.9
598.739,937.5
598.872,939.6
599.005,936.2
599.138,940.5
599.271,936.6
599.404,942.0
599.537,937.4
599.67,936.8
599.803,936.3
599.936,940.4
600.069,940.4
600.202,943.4
600.335,940.8
600.468,939.2
600.601,940.7
600.734,942.0
600.868,939.2
601.001,943.7
601.134,941.6
601.267,939.7
601.4,935.4
601.533,939.1
601.665,939.0
601.798,937.3
601.931,942.0
602.064,942.2
602.197,940.5
602.33,942.3
602.463,939.8
602.596,937.8
602.729,939.9
602.862,938.4
602.995,936.1
603.128,940.1
603.261,933.3
603.394,934.6
603.527,939.2
603.66,936.1
603.793,935.6
603.926,933.3
604.058,931.7
604.191,937.1
604.324,931.3
604.457,936.1
604.59,930.6
604.723,929.2
604.856,928.4
604.989,931.0
605.121,929.9
605.254,930.3
605.387,932.6
605.52,927.0
605.653,924.8
605.786,924.9
605.918,926.1
606.051,926.5
606.184,921.1
606.317,925.3
606.45,923.9
606.583,924.6
606.715,923.2
606.848,923.6
606.981,923.6
607.114,921.3
607.246,920.4
607.379,921.3
607.512,920.8
607.645,920.7
607.778,918.3
607.91,921.1
608.043,922.4
608.176,917.7
608.309,919.2
608.441,916.8
608.574,920.3
608.707,920.2
608.839,919.6
608.972,917.9
609.105,918.6
609.238,918.5
609.37,918.9
609.503,918.7
609.636,914.7
609.768,916.6
609.901,915.9
610.034,915.6
610.166,916.7
610.299,914.8
610.432,914.2
610.564,914.2
610.697,914.2
610.83,912.1
610.962,912.3
611.095,911.7
611.228,915.7
611.36,915.2
611.493,915.0
611.626,915.7
611.758,913.1
611.891,917.0
612.023,908.2
612.156,913.2
612.289,911.1
612.421,914.9
612.554,913.1
612.686,912.8
612.819,913.6
612.952,913.3
613.084,910.1
613.217,911.5
613.349,911.3
613.482,911.0
613.614,912.3
613.747,910.7
613.88,913.7
614.012,911.4
614.145,910.4
614.277,913.9
614.41,912.5
614.542,912.3
614.675,913.7
614.807,912.7
614.94,912.2
615.072,910.5
615.205,912.7
615.337,908.6
615.47,912.8
615.602,907.2
615.735,906.8
615.867,908.3
616.0,909.1
616.132,908.9
616.265,911.0
616.397,909.5
616.53,912.2
616.662,910.3
616.795,910.4
616.927,913.1
617.059,913.1
617.192,915.1
617.324,912.7
617.457,914.2
617.589,914.0
617.722,914.6
617.854,913.8
617.986,914.5
618.119,916.2
618.251,910.8
618.384,912.9
618.516,913.3
618.648,916.4
618.781,907.3
618.913,912.3
619.046,907.9
619.178,913.6
619.31,910.4
619.443,911.7
619.575,912.8
619.707,913.2
619.84,907.6
619.972,912.6
620.105,914.5
620.237,914.0
620.369,912.3
620.502,912.2
620.634,914.3
620.766,913.4
620.899,916.8
621.031,915.6
621.163,921.8
621.295,924.1
621.428,925.9
621.56,930.9
621.692,936.1
621.825,941.9
621.957,948.9
622.089,953.6
622.222,961.0
622.354,965.1
622.486,962.2
622.618,955.2
622.751,943.2
622.883,931.3
623.015,925.1
623.147,920.6
623.28,918.4
623.412,914.7
623.544,914.2
623.676,911.7
623.809,914.2
623.941,911.7
624.073,913.0
624.205,909.3
624.338,907.4
624.47,916.5
624.602,912.1
624.734,910.2
624.866,914.1
624.999,908.2
625.131,910.7
625.263,910.2
625.395,915.2
625.527,918.0
625.66,914.6
625.792,919.1
625.924,920.5
626.056,927.8
626.188,938.7
626.32,946.3
626.453,963.8
626.585,1005.6
626.717,1072.9
626.849,1183.0
626.981,1345.6
627.113,1516.8
627.245,1582.3
627.377,1546.1
627.51,1442.9
627.642,1356.8
627.774,1301.6
627.906,1249.1
628.038,1237.5
628.17,1232.9
628.302,1282.2
628.434,1436.7
628.566,1694.0
628.699,1622.1
628.831,1405.7
628.963,1306.7
629.095,1283.3
629.227,1263.7
629.359,1242.3
629.491,1202.6
629.623,1175.3
629.755,1142.2
629.887,1109.2
630.019,1102.9
630.151,1088.7
630.283,1089.1
630.415,1090.2
630.547,1082.8
630.68,1056.6
630.812,1034.9
630.944,1009.9
631.076,980.7
631.208,953.6
631.34,937.6
631.472,926.7
631.604,922.2
631.736,919.0
631.868,916.2
632.0,913.8
632.132,908.6
632.264,911.0
632.396,908.4
632.528,909.7
632.66,905.5
632.792,906.9
632.924,909.1
633.056,905.9
633.188,904.9
633.32,905.6
633.451,902.8
633.583,902.1
633.715,901.9
633.847,903.0
633.979,899.7
634.111,902.1
634.243,900.7
634.375,901.7
634.507,900.5
634.639,900.1
634.771,899.4
634.903,898.3
635.035,899.2
635.167,898.5
635.299,896.2
635.431,897.8
635.562,896.1
635.694,894.6
635.826,896.7
635.958,896.6
636.09,895.6
636.222,894.4
636.354,898.7
636.486,895.1
636.618,893.0
636.749,897.4
636.881,892.3
637.013,894.2
637.145,892.4
637.277,893.4
637.409,893.1
637.541,893.2
637.673,895.0
637.804,890.6
637.936,893.2
638.068,891.6
638.2,891.1
638.332,894.0
638.464,890.6
638.595,892.0
638.727,890.9
638.859,892.3
638.991,889.3
639.123,889.1
639.255,890.4
639.386,890.5
639.518,890.5
639.65,887.6
639.782,891.9
639.914,892.1
640.045,889.9
640.177,893.0
640.309,890.5
640.441,890.8
640.573,892.3
640.704,889.2
640.836,891.7
640.968,887.1
641.1,888.9
641.231,892.1
641.363,891.4
641.495,889.5
641.627,888.3
641.759,888.8
641.89,889.7
642.022,890.0
642.154,886.6
642.286,891.5
642.417,889.0
642.549,890.0
642.681,887.2
642.813,889.1
642.944,887.7
643.076,888.7
643.208,888.8
643.339,888.1
643.471,888.7
643.603,888.0
643.735,893.0
643.866,888.4
643.998,888.5
644.13,888.6
644.261,887.3
644.393,890.8
644.525,882.4
644.657,888.8
644.788,888.6
644.92,887.8
645.052,885.5
645.183,889.7
645.315,889.0
645.447,886.8
645.578,888.6
645.71,886.8
645.842,887.2
645.973,890.1
646.105,886.7
646.237,884.9
646.368,890.5
646.5,889.7
646.632,883.3
646.763,888.6
646.895,887.3
647.027,886.0
647.158,882.7
647.29,884.4
647.421,885.3
647.553,885.7
647.685,888.4
647.816,886.8
647.948,885.7
648.08,886.3
648.211,886.4
648.343,884.8
648.474,888.1
648.606,888.8
648.738,885.1
648.869,886.0
649.001,885.5
649.133,885.0
649.264,884.5
649.396,886.2
649.527,884.0
649.659,885.1
649.791,883.9
649.922,888.1
650.054,888.6
650.185,885.4
650.317,887.9
650.448,885.2
650.58,886.6
650.712,885.1
650.843,885.5
650.975,886.0
651.106,886.7
651.238,883.4
651.369,885.6
651.501,882.7
651.633,881.9
651.764,884.9
651.896,883.5
652.027,887.0
652.159,888.7
652.29,882.7
652.422,887.6
652.553,885.8
652.685,886.1
652.816,881.9
652.948,885.0
653.079,884.1
653.211,888.3
653.343,884.6
653.474,885.4
653.606,885.5
653.737,883.6
653.869,886.0
654.0,885.0
654.132,886.6
654.263,886.5
654.395,885.6
654.526,881.7
654.658,885.6
654.789,881.9
654.921,884.3
655.052,883.8
655.184,880.7
655.315,883.8
655.447,879.5
655.578,882.1
655.71,882.8
655.841,880.5
655.973,882.6
656.104,880.3
656.236,877.2
656.367,881.2
656.498,883.3
656.63,883.8
656.761,883.2
656.893,882.0
657.024,883.5
657.156,883.0
657.287,881.4
657.419,880.7
657.55,881.3
657.682,882.4
657.813,881.3
657.945,884.1
658.076,881.8
658.207,884.5
658.339,882.3
658.47,882.7
658.602,882.7
658.733,881.3
658.865,882.6
658.996,883.2
659.127,882.3
659.259,879.7
659.39,882.5
659.522,885.0
659.653,884.4
659.785,879.8
659.916,882.0
660.047,884.0
660.179,884.8
660.31,882.8
660.442,880.1
660.573,881.6
660.704,882.7
660.836,880.2
660.967,877.3
661.099,881.2
661.23,881.0
661.362,877.5
661.493,880.3
661.624,877.0
661.756,876.4
661.887,880.4
662.018,876.4
662.15,878.2
662.281,875.5
662.413,875.9
662.544,877.5
662.675,876.1
662.807,875.2
662.938,875.7
663.07,874.8