File: spectra/VLFR_08-PLA_bio_Raman_b2b7e8c6.csv
nm,Intensity
528.626,1862.93
528.795,1863.97
528.963,1864.37
529.132,1863.77
529.3,1864.03
529.469,1863.87
529.637,1863.8
529.806,1863.23
529.974,1864.23
530.143,1864.3
530.311,1863.13
530.48,1864.2
530.648,1864.47
530.816,1866.0
530.985,1865.9
531.153,1867.07
531.322,1867.97
531.49,1873.2
531.658,1899.57
531.827,2314.93
531.995,4119.5
532.164,4383.67
532.332,2177.07
532.5,1869.57
532.669,1865.77
532.837,1865.4
533.006,1865.0
533.174,1866.53
533.342,1866.27
533.511,1871.93
533.679,1916.03
533.847,2009.07
534.016,2069.97
534.184,2103.97
534.352,2090.67
534.521,2088.9
534.689,2096.9
534.857,2095.33
535.025,2097.73
535.194,2106.0
535.362,2108.87
535.53,2110.6
535.699,2109.47
535.867,2105.37
536.035,2107.2
536.203,2103.57
536.372,2101.13
536.54,2103.83
536.708,2098.5
536.876,2101.93
537.044,2096.67
537.213,2107.53
537.381,2120.13
537.549,2119.33
537.717,2118.6
537.885,2124.87
538.054,2114.77
538.222,2113.33
538.39,2121.93
538.558,2114.63
538.726,2115.47
538.894,2118.87
539.063,2122.83
539.231,2112.73
539.399,2122.23
539.567,2116.1
539.735,2118.67
539.903,2120.23
540.071,2120.83
540.239,2120.67
540.408,2119.73
540.576,2129.6
540.744,2137.3
540.912,2130.13
541.08,2142.3
541.248,2140.8
541.416,2130.43
541.584,2136.23
541.752,2148.9
541.92,2135.07
542.088,2141.0
542.256,2136.6
542.424,2139.73
542.592,2152.73
542.76,2148.37
542.928,2142.13
543.096,2151.3
543.264,2150.13
543.432,2152.2
543.6,2164.13
543.768,2160.9
543.936,2166.53
544.104,2166.77
544.272,2171.03
544.44,2155.53
544.608,2150.93
544.776,2157.03
544.944,2173.23
545.112,2177.7
545.28,2159.47
545.448,2156.87
545.616,2161.57
545.784,2174.0
545.951,2175.03
546.119,2168.3
546.287,2170.87
546.455,2174.8
546.623,2170.07
546.791,2176.5
546.959,2183.47
547.127,2181.33
547.294,2175.3
547.462,2171.4
547.63,2169.73
547.798,2178.23
547.966,2185.13
548.134,2191.77
548.301,2185.87
548.469,2200.17
548.637,2198.1
548.805,2191.33
548.972,2198.97
549.14,2199.5
549.308,2196.7
549.476,2202.03
549.644,2190.83
549.811,2189.37
549.979,2204.83
550.147,2208.9
550.315,2203.13
550.482,2201.8
550.65,2204.77
550.818,2216.63
550.985,2209.27
551.153,2213.23
551.321,2218.5
551.488,2235.03
551.656,2215.0
551.824,2224.27
551.991,2228.47
552.159,2233.6
552.327,2230.93
552.494,2229.37
552.662,2216.8
552.83,2223.43
552.997,2231.5
553.165,2226.23
553.333,2225.83
553.5,2229.4
553.668,2234.27
553.835,2230.27
554.003,2233.97
554.171,2236.83
554.338,2240.37
554.506,2237.57
554.673,2234.47
554.841,2243.87
555.008,2252.43
555.176,2242.1
555.343,2248.07
555.511,2243.57
555.679,2243.43
555.846,2247.27
556.014,2241.33
556.181,2238.23
556.349,2247.6
556.516,2242.37
556.684,2229.13
556.851,2234.67
557.018,2246.2
557.186,2241.47
557.353,2248.03
557.521,2267.53
557.688,2280.07
557.856,2288.83
558.023,2302.63
558.191,2305.2
558.358,2281.13
558.525,2266.9
558.693,2259.1
558.86,2254.3
559.028,2255.07
559.195,2257.43
559.362,2256.47
559.53,2263.23
559.697,2251.33
559.864,2268.27
560.032,2257.0
560.199,2260.33
560.366,2274.63
560.534,2279.47
560.701,2272.13
560.868,2273.17
561.036,2272.13
561.203,2285.6
561.37,2269.7
561.538,2266.47
561.705,2266.4
561.872,2280.5
562.039,2284.07
562.207,2274.1
562.374,2274.77
562.541,2278.53
562.708,2295.6
562.876,2293.37
563.043,2290.97
563.21,2287.1
563.377,2300.2
563.545,2293.57
563.712,2287.4
563.879,2298.67
564.046,2298.57
564.213,2285.0
564.38,2282.23
564.548,2299.27
564.715,2300.7
564.882,2307.1
565.049,2313.7
565.216,2295.8
565.383,2309.1
565.551,2298.6
565.718,2301.87
565.885,2308.63
566.052,2320.53
566.219,2316.53
566.386,2309.7
566.553,2309.8
566.72,2297.13
566.887,2303.5
567.054,2301.27
567.221,2301.07
567.388,2309.87
567.555,2307.5
567.722,2313.5
567.889,2303.4
568.057,2310.63
568.224,2312.17
568.391,2316.43
568.558,2318.7
568.725,2312.53
568.892,2319.8
569.058,2316.63
569.225,2313.93
569.392,2324.9
569.559,2324.1
569.726,2311.53
569.893,2322.77
570.06,2317.63
570.227,2317.3
570.394,2327.97
570.561,2323.6
570.728,2310.87
570.895,2315.27
571.062,2329.47
571.229,2325.37
571.395,2341.07
571.562,2342.27
571.729,2342.77
571.896,2339.83
572.063,2353.83
572.23,2346.67
572.397,2356.97
572.563,2356.9
572.73,2343.23
572.897,2348.43
573.064,2359.27
573.231,2344.9
573.397,2363.53
573.564,2353.73
573.731,2345.43
573.898,2355.37
574.064,2335.17
574.231,2349.93
574.398,2364.67
574.565,2357.93
574.731,2341.4
574.898,2340.43
575.065,2348.87
575.232,2339.1
575.398,2341.23
575.565,2360.17
575.732,2351.93
575.898,2348.63
576.065,2354.0
576.232,2375.4
576.398,2352.3
576.565,2387.43
576.732,2384.07
576.898,2392.67
577.065,2375.43
577.232,2370.9
577.398,2357.13
577.565,2370.47
577.731,2360.77
577.898,2350.8
578.065,2347.23
578.231,2349.1
578.398,2348.33
578.564,2341.07
578.731,2347.6
578.897,2345.4
579.064,2353.07
579.23,2350.23
579.397,2359.13
579.563,2358.27
579.73,2360.0
579.896,2370.67
580.063,2354.03
580.229,2358.8
580.396,2365.47
580.562,2367.83
580.729,2368.4
580.895,2375.33
581.062,2355.93
581.228,2354.13
581.395,2351.5
581.561,2365.87
581.728,2366.33
581.894,2361.07
582.06,2363.8
582.227,2358.9
582.393,2361.03
582.56,2387.8
582.726,2370.1
582.892,2351.67
583.059,2365.73
583.225,2376.17
583.391,2366.27
583.558,2367.17
583.724,2361.83
583.89,2361.77
584.057,2364.6
584.223,2374.47
584.389,2367.2
584.556,2361.57
584.722,2356.3
584.888,2354.23
585.054,2372.77
585.221,2362.07
585.387,2353.7
585.553,2347.03
585.719,2360.77
585.886,2353.57
586.052,2369.8
586.218,2361.4
586.384,2357.6
586.55,2380.8
586.717,2378.17
586.883,2376.93
587.049,2394.4
587.215,2375.63
587.381,2380.67
587.548,2408.77
587.714,2388.97
587.88,2381.23
588.046,2372.43
588.212,2370.93
588.378,2362.37
588.544,2365.7
588.71,2348.63
588.876,2340.93
589.043,2329.0
589.209,2338.2
589.375,2362.37
589.541,2337.53
589.707,2344.53
589.873,2345.4
590.039,2343.87
590.205,2347.07
590.371,2356.13
590.537,2364.0
590.703,2350.43
590.869,2363.23
591.035,2352.9
591.201,2353.57
591.367,2369.17
591.533,2364.03
591.699,2356.03
591.865,2367.87
592.031,2354.8
592.197,2363.07
592.363,2371.67
592.529,2363.03
592.694,2360.4
592.86,2356.83
593.026,2371.57
593.192,2365.93
593.358,2363.13
593.524,2352.27
593.69,2351.7
593.856,2355.13
594.021,2359.33
594.187,2354.23
594.353,2360.5
594.519,2363.37
594.685,2357.67
594.851,2364.6
595.016,2356.97
595.182,2354.67
595.348,2371.2
595.514,2359.23
595.68,2363.9
595.845,2381.3
596.011,2360.83
596.177,2374.73
596.342,2366.17
596.508,2363.2
596.674,2365.07
596.84,2368.03
597.005,2365.47
597.171,2369.1
597.337,2359.93
597.502,2373.03
597.668,2368.17
597.834,2367.03
597.999,2360.77
598.165,2364.17
598.331,2357.6
598.496,2353.67
598.662,2368.27
598.828,2365.67
598.993,2369.5
599.159,2361.67
599.324,2375.33
599.49,2383.87
599.656,2372.93
599.821,2369.77
599.987,2377.73
600.152,2367.73
600.318,2368.23
600.483,2371.0
600.649,2374.8
600.814,2362.33
600.98,2376.73
601.145,2372.27
601.311,2377.67
601.476,2365.77
601.642,2372.47
601.807,2372.2
601.973,2360.77
602.138,2378.43
602.304,2374.03
602.469,2373.93
602.635,2367.43
602.8,2375.2
602.965,2376.73
603.131,2377.83
603.296,2380.9
603.462,2377.3
603.627,2376.9
603.792,2377.57
603.958,2373.93
604.123,2368.5
604.288,2376.1
604.454,2382.0
604.619,2369.77
604.784,2378.93
604.95,2377.0
605.115,2372.23
605.28,2368.5
605.446,2382.57
605.611,2378.87
605.776,2382.5
605.941,2360.4
606.107,2378.43
606.272,2375.53
606.437,2373.63
606.602,2371.4
606.767,2379.17
606.933,2383.53
607.098,2390.07
607.263,2388.37
607.428,2393.63
607.593,2368.93
607.759,2392.47
607.924,2380.13
608.089,2378.3
608.254,2379.7
608.419,2380.2
608.584,2384.8
608.749,2368.5
608.915,2389.7
609.08,2383.73
609.245,2378.53
609.41,2386.8
609.575,2384.93
609.74,2380.27
609.905,2377.57
610.07,2381.13
610.235,2383.2
610.4,2387.7
610.565,2373.13
610.73,2381.47
610.895,2381.03
611.06,2385.73
611.225,2380.57
611.39,2390.57
611.555,2374.87
611.72,2380.47
611.885,2382.2
612.05,2370.27
612.215,2376.17
612.38,2368.9
612.545,2392.63
612.71,2388.6
612.875,2378.5
613.04,2388.93
613.204,2381.57
613.369,2365.87
613.534,2376.07
613.699,2376.77
613.864,2377.13
614.029,2365.23
614.194,2373.07
614.358,2367.17
614.523,2388.9
614.688,2385.4
614.853,2389.03
615.018,2372.3
615.182,2367.1
615.347,2368.03
615.512,2366.37
615.677,2382.0
615.841,2388.77
616.006,2381.23
616.171,2369.53
616.336,2350.43
616.5,2381.67
616.665,2385.6
616.83,2380.23
616.994,2378.7
617.159,2367.8
617.324,2380.6
617.489,2381.13
617.653,2362.87
617.818,2375.07
617.982,2384.33
618.147,2368.07
618.312,2376.43
618.476,2382.1
618.641,2370.9
618.805,2364.37
618.97,2370.0
619.135,2375.1
619.299,2360.03
619.464,2364.07
619.628,2383.53
619.793,2379.73
619.957,2366.23
620.122,2394.2
620.286,2368.5
620.451,2368.6
620.615,2370.23
620.78,2359.17
620.944,2370.1
621.109,2374.4
621.273,2356.63
621.438,2358.13
621.602,2367.8
621.767,2374.17
621.931,2368.27
622.095,2356.43
622.26,2369.27
622.424,2359.9
622.589,2377.37
622.753,2372.8
622.917,2361.5
623.082,2355.7
623.246,2357.13
623.41,2362.7
623.575,2357.1
623.739,2368.93
623.903,2352.17
624.068,2364.73
624.232,2362.83
624.396,2352.0
624.561,2354.33
624.725,2359.63
624.889,2357.43
625.053,2353.77
625.218,2344.43
625.382,2346.93
625.546,2346.13
625.71,2349.13
625.875,2343.0
626.039,2343.87
626.203,2349.1
626.367,2347.9
626.531,2345.53
626.695,2355.33
626.86,2350.53
627.024,2342.23
627.188,2339.17
627.352,2352.17
627.516,2340.5
627.68,2343.47
627.844,2336.53
628.008,2347.53
628.172,2368.8
628.337,2375.3
628.501,2368.4
628.665,2373.07
628.829,2360.0
628.993,2371.03
629.157,2365.7
629.321,2361.2
629.485,2368.43
629.649,2365.73
629.813,2366.13
629.977,2357.7
630.141,2366.97
630.305,2365.8
630.469,2395.63
630.633,2406.03
630.797,2498.6
630.96,2524.9
631.124,2547.53
631.288,2494.4
631.452,2466.87
631.616,2416.53
631.78,2391.73
631.944,2362.57
632.108,2378.17
632.272,2380.9
632.435,2376.03
632.599,2368.83
632.763,2400.03
632.927,2401.37
633.091,2402.23
633.254,2403.47
633.418,2399.63
633.582,2389.17
633.746,2366.8
633.91,2371.6
634.073,2357.2
634.237,2333.0
634.401,2338.2
634.564,2318.23
634.728,2321.67
634.892,2321.97
635.056,2303.43
635.219,2311.9
635.383,2306.6
635.547,2311.37
635.71,2285.67
635.874,2291.63
636.038,2306.23
636.201,2299.1
636.365,2302.4
636.528,2307.0
636.692,2287.6
636.856,2293.2
637.019,2286.37
637.183,2301.17
637.346,2288.03
637.51,2285.63
637.673,2300.03
637.837,2292.1
638.0,2287.63
638.164,2296.07
638.327,2280.8
638.491,2291.3
638.654,2289.67
638.818,2288.77
638.981,2278.07
639.145,2285.73
639.308,2286.7
639.472,2274.13
639.635,2273.03
639.799,2266.97
639.962,2263.77
640.125,2265.27
640.289,2277.83
640.452,2267.2
640.616,2253.6
640.779,2263.5
640.942,2256.2
641.106,2255.7
641.269,2272.6
641.432,2261.83
641.596,2250.83
641.759,2254.33
641.922,2255.27
642.085,2242.5
642.249,2261.27
642.412,2265.27
642.575,2269.6
642.738,2248.4
642.902,2250.6
643.065,2254.47
643.228,2247.5
643.391,2235.5
643.555,2259.2
643.718,2243.8
643.881,2238.4
644.044,2258.8
644.207,2246.9
644.37,2242.37
644.534,2239.13
644.697,2229.93
644.86,2227.57
645.023,2230.47
645.186,2232.07
645.349,2232.2
645.512,2228.27
645.675,2225.67
645.838,2232.67
646.001,2224.67
646.164,2230.43
646.327,2232.43
646.49,2235.2
646.653,2228.3
646.816,2222.63
646.979,2223.3
647.142,2230.37
647.305,2207.13
647.468,2218.97
647.631,2209.27
647.794,2213.33
647.957,2210.8
648.12,2207.57
648.283,2203.37
648.446,2211.97
648.609,2214.33
648.772,2202.0
648.935,2215.53
649.098,2197.17
649.26,2187.2
649.423,2193.97
649.586,2192.6
649.749,2201.8
649.912,2195.43
650.075,2194.33
650.237,2194.33
650.4,2199.37
650.563,2193.8
650.726,2203.07
650.888,2183.37
651.051,2191.2
651.214,2196.8
651.377,2186.1
651.539,2184.43
651.702,2182.23
651.865,2184.1
652.027,2184.27
652.19,2191.87
652.353,2183.87
652.515,2181.57
652.678,2174.3
652.841,2177.6
653.003,2179.67
653.166,2168.13
653.329,2167.33
653.491,2163.4
653.654,2167.73
653.816,2164.33
653.979,2171.5
654.142,2166.5
654.304,2158.53
654.467,2153.67
654.629,2150.2
654.792,2156.6
654.954,2163.7
655.117,2168.83
655.279,2154.23
655.442,2153.27
655.604,2158.3
655.767,2146.47
655.929,2141.93
656.091,2134.3
656.254,2123.27
656.416,2129.63
656.579,2149.63
656.741,2137.2
656.904,2131.77
657.066,2142.57
657.228,2148.7
657.391,2127.47
657.553,2133.27
657.715,2141.5
657.878,2144.47
658.04,2139.13
658.202,2131.33
658.365,2132.37
658.527,2132.27
658.689,2129.3
658.851,2122.9
659.014,2123.23
659.176,2132.07
659.338,2121.03
659.5,2123.4
659.663,2117.2
659.825,2114.13
659.987,2113.8
660.149,2126.8
660.311,2128.27
660.474,2118.9
660.636,2126.9
660.798,2114.87
660.96,2125.0
661.041,2119.73