File: spectra/VLFR_02-HDPE_bio_Raman_ce26a838.csv
nm,Intensity
526.494,834.4
526.631,834.5
526.768,834.9
526.904,833.7
527.041,834.6
527.178,833.5
527.315,835.6
527.451,833.5
527.588,834.4
527.725,834.3
527.862,834.7
527.998,834.3
528.135,833.1
528.272,835.0
528.409,834.2
528.545,832.7
528.682,834.0
528.819,833.9
528.955,834.8
529.092,833.8
529.229,835.9
529.365,833.7
529.502,834.2
529.639,833.1
529.775,834.0
529.912,834.3
530.048,833.6
530.185,833.3
530.321,835.4
530.458,834.4
530.595,834.7
530.731,834.6
530.868,835.2
531.004,835.3
531.141,833.4
531.277,835.5
531.414,833.3
531.55,833.7
531.687,835.0
531.823,835.2
531.96,845.2
532.096,934.3
532.233,960.0
532.369,863.2
532.506,836.5
532.642,833.8
532.778,834.2
532.915,834.4
533.051,834.6
533.188,835.2
533.324,834.7
533.46,834.3
533.597,835.8
533.733,837.5
533.869,858.9
534.006,891.4
534.142,912.3
534.278,917.8
534.415,914.5
534.551,912.4
534.687,915.6
534.824,916.1
534.96,918.7
535.096,918.5
535.232,912.0
535.369,905.8
535.505,895.8
535.641,888.1
535.777,880.7
535.914,876.3
536.05,873.8
536.186,872.1
536.322,872.0
536.458,870.5
536.595,867.8
536.731,867.7
536.867,867.3
537.003,867.0
537.139,864.7
537.275,867.2
537.411,865.1
537.548,865.2
537.684,867.5
537.82,866.2
537.956,866.0
538.092,864.7
538.228,864.2
538.364,864.7
538.5,864.3
538.636,860.9
538.772,861.3
538.908,863.6
539.044,862.5
539.18,859.9
539.316,859.0
539.452,857.5
539.588,858.3
539.724,857.4
539.86,859.2
539.996,856.4
540.132,857.7
540.268,858.8
540.404,856.7
540.54,856.0
540.676,859.5
540.812,858.1
540.948,855.3
541.084,857.6
541.22,855.1
541.355,855.9
541.491,856.2
541.627,856.4
541.763,858.9
541.899,856.4
542.035,856.6
542.171,857.2
542.306,856.3
542.442,855.9
542.578,856.6
542.714,857.6
542.85,858.2
542.985,855.0
543.121,854.0
543.257,857.4
543.393,858.0
543.529,857.5
543.664,857.0
543.8,856.8
543.936,856.8
544.072,856.8
544.207,856.4
544.343,855.5
544.479,855.6
544.614,855.3
544.75,855.8
544.886,857.5
545.021,856.6
545.157,854.6
545.293,856.0
545.428,855.6
545.564,855.4
545.7,855.7
545.835,858.2
545.971,855.3
546.106,857.6
546.242,854.6
546.378,856.3
546.513,857.9
546.649,855.9
546.784,854.6
546.92,855.0
547.055,856.7
547.191,857.6
547.327,856.2
547.462,855.0
547.598,856.4
547.733,856.5
547.869,857.3
548.004,856.3
548.14,857.1
548.275,855.1
548.411,856.8
548.546,856.5
548.682,857.5
548.817,856.3
548.952,857.2
549.088,856.2
549.223,856.9
549.359,855.7
549.494,856.1
549.63,858.8
549.765,855.8
549.9,857.3
550.036,855.1
550.171,857.7
550.306,855.6
550.442,855.2
550.577,857.0
550.713,856.8
550.848,856.9
550.983,856.2
551.119,857.5
551.254,856.1
551.389,855.6
551.524,857.4
551.66,857.0
551.795,858.1
551.93,857.0
552.066,857.0
552.201,854.5
552.336,856.9
552.471,857.9
552.607,857.5
552.742,854.9
552.877,858.4
553.012,858.1
553.148,859.0
553.283,859.7
553.418,859.5
553.553,858.5
553.688,860.6
553.823,860.4
553.959,859.2
554.094,859.7
554.229,859.5
554.364,860.5
554.499,861.5
554.634,861.4
554.77,860.7
554.905,859.4
555.04,860.8
555.175,862.8
555.31,860.5
555.445,859.2
555.58,861.3
555.715,861.3
555.85,863.0
555.985,860.7
556.12,861.9
556.255,861.6
556.39,861.7
556.525,861.8
556.661,861.6
556.796,861.7
556.931,862.8
557.066,861.3
557.201,862.5
557.336,865.1
557.471,866.1
557.605,865.1
557.74,865.6
557.875,867.1
558.01,863.8
558.145,867.1
558.28,868.8
558.415,865.9
558.55,865.9
558.685,866.0
558.82,864.8
558.955,861.7
559.09,864.9
559.225,863.8
559.36,863.7
559.494,866.2
559.629,865.5
559.764,863.5
559.899,861.7
560.034,863.8
560.169,865.1
560.303,865.3
560.438,863.0
560.573,865.8
560.708,864.5
560.843,865.5
560.978,861.1
561.112,863.8
561.247,865.2
561.382,864.0
561.517,865.2
561.651,866.1
561.786,866.8
561.921,865.6
562.056,868.0
562.19,866.0
562.325,865.4
562.46,867.1
562.595,866.7
562.729,869.2
562.864,869.7
562.999,868.5
563.133,869.7
563.268,871.4
563.403,871.2
563.537,873.0
563.672,879.7
563.807,895.3
563.941,960.2
564.076,1000.3
564.211,947.4
564.345,894.4
564.48,885.5
564.615,890.5
564.749,886.6
564.884,885.0
565.018,881.5
565.153,878.2
565.287,873.8
565.422,874.2
565.557,875.9
565.691,877.2
565.826,878.8
565.96,891.9
566.095,924.9
566.229,955.4
566.364,922.1
566.498,886.8
566.633,878.3
566.767,874.0
566.902,874.0
567.036,871.9
567.171,875.3
567.305,884.0
567.44,898.6
567.574,898.7
567.709,882.3
567.843,871.3
567.978,870.4
568.112,873.7
568.247,869.9
568.381,871.4
568.515,868.4
568.65,870.3
568.784,869.5
568.919,868.8
569.053,868.6
569.187,869.6
569.322,868.8
569.456,868.3
569.591,874.9
569.725,872.7
569.859,872.3
569.994,874.2
570.128,872.3
570.262,871.4
570.397,874.0
570.531,876.3
570.665,877.8
570.8,878.7
570.934,881.6
571.068,883.8
571.202,888.8
571.337,906.0
571.471,1009.3
571.605,1116.2
571.74,986.0
571.874,915.0
572.008,898.2
572.142,891.2
572.277,883.3
572.411,880.8
572.545,880.4
572.679,875.4
572.813,878.8
572.948,873.1
573.082,876.8
573.216,874.8
573.35,873.3
573.484,871.2
573.619,877.3
573.753,878.0
573.887,884.1
574.021,885.1
574.155,880.1
574.289,877.4
574.424,875.2
574.558,874.6
574.692,870.3
574.826,874.0
574.96,876.9
575.094,876.0
575.228,874.3
575.362,886.6
575.496,912.4
575.631,926.0
575.765,912.8
575.899,915.0
576.033,934.0
576.167,969.8
576.301,1032.3
576.435,1020.9
576.569,974.2
576.703,959.5
576.837,961.3
576.971,963.9
577.105,964.5
577.239,952.9
577.373,935.1
577.507,912.5
577.641,901.3
577.775,891.7
577.909,887.1
578.043,885.9
578.177,882.3
578.311,885.4
578.445,880.6
578.579,879.6
578.713,878.8
578.847,880.8
578.981,882.1
579.114,882.9
579.248,879.9
579.382,880.4
579.516,883.9
579.65,882.0
579.784,884.8
579.918,881.3
580.052,878.1
580.186,882.2
580.32,879.4
580.453,881.1
580.587,884.9
580.721,881.8
580.855,879.4
580.989,883.0
581.123,882.8
581.256,885.1
581.39,885.0
581.524,883.4
581.658,884.1
581.792,886.8
581.925,886.7
582.059,882.4
582.193,883.4
582.327,886.2
582.461,888.2
582.594,887.3
582.728,887.1
582.862,888.8
582.996,888.6
583.129,891.2
583.263,891.2
583.397,888.8
583.531,890.3
583.664,887.9
583.798,891.9
583.932,889.3
584.065,892.7
584.199,893.4
584.333,896.3
584.467,896.9
584.6,897.2
584.734,896.8
584.868,898.8
585.001,898.1
585.135,900.7
585.269,902.4
585.402,900.0
585.536,899.9
585.669,899.2
585.803,903.5
585.937,903.9
586.07,903.5
586.204,906.5
586.338,907.3
586.471,913.2
586.605,911.2
586.738,913.8
586.872,914.6
587.005,912.1
587.139,914.9
587.273,917.1
587.406,918.9
587.54,921.1
587.673,922.7
587.807,923.2
587.94,921.4
588.074,923.7
588.207,923.7
588.341,926.8
588.474,929.3
588.608,927.4
588.741,928.1
588.875,927.3
589.008,927.3
589.142,935.4
589.275,934.1
589.409,938.6
589.542,935.6
589.676,939.6
589.809,943.1
589.943,944.2
590.076,945.5
590.21,944.9
590.343,946.5
590.476,943.5
590.61,950.0
590.743,951.3
590.877,952.2
591.01,949.3
591.144,954.5
591.277,954.7
591.41,955.0
591.544,954.8
591.677,957.0
591.81,958.3
591.944,954.7
592.077,963.1
592.211,962.1
592.344,963.4
592.477,963.2
592.611,961.4
592.744,962.4
592.877,962.3
593.011,969.1
593.144,965.4
593.277,965.1
593.411,969.5
593.544,967.1
593.677,971.8
593.81,969.6
593.944,967.2
594.077,968.7
594.21,969.2
594.344,972.7
594.477,966.5
594.61,965.5
594.743,971.2
594.877,974.3
595.01,971.7
595.143,970.1
595.276,969.4
595.41,975.2
595.543,970.3
595.676,970.8
595.809,971.9
595.942,970.0
596.076,969.7
596.209,971.2
596.342,970.5
596.475,966.8
596.608,968.3
596.742,966.0
596.875,970.0
597.008,967.8
597.141,971.4
597.274,967.1
597.407,963.6
597.541,968.3
597.674,962.4
597.807,961.6
597.94,959.4
598.073,962.8
598.206,961.8
598.339,967.7
598.472,963.0
598.606,959.3
598.739,962.0
598.872,966.4
599.005,960.1
599.138,962.0
599.271,957.9
599.404,955.9
599.537,958.6
599.67,959.1
599.803,958.9
599.936,957.5
600.069,955.9
600.202,953.3
600.335,952.5
600.468,954.1
600.601,954.6
600.734,947.8
600.868,955.1
601.001,952.0
601.134,949.1
601.267,948.3
601.4,949.8
601.533,949.1
601.665,952.8
601.798,949.4
601.931,953.1
602.064,956.4
602.197,950.5
602.33,950.6
602.463,951.2
602.596,946.3
602.729,948.7
602.862,948.1
602.995,943.5
603.128,945.6
603.261,944.2
603.394,943.8
603.527,946.6
603.66,949.7
603.793,944.9
603.926,947.1
604.058,947.8
604.191,947.1
604.324,947.2
604.457,942.1
604.59,939.6
604.723,945.1
604.856,940.7
604.989,945.1
605.121,943.1
605.254,943.4
605.387,940.0
605.52,937.5
605.653,937.2
605.786,940.0
605.918,937.7
606.051,936.6
606.184,938.1
606.317,935.8
606.45,935.6
606.583,936.8
606.715,933.2
606.848,936.7
606.981,936.9
607.114,938.8
607.246,937.8
607.379,936.8
607.512,934.7
607.645,935.4
607.778,935.7
607.91,934.8
608.043,933.1
608.176,936.1
608.309,936.1
608.441,938.2
608.574,934.8
608.707,937.4
608.839,935.6
608.972,938.2
609.105,936.7
609.238,935.7
609.37,936.0
609.503,940.2
609.636,938.2
609.768,936.1
609.901,936.0
610.034,934.1
610.166,935.9
610.299,934.2
610.432,935.1
610.564,942.7
610.697,934.9
610.83,939.5
610.962,940.9
611.095,936.9
611.228,939.3
611.36,937.2
611.493,938.9
611.626,942.6
611.758,939.8
611.891,937.9
612.023,940.7
612.156,940.0
612.289,936.2
612.421,936.0
612.554,940.4
612.686,943.7
612.819,944.1
612.952,941.7
613.084,940.6
613.217,938.8
613.349,943.7
613.482,942.2
613.614,940.0
613.747,940.8
613.88,944.6
614.012,943.7
614.145,939.5
614.277,944.3
614.41,945.1
614.542,941.5
614.675,939.2
614.807,942.1
614.94,943.5
615.072,942.8
615.205,940.9
615.337,942.0
615.47,942.8
615.602,939.7
615.735,942.2
615.867,942.2
616.0,945.5
616.132,946.7
616.265,946.4
616.397,945.7
616.53,944.2
616.662,949.3
616.795,944.6
616.927,948.4
617.059,952.9
617.192,952.2
617.324,953.6
617.457,954.8
617.589,953.3
617.722,952.5
617.854,957.2
617.986,956.1
618.119,959.1
618.251,956.6
618.384,956.3
618.516,952.1
618.648,957.0
618.781,952.2
618.913,948.7
619.046,954.4
619.178,952.7
619.31,955.2
619.443,954.4
619.575,957.6
619.707,961.6
619.84,957.3
619.972,956.3
620.105,953.9
620.237,947.6
620.369,955.3
620.502,954.8
620.634,957.4
620.766,958.2
620.899,955.7
621.031,960.2
621.163,962.6
621.295,966.9
621.428,970.0
621.56,980.9
621.692,990.5
621.825,992.5
621.957,1007.1
622.089,1020.8
622.222,1028.2
622.354,1035.3
622.486,1027.9
622.618,1013.1
622.751,995.2
622.883,982.2
623.015,973.6
623.147,964.9
623.28,962.3
623.412,954.6
623.544,956.3
623.676,952.5
623.809,951.3
623.941,955.6
624.073,950.9
624.205,949.8
624.338,949.1
624.47,948.8
624.602,946.1
624.734,948.1
624.866,947.5
624.999,948.0
625.131,945.8
625.263,949.6
625.395,951.9
625.527,953.3
625.66,956.2
625.792,957.1
625.924,966.0
626.056,977.5
626.188,985.5
626.32,1003.0
626.453,1039.2
626.585,1098.9
626.717,1213.6
626.849,1402.7
626.981,1686.8
627.113,1965.1
627.245,2081.2
627.377,2010.7
627.51,1857.8
627.642,1718.2
627.774,1629.2
627.906,1570.7
628.038,1540.6
628.17,1572.4
628.302,1676.4
628.434,1982.7
628.566,2316.2
628.699,2056.0
628.831,1640.8
628.963,1481.8
629.095,1446.5
629.227,1413.2
629.359,1394.2
629.491,1360.8
629.623,1312.2
629.755,1269.0
629.887,1233.8
630.019,1216.5
630.151,1215.0
630.283,1207.1
630.415,1205.5
630.547,1183.4
630.68,1163.0
630.812,1130.4
630.944,1091.6
631.076,1053.3
631.208,1007.0
631.34,987.7
631.472,964.7
631.604,963.6
631.736,955.0
631.868,953.4
632.0,949.0
632.132,942.2
632.264,943.2
632.396,938.5
632.528,943.4
632.66,939.5
632.792,935.6
632.924,933.8
633.056,937.7
633.188,937.3
633.32,930.6
633.451,932.2
633.583,930.6
633.715,926.2
633.847,927.5
633.979,926.3
634.111,926.8
634.243,924.5
634.375,921.1
634.507,924.9
634.639,922.5
634.771,927.5
634.903,923.1
635.035,924.4
635.167,923.1
635.299,922.7
635.431,919.8
635.562,921.3
635.694,921.5
635.826,919.3
635.958,919.4
636.09,922.8
636.222,921.6
636.354,924.5
636.486,917.8
636.618,918.4
636.749,919.0
636.881,919.4
637.013,919.4
637.145,919.2
637.277,918.1
637.409,918.0
637.541,914.6
637.673,917.3
637.804,912.4
637.936,916.3
638.068,917.0
638.2,918.4
638.332,918.1
638.464,917.3
638.595,919.9
638.727,917.6
638.859,918.1
638.991,916.9
639.123,914.1
639.255,913.7
639.386,918.1
639.518,919.9
639.65,916.8
639.782,918.3
639.914,915.9
640.045,914.5
640.177,920.2
640.309,917.7
640.441,920.8
640.573,919.1
640.704,921.7
640.836,918.7
640.968,924.7
641.1,919.2
641.231,921.5
641.363,917.9
641.495,922.8
641.627,918.0
641.759,920.1
641.89,922.3
642.022,919.3
642.154,921.4
642.286,922.4
642.417,920.4
642.549,922.8
642.681,922.1
642.813,923.0
642.944,921.8
643.076,919.8
643.208,920.9
643.339,921.5
643.471,924.7
643.603,917.8
643.735,919.5
643.866,919.6
643.998,921.7
644.13,922.6
644.261,922.2
644.393,920.7
644.525,919.5
644.657,918.7
644.788,918.4
644.92,922.0
645.052,920.9
645.183,917.8
645.315,916.5
645.447,919.9
645.578,920.7
645.71,920.8
645.842,919.1
645.973,922.5
646.105,917.4
646.237,918.8
646.368,921.4
646.5,920.4
646.632,919.2
646.763,920.7
646.895,917.1
647.027,922.3
647.158,921.8
647.29,921.2
647.421,921.4
647.553,922.3
647.685,922.0
647.816,922.2
647.948,923.2
648.08,924.7
648.211,921.6
648.343,918.6
648.474,919.9
648.606,919.6
648.738,919.9
648.869,918.7
649.001,918.6
649.133,916.3
649.264,913.6
649.396,919.8
649.527,920.8
649.659,916.7
649.791,915.3
649.922,916.5
650.054,917.0
650.185,917.5
650.317,919.3
650.448,915.8
650.58,917.1
650.712,916.0
650.843,913.0
650.975,913.3
651.106,917.6
651.238,917.1
651.369,915.4
651.501,915.3
651.633,917.1
651.764,911.1
651.896,909.1
652.027,912.7
652.159,911.5
652.29,910.4
652.422,911.8
652.553,913.3
652.685,912.8
652.816,908.6
652.948,911.0
653.079,908.9
653.211,908.8
653.343,912.8
653.474,909.8
653.606,908.5
653.737,905.7
653.869,911.3
654.0,909.1
654.132,910.0
654.263,904.5
654.395,906.8
654.526,909.7
654.658,906.1
654.789,908.1
654.921,907.9
655.052,909.9
655.184,905.2
655.315,902.6
655.447,902.9
655.578,903.8
655.71,903.2
655.841,904.1
655.973,902.5
656.104,904.9
656.236,900.6
656.367,898.7
656.498,899.2
656.63,902.1
656.761,898.8
656.893,901.9
657.024,901.5
657.156,904.1
657.287,903.3
657.419,900.4
657.55,903.2
657.682,904.6
657.813,900.1
657.945,902.9
658.076,903.0
658.207,905.2
658.339,897.0
658.47,901.6
658.602,899.2
658.733,901.1
658.865,898.8
658.996,897.9
659.127,901.2
659.259,900.6
659.39,897.3
659.522,900.0
659.653,898.3
659.785,896.9
659.916,900.4
660.047,903.0
660.179,899.6
660.31,898.4
660.442,901.9
660.573,900.9
660.704,900.4
660.836,900.1
660.967,899.3
661.099,895.6
661.23,896.6
661.362,897.3
661.493,894.5
661.624,900.8
661.756,893.8
661.887,896.0
662.018,897.5
662.15,897.3
662.281,896.1
662.413,895.2
662.544,897.1
662.675,896.5
662.807,895.5
662.938,893.8
663.07,891.0