File: spectra/VLFR_08-PLA_nobio_Raman_563bb233.csv
cm-1,Intensity
-123.878,1852.35
-117.855,1851.7
-111.836,1853.05
-105.821,1852.4
-99.8104,1853.0
-93.8036,1853.25
-87.8007,1851.8
-81.8019,1852.4
-75.807,1853.4
-69.8161,1853.0
-63.8293,1852.65
-57.8464,1851.6
-51.8675,1853.9
-45.8926,1853.2
-39.9216,1854.9
-33.9547,1853.45
-27.9917,1857.25
-22.0326,1857.15
-16.0776,1883.1
-10.1265,2257.3
-4.17932,3543.35
1.76388,2979.55
7.70313,1936.3
13.6384,1854.3
19.5698,1855.0
25.4972,1854.5
31.4207,1855.1
37.3403,1853.3
43.256,1853.9
49.1677,1865.9
55.0755,1927.45
60.9794,2042.15
66.8794,2106.0
72.7754,2108.3
78.6676,2109.1
84.5559,2106.0
90.4402,2104.9
96.3207,2104.8
102.197,2090.35
108.07,2103.3
113.939,2103.6
119.804,2098.0
125.665,2088.6
131.522,2086.05
137.375,2073.5
143.225,2078.45
149.07,2077.65
154.912,2096.1
160.75,2082.65
166.584,2070.45
172.414,2074.05
178.241,2075.15
184.063,2090.2
189.882,2093.55
195.697,2097.0
201.508,2083.6
207.315,2086.6
213.119,2076.15
218.918,2079.0
224.714,2074.4
230.506,2071.45
236.294,2073.8
242.078,2084.3
247.859,2087.4
253.636,2078.65
259.409,2071.7
265.178,2079.45
270.943,2069.25
276.705,2075.0
282.463,2084.2
288.217,2087.7
293.967,2113.05
299.713,2106.45
305.456,2107.7
311.195,2099.25
316.93,2105.0
322.662,2102.8
328.389,2107.1
334.113,2095.15
339.834,2097.25
345.55,2095.55
351.263,2098.8
356.972,2100.85
362.677,2092.15
368.379,2098.4
374.077,2111.3
379.771,2123.85
385.461,2127.4
391.148,2143.0
396.831,2152.65
402.51,2171.35
408.186,2166.05
413.858,2139.65
419.526,2126.8
425.19,2124.6
430.851,2113.9
436.508,2111.7
442.162,2116.2
447.811,2117.25
453.458,2114.1
459.1,2114.85
464.739,2110.9
470.374,2124.45
476.005,2120.15
481.633,2116.65
487.257,2131.0
492.878,2122.35
498.494,2125.2
504.107,2127.6
509.717,2131.3
515.323,2129.95
520.925,2135.05
526.524,2137.5
532.119,2135.45
537.71,2132.05
543.298,2150.5
548.882,2139.95
554.462,2145.75
560.039,2143.8
565.613,2144.65
571.182,2147.6
576.748,2145.45
582.311,2151.45
587.87,2145.0
593.425,2142.8
598.977,2150.1
604.525,2153.6
610.069,2154.1
615.61,2154.6
621.148,2148.25
626.682,2165.65
632.212,2151.85
637.739,2167.6
643.262,2163.55
648.781,2177.45
654.297,2158.95
659.81,2166.1
665.319,2177.5
670.824,2180.4
676.326,2174.2
681.824,2180.45
687.319,2177.65
692.81,2183.55
698.298,2170.7
703.782,2179.55
709.262,2176.15
714.739,2184.6
720.213,2176.45
725.683,2177.25
731.15,2170.65
736.613,2194.2
742.072,2202.65
747.528,2200.7
752.981,2182.3
758.43,2184.0
763.875,2183.1
769.317,2194.65
774.756,2180.4
780.191,2184.9
785.623,2185.85
791.051,2186.5
796.475,2188.7
801.897,2181.1
807.314,2176.25
812.729,2181.4
818.139,2189.0
823.547,2183.7
828.951,2187.85
834.351,2193.0
839.748,2196.4
845.142,2199.1
850.532,2198.85
855.918,2230.9
861.302,2280.75
866.681,2331.3
872.058,2388.7
877.431,2359.95
882.8,2273.6
888.166,2229.3
893.529,2207.65
898.888,2227.25
904.244,2217.1
909.596,2213.15
914.945,2216.8
920.291,2211.5
925.633,2218.6
930.972,2213.05
936.308,2223.4
941.64,2205.75
946.968,2211.2
952.294,2224.9
957.615,2205.0
962.934,2215.6
968.249,2210.0
973.561,2219.35
978.869,2216.65
984.174,2202.75
989.476,2227.9
994.774,2222.6
1000.07,2222.95
1005.36,2217.45
1010.65,2231.45
1015.93,2228.05
1021.22,2236.9
1026.49,2242.65
1031.77,2254.65
1037.04,2275.8
1042.31,2289.15
1047.57,2287.05
1052.83,2269.2
1058.09,2244.0
1063.35,2237.3
1068.6,2245.95
1073.85,2252.25
1079.09,2254.2
1084.33,2263.95
1089.57,2286.0
1094.81,2289.5
1100.04,2280.2
1105.27,2268.3
1110.49,2272.45
1115.71,2297.35
1120.93,2308.7
1126.15,2306.9
1131.36,2319.65
1136.57,2297.75
1141.77,2288.05
1146.98,2269.2
1152.18,2275.95
1157.37,2258.0
1162.56,2268.95
1167.75,2256.4
1172.94,2272.05
1178.12,2271.25
1183.3,2283.4
1188.48,2274.8
1193.65,2265.25
1198.82,2280.75
1203.99,2267.15
1209.15,2267.95
1214.31,2285.95
1219.46,2280.95
1224.62,2276.9
1229.77,2275.05
1234.92,2259.65
1240.06,2274.3
1245.2,2285.65
1250.34,2282.25
1255.47,2283.95
1260.6,2274.3
1265.73,2278.6
1270.85,2266.25
1275.97,2282.7
1281.09,2290.15
1286.21,2301.0
1291.32,2327.1
1296.43,2348.0
1301.53,2327.6
1306.63,2319.1
1311.73,2319.95
1316.83,2310.8
1321.92,2313.35
1327.01,2298.0
1332.1,2312.2
1337.18,2307.1
1342.26,2310.0
1347.34,2310.9
1352.41,2310.35
1357.48,2301.6
1362.55,2313.65
1367.61,2313.7
1372.67,2308.6
1377.73,2317.55
1382.78,2326.7
1387.84,2306.9
1392.88,2314.7
1397.93,2316.1
1402.97,2303.05
1408.01,2290.1
1413.05,2290.9
1418.08,2292.6
1423.11,2295.65
1428.14,2314.5
1433.16,2315.3
1438.18,2325.1
1443.2,2360.2
1448.21,2389.65
1453.22,2398.3
1458.23,2374.65
1463.23,2373.25
1468.23,2338.7
1473.23,2311.5
1478.23,2309.15
1483.22,2293.75
1488.21,2305.45
1493.2,2307.75
1498.18,2293.25
1503.16,2291.05
1508.14,2287.85
1513.11,2298.8
1518.08,2298.5
1523.05,2312.05
1528.01,2288.05
1532.97,2296.45
1537.93,2301.1
1542.89,2298.15
1547.84,2297.65
1552.79,2307.4
1557.73,2293.15
1562.68,2298.8
1567.62,2300.2
1572.56,2297.7
1577.49,2313.6
1582.42,2293.15
1587.35,2304.75
1592.27,2302.7
1597.19,2304.25
1602.11,2299.85
1607.03,2319.55
1611.94,2295.65
1616.85,2305.35
1621.76,2314.9
1626.66,2293.4
1631.56,2305.1
1636.46,2297.8
1641.36,2298.8
1646.25,2305.5
1651.14,2311.9
1656.02,2295.9
1660.9,2292.7
1665.78,2289.4
1670.66,2312.5
1675.54,2296.5
1680.41,2292.0
1685.27,2308.05
1690.14,2289.6
1695.0,2298.05
1699.86,2296.4
1704.71,2297.3
1709.57,2292.55
1714.42,2300.1
1719.26,2289.85
1724.11,2297.5
1728.95,2306.65
1733.79,2301.7
1738.62,2299.45
1743.46,2328.55
1748.28,2346.2
1753.11,2348.45
1757.93,2379.25
1762.75,2399.5
1767.57,2395.15
1772.39,2388.55
1777.2,2376.8
1782.01,2357.8
1786.81,2342.25
1791.62,2316.6
1796.41,2304.25
1801.21,2307.7
1806.01,2298.75
1810.8,2291.45
1815.59,2303.4
1820.37,2297.85
1825.15,2283.7
1829.93,2285.85
1834.71,2298.7
1839.48,2298.85
1844.25,2294.65
1849.02,2284.7
1853.79,2305.9
1858.55,2286.05
1863.31,2291.75
1868.06,2291.6
1872.82,2303.45
1877.57,2309.65
1882.31,2295.55
1887.06,2302.75
1891.8,2307.55
1896.54,2299.95
1901.28,2293.05
1906.01,2287.8
1910.74,2301.85
1915.47,2286.5
1920.19,2294.25
1924.91,2271.15
1929.63,2303.3
1934.35,2294.85
1939.06,2291.3
1943.77,2294.65
1948.48,2306.3
1953.19,2302.3
1957.89,2285.2
1962.59,2287.0
1967.28,2304.3
1971.98,2308.75
1976.67,2295.1
1981.35,2292.1
1986.04,2292.6
1990.72,2309.1
1995.4,2291.75
2000.08,2289.9
2004.75,2316.5
2009.42,2292.15
2014.09,2300.5
2018.75,2296.2
2023.42,2290.15
2028.08,2314.25
2032.73,2300.95
2037.39,2293.85
2042.04,2295.15
2046.69,2306.95
2051.33,2293.4
2055.97,2302.25
2060.61,2311.6
2065.25,2294.45
2069.88,2304.45
2074.52,2287.55
2079.15,2288.75
2083.77,2305.0
2088.39,2299.4
2093.01,2300.8
2097.63,2301.2
2102.25,2294.6
2106.86,2292.3
2111.47,2308.95
2116.08,2300.9
2120.68,2309.0
2125.28,2294.95
2129.88,2302.0
2134.47,2301.45
2139.07,2297.3
2143.66,2304.4
2148.24,2308.45
2152.83,2298.55
2157.41,2297.45
2161.99,2306.7
2166.57,2297.9
2171.14,2298.0
2175.71,2301.1
2180.28,2299.6
2184.84,2307.85
2189.41,2303.5
2193.97,2291.5
2198.52,2297.6
2203.08,2315.05
2207.63,2308.05
2212.18,2310.8
2216.73,2302.55
2221.27,2296.65
2225.81,2309.95
2230.35,2300.5
2234.89,2296.75
2239.42,2308.35
2243.95,2300.8
2248.48,2277.65
2253.0,2307.7
2257.52,2302.75
2262.04,2303.8
2266.56,2284.25
2271.07,2294.8
2275.58,2297.0
2280.09,2314.25
2284.6,2298.45
2289.1,2303.8
2293.6,2292.55
2298.1,2293.85
2302.6,2296.65
2307.09,2288.6
2311.58,2311.05
2316.07,2298.15
2320.55,2287.6
2325.03,2302.3
2329.51,2301.1
2333.99,2299.5
2338.46,2306.3
2342.93,2296.3
2347.4,2305.4
2351.87,2289.35
2356.33,2295.75
2360.79,2294.0
2365.25,2295.0
2369.71,2292.85
2374.16,2296.95
2378.61,2280.6
2383.06,2304.9
2387.5,2293.35
2391.94,2298.95
2396.38,2290.8
2400.82,2286.25
2405.26,2295.4
2409.69,2295.35
2414.12,2300.3
2418.54,2295.55
2422.97,2296.7
2427.39,2298.55
2431.81,2309.95
2436.22,2307.15
2440.64,2287.05
2445.05,2300.55
2449.46,2289.25
2453.86,2282.55
2458.27,2275.9
2462.67,2292.0
2467.06,2282.8
2471.46,2278.05
2475.85,2294.3
2480.24,2296.05
2484.63,2279.65
2489.02,2270.4
2493.4,2292.8
2497.78,2302.9
2502.16,2285.45
2506.53,2272.15
2510.9,2286.2
2515.27,2297.8
2519.64,2291.2
2524.0,2285.0
2528.37,2275.65
2532.73,2285.75
2537.08,2282.65
2541.44,2300.15
2545.79,2278.95
2550.14,2278.3
2554.48,2275.3
2558.83,2267.95
2563.17,2291.4
2567.51,2279.1
2571.85,2286.8
2576.18,2285.25
2580.51,2288.8
2584.84,2276.35
2589.17,2282.0
2593.49,2269.75
2597.81,2290.4
2602.13,2268.95
2606.45,2278.25
2610.76,2277.25
2615.07,2279.75
2619.38,2278.45
2623.69,2278.85
2627.99,2273.85
2632.29,2276.65
2636.59,2272.8
2640.89,2269.95
2645.18,2275.35
2649.47,2290.15
2653.76,2280.7
2658.05,2279.75
2662.33,2280.95
2666.61,2287.6
2670.89,2274.6
2675.17,2260.95
2679.44,2274.5
2683.71,2267.6
2687.98,2273.75
2692.25,2275.3
2696.51,2271.0
2700.77,2268.75
2705.03,2271.1
2709.29,2262.2
2713.54,2273.0
2717.79,2265.05
2722.04,2264.8
2726.29,2296.7
2730.53,2265.3
2734.77,2280.7
2739.01,2293.85
2743.25,2290.75
2747.48,2282.0
2751.71,2278.9
2755.94,2281.45
2760.17,2272.9
2764.39,2267.65
2768.61,2269.95
2772.83,2277.05
2777.05,2271.7
2781.27,2274.6
2785.48,2265.95
2789.69,2253.4
2793.89,2253.85
2798.1,2264.5
2802.3,2264.1
2806.5,2248.95
2810.7,2246.05
2814.89,2243.75
2819.09,2264.8
2823.28,2254.2
2827.46,2248.65
2831.65,2244.95
2835.83,2260.4
2840.01,2263.8
2844.19,2249.05
2848.37,2226.55
2852.54,2259.45
2856.71,2250.2
2860.88,2269.6
2865.05,2270.0
2869.21,2314.75
2873.37,2336.6
2877.53,2389.5
2881.69,2388.85
2885.84,2394.85
2889.99,2384.55
2894.14,2353.85
2898.29,2368.65
2902.43,2354.35
2906.58,2357.85
2910.72,2360.0
2914.85,2371.7
2918.99,2363.95
2923.12,2366.2
2927.25,2405.8
2931.38,2486.9
2935.5,2676.05
2939.63,2894.75
2943.75,3171.7
2947.87,3159.0
2951.98,3069.45
2956.1,2836.45
2960.21,2647.5
2964.32,2566.9
2968.42,2532.4
2972.53,2461.4
2976.63,2447.25
2980.73,2436.35
2984.83,2439.0
2988.92,2461.6
2993.01,2533.25
2997.1,2596.1
3001.19,2610.1
3005.28,2582.65
3009.36,2562.45
3013.44,2511.3
3017.52,2442.85
3021.6,2379.6
3025.67,2332.45
3029.74,2297.15
3033.81,2256.15
3037.88,2262.95
3041.94,2254.1
3046.01,2228.65
3050.07,2230.65
3054.12,2225.5
3058.18,2218.45
3062.23,2220.15
3066.28,2214.1
3070.33,2202.9
3074.38,2208.5
3078.42,2211.2
3082.46,2209.1
3086.5,2199.45
3090.54,2201.95
3094.57,2209.6
3098.6,2201.15
3102.63,2179.35
3106.66,2197.85
3110.69,2211.8
3114.71,2199.85
3118.73,2174.05
3122.75,2190.2
3126.77,2212.45
3130.78,2194.1
3134.79,2189.5
3138.8,2191.5
3142.81,2189.75
3146.81,2178.05
3150.82,2191.1
3154.82,2181.85
3158.81,2178.05
3162.81,2178.85
3166.8,2186.6
3170.79,2180.85
3174.78,2184.6
3178.77,2173.5
3182.75,2175.75
3186.74,2179.85
3190.72,2175.7
3194.69,2170.6
3198.67,2182.9
3202.64,2179.2
3206.61,2178.15
3210.58,2174.3
3214.55,2180.65
3218.51,2182.2
3222.47,2168.35
3226.43,2180.55
3230.39,2164.8
3234.35,2194.25
3238.3,2167.55
3242.25,2162.8
3246.2,2158.6
3250.15,2161.85
3254.09,2159.9
3258.03,2153.55
3261.97,2151.1
3265.91,2154.15
3269.84,2161.2
3273.78,2157.05
3277.71,2150.8
3281.64,2157.35
3285.56,2156.2
3289.49,2151.7
3293.41,2147.6
3297.33,2154.7
3301.25,2143.5
3305.16,2148.7
3309.07,2142.6
3312.99,2146.75
3316.89,2149.1
3320.8,2145.65
3324.7,2140.3
3328.61,2132.25
3332.51,2149.6
3336.4,2136.05
3340.3,2140.5
3344.19,2134.9
3348.08,2118.75
3351.97,2143.05
3355.86,2146.4
3359.74,2131.75
3363.63,2136.7
3367.51,2128.95
3371.39,2118.85
3375.26,2119.6
3379.13,2126.35
3383.01,2134.95
3386.88,2129.85
3390.74,2122.9
3394.61,2123.95
3398.47,2117.6
3402.33,2122.5
3406.19,2120.1
3410.05,2114.25
3413.9,2120.85
3417.75,2121.05
3421.6,2126.3
3425.45,2107.1
3429.3,2110.6
3433.14,2113.55
3436.98,2123.2
3440.82,2114.25
3444.66,2117.55
3448.49,2111.75
3452.32,2111.4
3456.15,2123.3
3459.98,2118.05
3463.81,2108.35
3467.63,2103.5
3471.46,2110.0
3475.28,2105.9
3479.09,2108.45
3482.91,2105.2
3486.72,2099.7
3490.53,2090.2
3494.34,2099.85
3498.15,2101.95
3501.96,2090.3
3505.76,2101.7
3509.56,2090.35
3513.36,2109.3
3517.15,2099.45
3520.95,2077.6
3524.74,2088.45
3528.53,2098.15
3532.32,2086.85
3536.11,2099.55
3539.89,2092.05
3543.67,2079.55
3547.45,2085.9
3551.23,2079.25
3555.0,2090.1
3558.78,2090.0
3562.55,2088.4
3566.32,2073.8
3570.09,2081.0
3573.85,2079.1
3577.61,2090.8
3581.37,2083.5
3585.13,2081.9
3588.89,2081.4
3592.64,2085.85
3596.4,2068.7
3600.15,2079.9
3603.9,2079.9
3607.64,2070.0
3611.39,2072.7
3615.13,2072.35
3618.87,2067.75
3622.61,2057.9
3626.34,2051.6
3630.08,2068.05
3633.81,2055.15
3637.54,2059.25
3641.27,2057.85
3644.99,2066.05
3648.72,2070.85
3652.44,2060.0
3656.16,2068.6
3659.87,2061.75
3663.59,2071.2
3665.45,2056.7