File: spectra/VLFR_06-PET_nobio_Raman_db91c6a5.csv
nm,Intensity
528.65,1842.17
528.819,1842.1
528.987,1842.47
529.155,1843.03
529.324,1842.13
529.492,1842.57
529.66,1842.33
529.829,1842.5
529.997,1842.63
530.165,1842.8
530.334,1843.37
530.502,1843.93
530.67,1897.93
530.839,1843.77
531.007,1844.87
531.175,1846.27
531.344,1846.47
531.512,1852.93
531.68,1892.83
531.848,2573.53
532.017,4548.53
532.185,3886.6
532.353,1965.0
532.521,1847.9
532.69,1847.0
532.858,1847.3
533.026,1849.57
533.194,1855.13
533.363,1874.8
533.531,2087.23
533.699,3373.17
533.867,5450.5
534.036,6507.47
534.204,6620.73
534.372,5862.1
534.54,5551.77
534.708,5294.23
534.877,4868.53
535.045,4499.37
535.213,4180.93
535.381,3861.4
535.549,3613.23
535.717,3352.27
535.886,3111.5
536.054,2946.13
536.222,2825.93
536.39,2735.2
536.558,2675.3
536.726,2641.43
536.894,2603.03
537.062,2558.23
537.231,2542.63
537.399,2527.53
537.567,2519.77
537.735,2497.17
537.903,2519.0
538.071,2509.87
538.239,2499.4
538.407,2529.03
538.575,2517.2
538.743,2518.77
538.911,2516.4
539.079,2525.67
539.247,2544.77
539.415,2571.4
539.583,2613.0
539.751,2659.13
539.919,2666.3
540.087,2607.17
540.255,2569.0
540.423,2488.37
540.591,2441.83
540.759,2431.67
540.927,2420.73
541.095,2390.33
541.263,2379.03
541.431,2367.47
541.599,2357.63
541.767,2378.93
541.935,2373.63
542.103,2383.7
542.271,2373.5
542.439,2376.3
542.607,2374.87
542.775,2378.8
542.943,2367.03
543.111,2388.77
543.279,2369.3
543.446,2359.3
543.614,2386.97
543.782,2400.27
543.95,2429.37
544.118,2401.93
544.286,2393.37
544.454,2382.67
544.622,2380.1
544.789,2401.53
544.957,2410.83
545.125,2376.83
545.293,2388.43
545.461,2406.27
545.629,2395.87
545.796,2389.3
545.964,2406.47
546.132,2401.73
546.3,2383.8
546.468,2411.57
546.635,2396.73
546.803,2408.67
546.971,2403.5
547.139,2406.77
547.306,2413.1
547.474,2395.93
547.642,2400.33
547.81,2408.0
547.977,2408.83
548.145,2407.5
548.313,2391.8
548.481,2404.3
548.648,2419.73
548.816,2403.8
548.984,2392.7
549.151,2410.7
549.319,2399.07
549.487,2396.83
549.655,2405.37
549.822,2393.5
549.99,2397.5
550.158,2420.83
550.325,2509.7
550.493,2885.2
550.66,3239.63
550.828,2799.47
550.996,2461.6
551.163,2425.67
551.331,2442.8
551.499,2415.0
551.666,2416.77
551.834,2432.3
552.001,2427.1
552.169,2438.33
552.337,2438.83
552.504,2485.53
552.672,2634.1
552.839,2743.1
553.007,2613.1
553.174,2481.67
553.342,2446.27
553.509,2443.97
553.677,2442.67
553.844,2456.07
554.012,2437.7
554.179,2433.23
554.347,2436.0
554.514,2440.73
554.682,2439.6
554.849,2456.7
555.017,2496.87
555.184,2521.13
555.352,2608.5
555.519,2749.57
555.687,2815.0
555.854,2793.8
556.022,2790.6
556.189,2819.6
556.357,2832.5
556.524,2853.53
556.691,2888.2
556.859,2879.23
557.026,2955.9
557.194,3211.7
557.361,3523.9
557.528,3712.3
557.696,3530.87
557.863,3155.8
558.031,2966.97
558.198,2933.63
558.365,2968.03
558.533,2924.97
558.7,2853.2
558.867,2784.53
559.035,2701.03
559.202,2610.9
559.369,2559.53
559.537,2553.6
559.704,2535.87
559.871,2533.8
560.038,2531.23
560.206,2533.07
560.373,2527.6
560.54,2538.33
560.708,2547.5
560.875,2544.93
561.042,2569.17
561.209,2572.6
561.377,2576.93
561.544,2589.53
561.711,2606.4
561.878,2650.47
562.045,2669.07
562.213,2702.4
562.38,2656.4
562.547,2714.43
562.714,2712.73
562.881,2762.93
563.049,2761.43
563.216,2749.23
563.383,2718.47
563.55,2705.2
563.717,2678.23
563.884,2667.87
564.052,2652.1
564.219,2650.23
564.386,2711.0
564.553,2775.4
564.72,2807.67
564.887,2940.0
565.054,3079.9
565.221,3143.13
565.388,3272.63
565.556,3393.97
565.723,3458.13
565.89,3457.9
566.057,3268.07
566.224,3092.1
566.391,2954.3
566.558,2823.77
566.725,2763.17
566.892,2737.97
567.059,2726.27
567.226,2777.23
567.393,2936.0
567.56,3101.3
567.727,3196.83
567.894,3002.9
568.061,2865.63
568.228,2787.2
568.395,2750.8
568.562,2735.03
568.729,2748.23
568.896,2736.93
569.063,2730.23
569.23,2795.8
569.396,2811.0
569.563,2850.03
569.73,2882.57
569.897,2944.4
570.064,3012.87
570.231,3121.87
570.398,3307.93
570.565,3557.5
570.732,3781.03
570.898,4069.93
571.065,4429.97
571.232,4605.7
571.399,4590.93
571.566,4234.87
571.733,3927.27
571.9,3704.2
572.066,3521.3
572.233,3301.33
572.4,3126.1
572.567,2994.3
572.734,2955.73
572.9,2901.13
573.067,2882.53
573.234,2891.2
573.401,2894.5
573.567,2938.77
573.734,2973.27
573.901,3028.47
574.068,3022.23
574.234,3012.97
574.401,2949.83
574.568,2943.2
574.734,2971.0
574.901,3000.03
575.068,3101.47
575.235,3202.6
575.401,3209.37
575.568,3107.83
575.735,2987.73
575.901,3010.77
576.068,3059.1
576.235,3137.17
576.401,3211.57
576.568,3232.13
576.734,3227.6
576.901,3202.87
577.068,3140.4
577.234,3052.5
577.401,2985.9
577.567,2971.17
577.734,2968.0
577.901,2931.07
578.067,2937.37
578.234,2982.73
578.4,3002.1
578.567,2976.7
578.733,2981.57
578.9,2961.33
579.066,2989.17
579.233,3009.07
579.399,2986.0
579.566,3022.87
579.732,3013.13
579.899,3021.43
580.065,3053.93
580.232,3055.17
580.398,3067.6
580.565,3091.6
580.731,3119.5
580.898,3183.43
581.064,3223.0
581.231,3263.47
581.397,3360.2
581.563,3720.3
581.73,4571.8
581.896,6558.83
582.063,8891.03
582.229,8596.2
582.395,5636.27
582.562,3738.37
582.728,3362.27
582.895,3249.47
583.061,3203.43
583.227,3146.73
583.394,3123.57
583.56,3134.0
583.726,3132.13
583.893,3177.37
584.059,3129.53
584.225,3167.97
584.391,3194.97
584.558,3197.97
584.724,3302.67
584.89,3313.23
585.057,3401.03
585.223,3658.6
585.389,4147.9
585.555,5190.2
585.722,6097.93
585.888,6528.47
586.054,6505.57
586.22,5935.57
586.386,5094.07
586.553,4440.23
586.719,3790.2
586.885,3531.43
587.051,3357.27
587.217,3302.23
587.384,3246.6
587.55,3200.23
587.716,3190.73
587.882,3186.17
588.048,3218.9
588.214,3212.63
588.38,3202.2
588.546,3160.97
588.713,3200.87
588.879,3160.57
589.045,3182.8
589.211,3159.9
589.377,3185.87
589.543,3181.97
589.709,3146.5
589.875,3137.23
590.041,3164.67
590.207,3184.53
590.373,3168.6
590.539,3157.83
590.705,3121.77
590.871,3161.3
591.037,3148.63
591.203,3177.7
591.369,3154.23
591.535,3165.2
591.701,3160.8
591.867,3184.53
592.033,3169.77
592.199,3176.9
592.365,3193.77
592.531,3183.3
592.697,3188.33
592.863,3186.53
593.029,3203.23
593.195,3167.13
593.361,3177.0
593.526,3217.63
593.692,3165.87
593.858,3166.2
594.024,3202.57
594.19,3161.3
594.356,3216.2
594.522,3204.5
594.687,3161.5
594.853,3172.93
595.019,3223.87
595.185,3202.43
595.351,3195.07
595.516,3194.57
595.682,3223.47
595.848,3218.1
596.014,3175.93
596.18,3183.87
596.345,3225.7
596.511,3205.6
596.677,3239.9
596.843,3183.43
597.008,3198.7
597.174,3214.0
597.34,3220.77
597.505,3254.77
597.671,3218.07
597.837,3220.8
598.002,3200.67
598.168,3212.73
598.334,3243.43
598.499,3192.43
598.665,3230.43
598.831,3249.93
598.996,3232.6
599.162,3225.27
599.328,3210.97
599.493,3247.63
599.659,3199.2
599.824,3258.23
599.99,3256.27
600.156,3221.5
600.321,3222.47
600.487,3234.17
600.652,3237.23
600.818,3265.93
600.983,3250.83
601.149,3225.03
601.314,3227.6
601.48,3262.87
601.645,3251.73
601.811,3245.5
601.976,3253.57
602.142,3224.1
602.307,3226.8
602.473,3253.77
602.638,3241.17
602.804,3262.47
602.969,3232.83
603.135,3262.6
603.3,3253.13
603.466,3266.0
603.631,3256.93
603.796,3270.13
603.962,3264.0
604.127,3256.9
604.293,3268.6
604.458,3248.07
604.623,3224.77
604.789,3288.13
604.954,3271.8
605.119,3222.33
605.285,3223.83
605.45,3259.3
605.615,3276.87
605.781,3261.27
605.946,3260.63
606.111,3266.87
606.277,3269.33
606.442,3257.93
606.607,3274.57
606.772,3280.9
606.938,3279.13
607.103,3268.67
607.268,3298.47
607.433,3271.23
607.599,3249.4
607.764,3293.63
607.929,3297.9
608.094,3259.3
608.259,3227.03
608.425,3301.37
608.59,3322.47
608.755,3261.57
608.92,3253.7
609.085,3250.77
609.25,3294.4
609.415,3266.5
609.581,3264.17
609.746,3288.43
609.911,3287.73
610.076,3297.0
610.241,3314.0
610.406,3261.73
610.571,3284.03
610.736,3332.63
610.901,3244.37
611.066,3316.53
611.231,3287.17
611.396,3287.23
611.561,3282.67
611.727,3304.5
611.892,3312.6
612.057,3270.17
612.222,3256.7
612.386,3306.77
612.551,3317.27
612.716,3297.17
612.881,3302.7
613.046,3301.93
613.211,3294.47
613.376,3322.27
613.541,3272.73
613.706,3313.73
613.871,3307.53
614.036,3331.33
614.201,3332.13
614.366,3286.7
614.531,3361.23
614.695,3313.4
614.86,3358.6
615.025,3311.8
615.19,3309.13
615.355,3323.67
615.52,3347.5
615.684,3342.07
615.849,3323.13
616.014,3300.6
616.179,3393.67
616.344,3349.63
616.508,3362.67
616.673,3332.07
616.838,3353.13
617.003,3387.7
617.168,3399.67
617.332,3381.17
617.497,3408.0
617.662,3362.6
617.826,3409.83
617.991,3407.33
618.156,3408.8
618.32,3422.7
618.485,3444.07
618.65,3420.9
618.814,3416.97
618.979,3412.27
619.144,3364.83
619.308,3414.57
619.473,3359.13
619.638,3371.8
619.802,3379.37
619.967,3368.2
620.131,3360.53
620.296,3420.3
620.461,3353.1
620.625,3366.5
620.79,3341.27
620.954,3343.83
621.119,3390.23
621.283,3405.83
621.448,3364.33
621.612,3390.97
621.777,3414.57
621.941,3348.33
622.106,3386.47
622.27,3389.5
622.435,3400.37
622.599,3395.07
622.764,3453.07
622.928,3386.53
623.093,3469.33
623.257,3393.23
623.422,3413.6
623.586,3432.83
623.75,3412.37
623.915,3412.17
624.079,3388.5
624.244,3448.5
624.408,3520.1
624.572,3461.4
624.737,3437.93
624.901,3444.37
625.065,3524.17
625.23,3469.2
625.394,3492.03
625.558,3476.6
625.723,3472.1
625.887,3428.27
626.051,3408.83
626.215,3480.93
626.38,3471.73
626.544,3459.47
626.708,3406.67
626.872,3439.37
627.037,3481.87
627.201,3444.37
627.365,3497.63
627.529,3473.43
627.693,3530.87
627.858,3520.5
628.022,3498.33
628.186,3526.37
628.35,3567.0
628.514,3613.2
628.678,3695.9
628.843,3684.5
629.007,3715.8
629.171,3706.3
629.335,3717.07
629.499,3683.37
629.663,3693.23
629.827,3671.97
629.991,3588.2
630.155,3640.57
630.319,3618.73
630.483,3710.33
630.647,3703.97
630.812,3831.97
630.976,3970.33
631.14,4098.83
631.304,4440.83
631.468,4565.0
631.632,4578.33
631.796,4710.9
631.959,4490.13
632.123,4492.6
632.287,4372.87
632.451,4162.87
632.615,4225.23
632.779,4097.2
632.943,3989.87
633.107,4063.93
633.271,4047.43
633.435,4011.0
633.599,3972.27
633.763,3917.53
633.926,3872.47
634.09,3760.7
634.254,3827.3
634.418,3783.67
634.582,3753.3
634.746,3731.83
634.909,3706.03
635.073,3780.43
635.237,3713.43
635.401,3763.97
635.564,3832.07
635.728,3977.1
635.892,4181.8
636.056,4293.4
636.219,4573.23
636.383,4751.27
636.547,4874.6
636.711,4718.6
636.874,4404.47
637.038,4254.1
637.202,4010.77
637.365,3927.03
637.529,3893.87
637.693,3810.4
637.856,3749.87
638.02,3712.87
638.184,3742.47
638.347,3730.7
638.511,3744.4
638.674,3699.6
638.838,3722.03
639.002,3669.37
639.165,3710.23
639.329,3723.2
639.492,3674.07
639.656,3787.5
639.819,3665.97
639.983,3659.3
640.146,3750.03
640.31,3664.7
640.473,3647.3
640.637,3648.87
640.8,3701.0
640.964,3665.23
641.127,3695.03
641.291,3635.8
641.454,3748.3
641.618,3651.73
641.781,3688.43
641.944,3739.1
642.108,3747.77
642.271,3714.27
642.435,3727.2
642.598,3787.83
642.761,3689.33
642.925,3664.63
643.088,3635.53
643.251,3703.8
643.415,3673.2
643.578,3685.83
643.741,3706.27
643.905,3692.73
644.068,3661.03
644.231,3710.0
644.394,3635.27
644.558,3684.77
644.721,3661.03
644.884,3707.8
645.047,3674.8
645.211,3658.1
645.374,3694.2
645.537,3730.87
645.7,3713.7
645.863,3636.37
646.027,3623.73
646.19,3725.6
646.353,3644.63
646.516,3641.03
646.679,3639.8
646.842,3680.37
647.005,3683.3
647.169,3700.97
647.332,3688.77
647.495,3648.9
647.658,3668.67
647.821,3703.27
647.984,3680.8
648.147,3611.43
648.31,3663.37
648.473,3634.2
648.636,3675.43
648.799,3664.57
648.962,3646.07
649.125,3634.57
649.288,3705.27
649.451,3584.1
649.614,3628.5
649.777,3620.4
649.94,3632.53
650.103,3584.0
650.266,3568.3
650.429,3636.2
650.592,3650.57
650.755,3634.53
650.918,3643.17
651.08,3613.2
651.243,3567.57
651.406,3592.73
651.569,3635.53
651.732,3575.97
651.895,3612.83
652.058,3628.1
652.22,3620.9
652.383,3576.1
652.546,3546.97
652.709,3616.83
652.872,3602.87
653.034,3556.33
653.197,3505.1
653.36,3592.47
653.523,3523.4
653.685,3516.83
653.848,3539.7
654.011,3565.5
654.173,3548.43
654.336,3551.47
654.499,3491.57
654.662,3472.53
654.824,3552.33
654.987,3568.63
655.149,3494.37
655.312,3492.03
655.475,3496.2
655.637,3534.23
655.8,3562.1
655.963,3486.6
656.125,3513.3
656.288,3471.6
656.45,3466.4
656.613,3484.53
656.775,3504.17
656.938,3445.37
657.1,3431.93
657.263,3416.5
657.425,3424.93
657.588,3452.27
657.75,3448.03
657.913,3425.03
658.075,3437.47
658.238,3354.93
658.4,3349.1
658.563,3404.33
658.725,3437.97
658.888,3435.07
659.05,3449.1
659.212,3358.03
659.375,3347.6
659.537,3322.17
659.7,3349.03
659.862,3339.73
660.024,3302.07
660.187,3370.7
660.349,3398.27
660.511,3338.17
660.674,3348.83
660.836,3300.23
660.998,3333.3
661.079,3333.77