File: spectra/VLFR_02-HDPE_bio_Raman_254d49ff.csv
nm,Intensity
528.65,1855.85
528.819,1856.5
528.987,1855.85
529.155,1855.45
529.324,1855.5
529.492,1855.3
529.66,1855.65
529.829,1855.75
529.997,1855.95
530.165,1857.2
530.334,1855.45
530.502,1855.15
530.67,1856.15
530.839,1856.55
531.007,1856.7
531.175,1858.85
531.344,1859.1
531.512,1863.35
531.68,1902.9
531.848,2434.6
532.017,4112.65
532.185,3443.25
532.353,2002.2
532.521,1861.6
532.69,1857.8
532.858,1856.45
533.026,1856.8
533.194,1857.45
533.363,1857.75
533.531,1864.75
533.699,1901.65
533.867,1977.35
534.036,2024.1
534.204,2040.65
534.372,2030.35
534.54,2031.0
534.708,2031.1
534.877,2039.3
535.045,2044.1
535.213,2052.15
535.381,2032.85
535.549,2034.75
535.717,2042.8
535.886,2048.7
536.054,2037.25
536.222,2041.55
536.39,2021.95
536.558,2018.55
536.726,2016.95
536.894,2021.65
537.062,2032.0
537.231,2046.25
537.399,2043.85
537.567,2027.75
537.735,2022.65
537.903,2024.25
538.071,2037.15
538.239,2033.05
538.407,2018.5
538.575,2013.6
538.743,2017.2
538.911,2016.65
539.079,2013.95
539.247,2012.6
539.415,2009.1
539.583,2008.4
539.751,2007.8
539.919,2009.5
540.087,2007.9
540.255,2002.85
540.423,2004.35
540.591,2002.55
540.759,2004.5
540.927,2001.15
541.095,2005.0
541.263,2013.95
541.431,2008.8
541.599,2005.75
541.767,2018.35
541.935,2008.4
542.103,2014.05
542.271,1995.45
542.439,2012.25
542.607,2013.55
542.775,2014.3
542.943,2016.0
543.111,2015.95
543.279,2020.5
543.446,2021.7
543.614,2030.05
543.782,2059.35
543.95,2137.05
544.118,2199.75
544.286,2133.6
544.454,2048.5
544.622,2027.5
544.789,2028.0
544.957,2021.95
545.125,2030.75
545.293,2025.85
545.461,2023.4
545.629,2021.95
545.796,2035.15
545.964,2039.3
546.132,2057.3
546.3,2101.35
546.468,2138.6
546.635,2104.25
546.803,2053.55
546.971,2048.15
547.139,2037.6
547.306,2035.15
547.474,2032.9
547.642,2021.75
547.81,2033.15
547.977,2030.5
548.145,2031.2
548.313,2032.85
548.481,2036.6
548.648,2040.6
548.816,2040.15
548.984,2045.3
549.151,2041.2
549.319,2047.6
549.487,2053.95
549.655,2054.45
549.822,2066.25
549.99,2069.1
550.158,2089.2
550.325,2093.0
550.493,2071.2
550.66,2054.2
550.828,2047.4
550.996,2049.75
551.163,2042.25
551.331,2052.6
551.499,2045.25
551.666,2056.5
551.834,2054.25
552.001,2057.85
552.169,2054.3
552.337,2046.35
552.504,2052.3
552.672,2038.2
552.839,2034.8
553.007,2046.55
553.174,2046.1
553.342,2053.15
553.509,2056.75
553.677,2051.95
553.844,2053.7
554.012,2049.3
554.179,2058.95
554.347,2049.25
554.514,2052.6
554.682,2054.55
554.849,2054.75
555.017,2059.95
555.184,2057.85
555.352,2056.5
555.519,2064.25
555.687,2060.85
555.854,2058.7
556.022,2066.9
556.189,2070.85
556.357,2057.5
556.524,2057.95
556.691,2064.75
556.859,2070.1
557.026,2068.65
557.194,2072.55
557.361,2066.8
557.528,2071.3
557.696,2074.55
557.863,2068.65
558.031,2078.5
558.198,2085.65
558.365,2074.0
558.533,2065.25
558.7,2072.45
558.867,2073.45
559.035,2072.9
559.202,2068.6
559.369,2078.55
559.537,2074.0
559.704,2078.75
559.871,2077.3
560.038,2070.1
560.206,2073.3
560.373,2077.95
560.54,2080.15
560.708,2082.9
560.875,2089.15
561.042,2096.0
561.209,2079.2
561.377,2098.2
561.544,2103.55
561.711,2136.05
561.878,2191.45
562.045,2538.4
562.213,3137.85
562.38,3184.2
562.547,2467.1
562.714,2179.3
562.881,2123.15
563.049,2107.95
563.216,2110.6
563.383,2109.55
563.55,2119.15
563.717,2146.6
563.884,2234.75
564.052,2308.8
564.219,2228.65
564.386,2149.1
564.553,2144.5
564.72,2145.15
564.887,2141.4
565.054,2128.55
565.221,2118.3
565.388,2120.65
565.556,2132.2
565.723,2159.75
565.89,2216.45
566.057,2335.8
566.224,2368.1
566.391,2282.55
566.558,2230.2
566.725,2195.0
566.892,2152.55
567.059,2141.5
567.226,2150.2
567.393,2164.0
567.56,2146.3
567.727,2134.85
567.894,2128.7
568.061,2123.05
568.228,2121.2
568.395,2128.3
568.562,2131.9
568.729,2128.95
568.896,2133.25
569.063,2136.95
569.23,2134.8
569.396,2146.55
569.563,2143.35
569.73,2150.8
569.897,2146.9
570.064,2153.95
570.231,2159.7
570.398,2163.25
570.565,2163.8
570.732,2178.75
570.898,2176.6
571.065,2188.2
571.232,2237.5
571.399,2418.0
571.566,2507.7
571.733,2338.45
571.9,2254.35
572.066,2238.05
572.233,2203.3
572.4,2207.3
572.567,2198.15
572.734,2220.9
572.9,2201.45
573.067,2199.5
573.234,2204.1
573.401,2207.3
573.567,2218.8
573.734,2220.05
573.901,2232.05
574.068,2230.85
574.234,2223.05
574.401,2233.7
574.568,2225.65
574.734,2244.2
574.901,2237.1
575.068,2250.3
575.235,2284.6
575.401,2349.75
575.568,2407.15
575.735,2368.75
575.901,2373.8
576.068,2454.65
576.235,2563.45
576.401,2562.1
576.568,2465.9
576.734,2464.85
576.901,2477.2
577.068,2492.4
577.234,2451.45
577.401,2409.9
577.567,2382.35
577.734,2385.6
577.901,2382.5
578.067,2394.75
578.234,2395.9
578.4,2388.3
578.567,2408.7
578.733,2424.2
578.9,2443.25
579.066,2429.1
579.233,2453.55
579.399,2479.6
579.566,2471.0
579.732,2475.85
579.899,2502.6
580.065,2515.7
580.232,2521.35
580.398,2541.95
580.565,2547.3
580.731,2558.05
580.898,2562.65
581.064,2578.85
581.231,2604.8
581.397,2622.1
581.563,2610.5
581.73,2642.1
581.896,2659.25
582.063,2649.05
582.229,2680.1
582.395,2718.95
582.562,2714.15
582.728,2699.85
582.895,2735.95
583.061,2747.55
583.227,2755.65
583.394,2780.15
583.56,2795.45
583.726,2793.55
583.893,2807.75
584.059,2823.45
584.225,2836.55
584.391,2871.9
584.558,2861.85
584.724,2880.7
584.89,2853.25
585.057,2882.5
585.223,2913.5
585.389,2925.05
585.555,2951.3
585.722,2948.6
585.888,2945.05
586.054,2975.7
586.22,3030.45
586.386,3024.8
586.553,3028.85
586.719,3022.9
586.885,3057.7
587.051,3091.5
587.217,3122.45
587.384,3112.8
587.55,3151.25
587.716,3160.1
587.882,3202.25
588.048,3186.9
588.214,3211.7
588.38,3224.0
588.546,3258.4
588.713,3273.35
588.879,3243.85
589.045,3328.55
589.211,3302.4
589.377,3296.2
589.543,3324.25
589.709,3375.55
589.875,3367.75
590.041,3393.25
590.207,3436.55
590.373,3443.35
590.539,3485.95
590.705,3483.55
590.871,3478.05
591.037,3504.15
591.203,3524.3
591.369,3569.0
591.535,3561.2
591.701,3593.35
591.867,3638.45
592.033,3638.95
592.199,3637.3
592.365,3655.15
592.531,3678.15
592.697,3670.55
592.863,3701.25
593.029,3742.25
593.195,3673.1
593.361,3745.75
593.526,3731.9
593.692,3741.7
593.858,3765.45
594.024,3767.4
594.19,3791.3
594.356,3806.35
594.522,3790.6
594.687,3845.2
594.853,3851.45
595.019,3907.05
595.185,3818.8
595.351,3969.7
595.516,3898.35
595.682,3960.75
595.848,3962.85
596.014,4021.2
596.18,3994.95
596.345,4020.6
596.511,3998.0
596.677,4076.25
596.843,4034.3
597.008,4049.65
597.174,4114.85
597.34,4176.5
597.505,4146.85
597.671,4092.65
597.837,4194.9
598.002,4254.8
598.168,4171.1
598.334,4247.75
598.499,4297.7
598.665,4246.05
598.831,4263.0
598.996,4322.85
599.162,4360.9
599.328,4414.0
599.493,4369.2
599.659,4382.45
599.824,4458.7
599.99,4387.8
600.156,4457.25
600.321,4498.75
600.487,4463.35
600.652,4534.7
600.818,4501.15
600.983,4447.8
601.149,4549.3
601.314,4498.6
601.48,4567.75
601.645,4484.4
601.811,4544.85
601.976,4547.8
602.142,4520.15
602.307,4488.85
602.473,4595.3
602.638,4472.45
602.804,4446.95
602.969,4500.6
603.135,4510.0
603.3,4494.9
603.466,4470.55
603.631,4462.95
603.796,4463.1
603.962,4407.1
604.127,4317.5
604.293,4397.35
604.458,4332.7
604.623,4329.3
604.789,4257.1
604.954,4257.95
605.119,4218.0
605.285,4178.05
605.45,4199.2
605.615,4157.35
605.781,4170.25
605.946,4090.85
606.111,4063.85
606.277,4119.0
606.442,4115.4
606.607,4043.55
606.772,4027.15
606.938,3943.95
607.103,3994.15
607.268,3921.4
607.433,3876.25
607.599,3917.45
607.764,3870.45
607.929,3809.65
608.094,3810.6
608.259,3823.65
608.425,3787.4
608.59,3787.15
608.755,3750.4
608.92,3671.55
609.085,3652.65
609.25,3693.75
609.415,3675.1
609.581,3655.1
609.746,3634.1
609.911,3613.4
610.076,3595.95
610.241,3635.45
610.406,3585.05
610.571,3542.3
610.736,3543.15
610.901,3556.4
611.066,3488.35
611.231,3537.9
611.396,3448.5
611.561,3503.55
611.727,3495.55
611.892,3446.05
612.057,3456.4
612.222,3425.45
612.386,3404.3
612.551,3410.95
612.716,3391.45
612.881,3392.75
613.046,3362.35
613.211,3342.2
613.376,3414.05
613.541,3357.0
613.706,3293.15
613.871,3311.15
614.036,3341.75
614.201,3341.15
614.366,3293.45
614.531,3272.35
614.695,3286.65
614.86,3268.4
615.025,3289.1
615.19,3269.15
615.355,3253.25
615.52,3247.8
615.684,3239.8
615.849,3225.95
616.014,3204.4
616.179,3202.7
616.344,3219.85
616.508,3157.25
616.673,3143.15
616.838,3202.8
617.003,3155.55
617.168,3192.5
617.332,3169.3
617.497,3128.85
617.662,3114.65
617.826,3154.6
617.991,3157.0
618.156,3107.05
618.32,3127.85
618.485,3137.5
618.65,3130.9
618.814,3084.75
618.979,3078.7
619.144,3117.2
619.308,3072.1
619.473,3091.75
619.638,3110.7
619.802,3079.25
619.967,3088.9
620.131,3075.75
620.296,3080.15
620.461,3079.35
620.625,3071.7
620.79,3063.05
620.954,3023.85
621.119,3063.55
621.283,3080.2
621.448,3080.45
621.612,3096.95
621.777,3089.8
621.941,3109.55
622.106,3092.55
622.27,3124.0
622.435,3124.45
622.599,3091.55
622.764,3096.3
622.928,3040.65
623.093,2989.5
623.257,3005.5
623.422,2992.55
623.586,2982.5
623.75,3020.9
623.915,3006.1
624.079,2964.0
624.244,2958.8
624.408,2997.6
624.572,3022.25
624.737,2993.35
624.901,2965.85
625.065,2953.0
625.23,2957.55
625.394,2989.35
625.558,2970.45
625.723,3010.2
625.887,2970.05
626.051,3022.75
626.215,3074.7
626.38,3118.4
626.544,3279.9
626.708,3644.95
626.872,4083.15
627.037,4650.45
627.201,5003.05
627.365,4843.4
627.529,4500.05
627.693,4267.25
627.858,4100.85
628.022,4009.6
628.186,4369.3
628.35,4815.0
628.514,5185.55
628.678,5073.6
628.843,4477.95
629.007,4216.15
629.171,4064.4
629.335,4010.15
629.499,3914.1
629.663,3746.0
629.827,3754.0
629.991,3611.6
630.155,3621.2
630.319,3608.8
630.483,3513.95
630.647,3510.85
630.812,3349.95
630.976,3257.55
631.14,3141.2
631.304,3067.65
631.468,3082.4
631.632,2996.15
631.796,2980.3
631.959,3003.3
632.123,2979.45
632.287,2977.75
632.451,2979.55
632.615,2976.15
632.779,2982.2
632.943,3021.8
633.107,3042.2
633.271,2991.15
633.435,2994.6
633.599,2987.7
633.763,2983.25
633.926,2993.45
634.09,2961.95
634.254,2995.2
634.418,3001.2
634.582,3013.65
634.746,2985.8
634.909,2970.5
635.073,2979.05
635.237,3030.35
635.401,2998.75
635.564,2967.45
635.728,2953.6
635.892,3006.85
636.056,2991.4
636.219,2984.6
636.383,2980.05
636.547,2979.6
636.711,3038.05
636.874,2978.85
637.038,2975.6
637.202,2996.45
637.365,3034.65
637.529,2989.2
637.693,3009.95
637.856,3019.25
638.02,3014.2
638.184,2974.2
638.347,3022.8
638.511,3068.4
638.674,3020.95
638.838,3035.1
639.002,3005.05
639.165,2987.05
639.329,3043.15
639.492,3031.45
639.656,3016.1
639.819,3062.85
639.983,3027.1
640.146,3058.95
640.31,3075.15
640.473,3052.25
640.637,2980.3
640.8,3065.9
640.964,3051.5
641.127,3043.75
641.291,3116.45
641.454,3072.7
641.618,3030.1
641.781,3087.25
641.944,3053.85
642.108,3038.1
642.271,3080.5
642.435,3087.25
642.598,3082.1
642.761,3130.15
642.925,3068.0
643.088,3108.25
643.251,3058.55
643.415,3085.45
643.578,3108.85
643.741,3123.55
643.905,3108.9
644.068,3108.9
644.231,3128.9
644.394,3112.7
644.558,3090.7
644.721,3098.35
644.884,3122.8
645.047,3161.9
645.211,3123.6
645.374,3131.35
645.537,3094.35
645.7,3103.0
645.863,3162.5
646.027,3129.9
646.19,3104.2
646.353,3121.65
646.516,3110.9
646.679,3137.0
646.842,3109.05
647.005,3130.55
647.169,3164.05
647.332,3167.05
647.495,3158.15
647.658,3106.1
647.821,3152.25
647.984,3142.75
648.147,3115.15
648.31,3099.85
648.473,3186.35
648.636,3161.25
648.799,3173.6
648.962,3183.45
649.125,3192.3
649.288,3243.4
649.451,3273.05
649.614,3280.2
649.777,3315.7
649.94,3371.05
650.103,3316.6
650.266,3329.8
650.429,3269.25
650.592,3255.15
650.755,3151.8
650.918,3183.7
651.08,3167.25
651.243,3182.85
651.406,3133.5
651.569,3076.25
651.732,3074.1
651.895,3105.55
652.058,3069.05
652.22,3105.85
652.383,3087.8
652.546,3040.8
652.709,3071.8
652.872,3024.35
653.034,3080.1
653.197,3043.7
653.36,3023.1
653.523,3047.9
653.685,2995.6
653.848,3062.8
654.011,3000.15
654.173,3013.5
654.336,3009.05
654.499,3016.55
654.662,2994.9
654.824,2970.8
654.987,2963.1
655.149,2966.8
655.312,2985.25
655.475,2999.05
655.637,2945.95
655.8,2989.7
655.963,2930.6
656.125,2948.75
656.288,2913.7
656.45,2934.45
656.613,2936.35
656.775,2918.0
656.938,2905.25
657.1,2922.35
657.263,2896.1
657.425,2908.4
657.588,2916.85
657.75,2857.25
657.913,2874.45
658.075,2861.05
658.238,2850.15
658.4,2831.2
658.563,2801.2
658.725,2832.3
658.888,2833.7
659.05,2816.2
659.212,2784.2
659.375,2770.55
659.537,2772.3
659.7,2750.2
659.862,2768.85
660.024,2747.0
660.187,2700.85
660.349,2701.35
660.511,2696.6
660.674,2706.45
660.836,2705.45
660.998,2671.2
661.079,2668.85