File: spectra/VLFR_06-PET_bio_Raman_5ae87d83.csv
nm,Intensity
528.65,1847.45
528.819,1848.05
528.987,1848.05
529.155,1848.95
529.324,1847.65
529.492,1847.65
529.66,1847.8
529.829,1846.95
529.997,1849.5
530.165,1847.3
530.334,1848.0
530.502,1847.9
530.67,1847.5
530.839,1848.8
531.007,1849.9
531.175,1850.85
531.344,1851.65
531.512,1852.75
531.68,1875.8
531.848,2243.2
532.017,3408.65
532.185,3118.3
532.353,1970.9
532.521,1851.85
532.69,1850.8
532.858,1849.95
533.026,1854.15
533.194,1856.6
533.363,1872.85
533.531,2045.75
533.699,3049.6
533.867,4765.8
534.036,5540.9
534.204,5389.15
534.372,5023.1
534.54,4757.5
534.708,4473.5
534.877,4202.45
535.045,3967.2
535.213,3754.45
535.381,3577.05
535.549,3365.0
535.717,3166.35
535.886,2987.7
536.054,2851.55
536.222,2777.25
536.39,2730.4
536.558,2692.95
536.726,2680.35
536.894,2647.65
537.062,2627.2
537.231,2590.1
537.399,2625.95
537.567,2611.75
537.735,2589.5
537.903,2597.7
538.071,2604.0
538.239,2626.35
538.407,2615.0
538.575,2611.2
538.743,2651.7
538.911,2624.95
539.079,2615.95
539.247,2671.2
539.415,2688.6
539.583,2713.8
539.751,2775.7
539.919,2738.7
540.087,2711.35
540.255,2658.55
540.423,2626.2
540.591,2632.45
540.759,2586.05
540.927,2574.8
541.095,2544.75
541.263,2541.9
541.431,2552.45
541.599,2543.05
541.767,2525.25
541.935,2541.55
542.103,2562.5
542.271,2545.15
542.439,2532.8
542.607,2554.0
542.775,2591.0
542.943,2555.3
543.111,2549.4
543.279,2571.95
543.446,2558.6
543.614,2564.3
543.782,2608.95
543.95,2587.0
544.118,2603.4
544.286,2578.85
544.454,2584.75
544.622,2581.7
544.789,2591.65
544.957,2605.9
545.125,2589.1
545.293,2619.4
545.461,2587.25
545.629,2621.65
545.796,2598.3
545.964,2614.3
546.132,2624.25
546.3,2610.9
546.468,2642.65
546.635,2621.4
546.803,2606.35
546.971,2624.5
547.139,2626.5
547.306,2658.3
547.474,2633.15
547.642,2637.3
547.81,2669.5
547.977,2655.35
548.145,2651.6
548.313,2672.55
548.481,2662.35
548.648,2669.4
548.816,2658.85
548.984,2661.05
549.151,2672.3
549.319,2683.25
549.487,2664.8
549.655,2645.55
549.822,2653.3
549.99,2659.65
550.158,2693.7
550.325,2749.65
550.493,3047.7
550.66,3299.65
550.828,3028.6
550.996,2748.3
551.163,2749.1
551.331,2728.7
551.499,2704.45
551.666,2724.65
551.834,2723.35
552.001,2747.9
552.169,2741.35
552.337,2713.75
552.504,2768.75
552.672,2886.8
552.839,2992.7
553.007,2872.15
553.174,2803.6
553.342,2773.7
553.509,2758.45
553.677,2765.05
553.844,2761.45
554.012,2770.75
554.179,2765.15
554.347,2762.05
554.514,2759.65
554.682,2779.0
554.849,2799.5
555.017,2811.25
555.184,2850.7
555.352,2900.25
555.519,3036.35
555.687,3091.65
555.854,3024.0
556.022,3048.55
556.189,3089.4
556.357,3110.9
556.524,3078.9
556.691,3085.7
556.859,3127.95
557.026,3209.25
557.194,3356.15
557.361,3643.5
557.528,3807.0
557.696,3635.0
557.863,3341.2
558.031,3207.4
558.198,3232.1
558.365,3197.3
558.533,3190.3
558.7,3137.8
558.867,3091.5
559.035,3042.85
559.202,2956.95
559.369,2920.75
559.537,2932.95
559.704,2910.45
559.871,2893.0
560.038,2903.65
560.206,2908.3
560.373,2914.9
560.54,2926.25
560.708,2930.65
560.875,2943.25
561.042,2927.65
561.209,2972.0
561.377,2944.3
561.544,2984.8
561.711,2996.5
561.878,3007.3
562.045,3069.35
562.213,3100.2
562.38,3053.9
562.547,3064.45
562.714,3100.8
562.881,3129.75
563.049,3132.1
563.216,3106.65
563.383,3144.4
563.55,3130.1
563.717,3046.25
563.884,3048.3
564.052,3071.6
564.219,3082.9
564.386,3124.55
564.553,3161.3
564.72,3232.8
564.887,3313.3
565.054,3395.75
565.221,3487.25
565.388,3615.15
565.556,3692.6
565.723,3757.9
565.89,3797.8
566.057,3624.95
566.224,3492.05
566.391,3337.85
566.558,3252.9
566.725,3189.85
566.892,3193.5
567.059,3199.45
567.226,3238.75
567.393,3338.15
567.56,3531.55
567.727,3581.3
567.894,3410.75
568.061,3311.15
568.228,3306.6
568.395,3224.45
568.562,3222.0
568.729,3223.2
568.896,3237.65
569.063,3279.6
569.23,3275.2
569.396,3304.35
569.563,3360.4
569.73,3391.85
569.897,3438.8
570.064,3464.05
570.231,3574.55
570.398,3764.3
570.565,3961.15
570.732,4068.0
570.898,4322.15
571.065,4626.45
571.232,4826.9
571.399,4850.0
571.566,4578.65
571.733,4286.75
571.9,4090.1
572.066,3980.7
572.233,3804.45
572.4,3652.45
572.567,3575.9
572.734,3544.05
572.9,3500.8
573.067,3447.0
573.234,3471.45
573.401,3509.7
573.567,3506.7
573.734,3506.3
573.901,3582.5
574.068,3592.05
574.234,3634.1
574.401,3588.95
574.568,3502.2
574.734,3534.2
574.901,3593.5
575.068,3691.95
575.235,3744.1
575.401,3747.75
575.568,3683.5
575.735,3615.25
575.901,3625.75
576.068,3660.75
576.235,3790.1
576.401,3815.95
576.568,3810.55
576.734,3819.2
576.901,3815.85
577.068,3704.25
577.234,3688.5
577.401,3611.45
577.567,3639.8
577.734,3627.25
577.901,3563.35
578.067,3589.2
578.234,3617.15
578.4,3589.25
578.567,3649.35
578.733,3663.75
578.9,3666.3
579.066,3620.05
579.233,3672.95
579.399,3669.0
579.566,3652.35
579.732,3713.35
579.899,3737.8
580.065,3711.0
580.232,3713.9
580.398,3752.35
580.565,3790.45
580.731,3777.15
580.898,3780.8
581.064,3851.45
581.231,3928.4
581.397,4008.0
581.563,4329.15
581.73,5031.5
581.896,6495.75
582.063,8574.6
582.229,8540.25
582.395,5957.8
582.562,4348.9
582.728,3996.55
582.895,3907.25
583.061,3848.3
583.227,3828.5
583.394,3877.8
583.56,3830.6
583.726,3826.65
583.893,3807.85
584.059,3837.25
584.225,3810.65
584.391,3908.5
584.558,3965.0
584.724,3939.5
584.89,3939.35
585.057,4020.15
585.223,4238.5
585.389,4650.6
585.555,5423.9
585.722,6279.8
585.888,6669.7
586.054,6616.85
586.22,6180.4
586.386,5479.2
586.553,4894.55
586.719,4439.85
586.885,4170.3
587.051,3953.1
587.217,3991.4
587.384,3926.35
587.55,3928.6
587.716,3924.4
587.882,3916.95
588.048,3967.85
588.214,3910.5
588.38,3909.3
588.546,3893.35
588.713,3898.6
588.879,3925.35
589.045,3937.05
589.211,3851.3
589.377,3891.3
589.543,3891.15
589.709,3850.3
589.875,3882.3
590.041,3840.3
590.207,3821.25
590.373,3886.25
590.539,3882.05
590.705,3918.2
590.871,3917.7
591.037,3838.05
591.203,3893.55
591.369,3888.4
591.535,3952.35
591.701,3922.85
591.867,3895.4
592.033,3921.6
592.199,3890.95
592.365,3964.15
592.531,3962.9
592.697,3886.25
592.863,3913.55
593.029,3948.05
593.195,3895.85
593.361,3908.6
593.526,3908.0
593.692,3930.65
593.858,3919.55
594.024,3905.2
594.19,3962.8
594.356,3959.75
594.522,3949.45
594.687,3958.7
594.853,3942.0
595.019,3969.05
595.185,3973.05
595.351,3987.3
595.516,3945.0
595.682,3974.4
595.848,4015.4
596.014,3937.05
596.18,3931.3
596.345,3965.25
596.511,4014.2
596.677,3970.55
596.843,3998.05
597.008,4043.55
597.174,3953.5
597.34,3984.2
597.505,3979.5
597.671,4003.5
597.837,3989.7
598.002,4049.15
598.168,3986.5
598.334,3949.8
598.499,3959.5
598.665,4033.1
598.831,3986.2
598.996,3947.0
599.162,3997.9
599.328,4070.3
599.493,4031.55
599.659,4014.05
599.824,3990.05
599.99,4019.7
600.156,4064.05
600.321,4008.35
600.487,4002.75
600.652,4033.25
600.818,4097.7
600.983,4042.25
601.149,4036.75
601.314,4060.7
601.48,4077.85
601.645,3999.7
601.811,4063.95
601.976,4068.25
602.142,4081.0
602.307,4020.6
602.473,4031.5
602.638,4059.1
602.804,4040.55
602.969,4072.45
603.135,4049.7
603.3,4090.65
603.466,4073.3
603.631,3998.0
603.796,4071.25
603.962,4096.55
604.127,4066.85
604.293,4074.65
604.458,4028.6
604.623,4079.35
604.789,4079.55
604.954,4056.0
605.119,4055.55
605.285,4054.7
605.45,4038.75
605.615,4042.55
605.781,4129.9
605.946,4055.85
606.111,4047.6
606.277,4059.55
606.442,4101.5
606.607,4098.5
606.772,4076.4
606.938,4124.1
607.103,4106.1
607.268,4126.7
607.433,4133.1
607.599,4077.65
607.764,4114.65
607.929,4132.7
608.094,4184.25
608.259,4101.25
608.425,4080.8
608.59,4111.5
608.755,4126.55
608.92,4152.5
609.085,4147.25
609.25,4126.55
609.415,4083.1
609.581,4116.05
609.746,4135.2
609.911,4117.0
610.076,4153.7
610.241,4135.5
610.406,4109.1
610.571,4183.35
610.736,4176.15
610.901,4120.85
611.066,4174.95
611.231,4201.2
611.396,4119.3
611.561,4176.6
611.727,4166.9
611.892,4162.65
612.057,4177.95
612.222,4178.3
612.386,4197.95
612.551,4152.65
612.716,4166.5
612.881,4176.8
613.046,4183.85
613.211,4173.55
613.376,4173.65
613.541,4153.7
613.706,4116.0
613.871,4263.4
614.036,4173.5
614.201,4195.35
614.366,4226.55
614.531,4214.45
614.695,4215.85
614.86,4197.25
615.025,4179.55
615.19,4264.6
615.355,4209.1
615.52,4198.95
615.684,4187.3
615.849,4258.35
616.014,4238.9
616.179,4307.05
616.344,4200.5
616.508,4299.6
616.673,4250.2
616.838,4185.5
617.003,4269.0
617.168,4293.2
617.332,4303.1
617.497,4309.4
617.662,4249.2
617.826,4341.0
617.991,4353.6
618.156,4363.25
618.32,4313.9
618.485,4346.25
618.65,4325.6
618.814,4324.65
618.979,4241.45
619.144,4347.8
619.308,4346.2
619.473,4331.7
619.638,4258.3
619.802,4319.75
619.967,4374.0
620.131,4263.0
620.296,4363.9
620.461,4323.6
620.625,4310.65
620.79,4346.35
620.954,4351.05
621.119,4273.55
621.283,4381.6
621.448,4298.5
621.612,4397.1
621.777,4356.95
621.941,4320.25
622.106,4341.1
622.27,4336.1
622.435,4386.5
622.599,4406.35
622.764,4368.95
622.928,4339.75
623.093,4389.8
623.257,4412.3
623.422,4399.7
623.586,4438.6
623.75,4342.5
623.915,4438.7
624.079,4379.5
624.244,4448.65
624.408,4466.45
624.572,4422.8
624.737,4460.3
624.901,4441.9
625.065,4518.4
625.23,4511.85
625.394,4478.65
625.558,4493.1
625.723,4394.2
625.887,4372.6
626.051,4449.6
626.215,4530.95
626.38,4416.95
626.544,4458.65
626.708,4480.4
626.872,4491.85
627.037,4412.35
627.201,4477.25
627.365,4548.9
627.529,4487.5
627.693,4498.55
627.858,4504.2
628.022,4571.55
628.186,4640.65
628.35,4710.7
628.514,4662.8
628.678,4727.65
628.843,4744.15
629.007,4791.9
629.171,4733.25
629.335,4735.75
629.499,4742.3
629.663,4810.2
629.827,4731.65
629.991,4622.8
630.155,4674.7
630.319,4805.0
630.483,4723.1
630.647,4784.0
630.812,4897.05
630.976,5036.95
631.14,5092.5
631.304,5547.65
631.468,5726.2
631.632,5785.25
631.796,5758.15
631.959,5619.25
632.123,5557.65
632.287,5379.8
632.451,5349.5
632.615,5309.6
632.779,5213.45
632.943,5167.9
633.107,5227.7
633.271,5213.35
633.435,5116.2
633.599,5153.2
633.763,5061.45
633.926,5029.75
634.09,4892.25
634.254,4907.35
634.418,4952.15
634.582,4931.65
634.746,4860.2
634.909,4875.9
635.073,4988.4
635.237,4843.65
635.401,4947.4
635.564,4980.95
635.728,5190.8
635.892,5362.9
636.056,5525.55
636.219,5706.95
636.383,5926.25
636.547,6050.7
636.711,5852.4
636.874,5625.15
637.038,5323.75
637.202,5195.6
637.365,5158.95
637.529,5127.05
637.693,4952.95
637.856,4862.8
638.02,4955.7
638.184,4949.95
638.347,4980.2
638.511,4808.35
638.674,4946.9
638.838,4970.75
639.002,4774.65
639.165,4854.15
639.329,4870.45
639.492,4892.4
639.656,4876.15
639.819,4886.9
639.983,4892.9
640.146,4908.55
640.31,4870.55
640.473,4825.0
640.637,4809.0
640.8,4863.25
640.964,4820.7
641.127,4857.65
641.291,4872.0
641.454,4903.5
641.618,4829.15
641.781,4901.85
641.944,4916.15
642.108,5051.35
642.271,4950.45
642.435,5004.55
642.598,4921.4
642.761,4952.25
642.925,4897.35
643.088,4795.9
643.251,4770.75
643.415,4976.5
643.578,4934.55
643.741,4923.7
643.905,4960.35
644.068,4910.0
644.231,4915.25
644.394,4956.35
644.558,4913.35
644.721,4858.35
644.884,4869.35
645.047,4871.45
645.211,4921.55
645.374,4950.15
645.537,4948.5
645.7,4918.4
645.863,5019.65
646.027,4864.0
646.19,4951.8
646.353,4934.55
646.516,4825.85
646.679,4945.05
646.842,4818.25
647.005,4891.4
647.169,4815.4
647.332,4939.75
647.495,4940.0
647.658,4974.4
647.821,4941.35
647.984,4845.2
648.147,4858.35
648.31,4876.1
648.473,4879.55
648.636,4715.85
648.799,4850.6
648.962,4870.3
649.125,4772.2
649.288,4911.35
649.451,4796.1
649.614,4727.2
649.777,4788.45
649.94,4842.8
650.103,4927.2
650.266,4834.1
650.429,4744.45
650.592,4801.8
650.755,4808.65
650.918,4804.1
651.08,4765.15
651.243,4848.55
651.406,4941.9
651.569,4762.8
651.732,4783.45
651.895,4834.35
652.058,4871.0
652.22,4755.85
652.383,4819.25
652.546,4763.55
652.709,4766.4
652.872,4690.5
653.034,4612.85
653.197,4714.55
653.36,4686.5
653.523,4674.05
653.685,4647.85
653.848,4685.85
654.011,4665.1
654.173,4710.8
654.336,4650.85
654.499,4635.4
654.662,4637.25
654.824,4662.45
654.987,4649.75
655.149,4652.7
655.312,4691.45
655.475,4539.7
655.637,4545.2
655.8,4668.2
655.963,4649.75
656.125,4579.2
656.288,4553.6
656.45,4598.4
656.613,4588.4
656.775,4596.65
656.938,4540.1
657.1,4648.85
657.263,4609.95
657.425,4574.95
657.588,4473.4
657.75,4503.65
657.913,4452.5
658.075,4471.95
658.238,4448.4
658.4,4435.95
658.563,4587.6
658.725,4448.0
658.888,4442.5
659.05,4523.35
659.212,4396.85
659.375,4382.35
659.537,4337.8
659.7,4355.15
659.862,4444.3
660.024,4370.9
660.187,4339.05
660.349,4354.15
660.511,4231.9
660.674,4415.3
660.836,4243.2
660.998,4324.75
661.079,4305.75