File: spectra/VLFR_01-LDPE_nobio_Raman_1fb2f857.csv
cm-1,Intensity
-123.878,1855.05
-117.855,1854.75
-111.836,1855.0
-105.821,1854.65
-99.8104,1856.3
-93.8036,1855.4
-87.8007,1855.25
-81.8019,1855.9
-75.807,1855.15
-69.8161,1855.2
-63.8293,1854.3
-57.8464,1855.4
-51.8675,1856.15
-45.8926,1856.55
-39.9216,1857.15
-33.9547,1857.55
-27.9917,1856.8
-22.0326,1858.65
-16.0776,1874.6
-10.1265,2134.4
-4.17932,2879.85
1.76388,2719.7
7.70313,1928.95
13.6384,1858.0
19.5698,1858.4
25.4972,1857.25
31.4207,1857.7
37.3403,1860.05
43.256,1864.85
49.1677,1914.95
55.0755,2219.45
60.9794,2793.4
66.8794,3183.75
72.7754,3342.15
78.6676,3365.2
84.5559,3376.85
90.4402,3452.9
96.3207,3478.45
102.197,3544.15
108.07,3530.55
113.939,3610.25
119.804,3681.85
125.665,3629.9
131.522,3582.65
137.375,3576.35
143.225,3608.8
149.07,3657.4
154.912,3677.9
160.75,3586.0
166.584,3687.4
172.414,3696.9
178.241,3672.3
184.063,3746.55
189.882,3716.1
195.697,3767.85
201.508,3772.15
207.315,3768.45
213.119,3776.85
218.918,3771.4
224.714,3818.25
230.506,3760.55
236.294,3793.0
242.078,3835.3
247.859,3851.15
253.636,3846.45
259.409,3876.25
265.178,3906.5
270.943,3850.2
276.705,3906.35
282.463,3953.7
288.217,3926.05
293.967,3972.6
299.713,3922.4
305.456,4011.05
311.195,3964.95
316.93,3963.75
322.662,3973.55
328.389,3970.15
334.113,3990.25
339.834,4068.35
345.55,4027.15
351.263,4058.65
356.972,4085.55
362.677,4116.25
368.379,4141.35
374.077,4155.5
379.771,4091.1
385.461,4142.8
391.148,4156.45
396.831,4179.15
402.51,4216.4
408.186,4175.2
413.858,4208.7
419.526,4234.05
425.19,4170.6
430.851,4229.7
436.508,4251.25
442.162,4306.1
447.811,4215.6
453.458,4178.2
459.1,4239.35
464.739,4318.55
470.374,4385.0
476.005,4368.1
481.633,4285.9
487.257,4388.0
492.878,4289.75
498.494,4323.9
504.107,4470.25
509.717,4433.4
515.323,4375.9
520.925,4310.4
526.524,4484.45
532.119,4433.65
537.71,4447.55
543.298,4412.05
548.882,4468.1
554.462,4531.55
560.039,4498.05
565.613,4551.25
571.182,4553.25
576.748,4557.35
582.311,4492.55
587.87,4526.7
593.425,4563.15
598.977,4597.1
604.525,4583.25
610.069,4569.2
615.61,4594.95
621.148,4536.15
626.682,4569.3
632.212,4639.9
637.739,4622.55
643.262,4742.8
648.781,4731.8
654.297,4692.65
659.81,4704.2
665.319,4704.55
670.824,4760.4
676.326,4757.85
681.824,4765.9
687.319,4800.0
692.81,4746.55
698.298,4785.4
703.782,4702.15
709.262,4789.1
714.739,4773.45
720.213,4833.2
725.683,4805.15
731.15,4789.75
736.613,4920.7
742.072,4936.15
747.528,4802.05
752.981,4910.3
758.43,4993.5
763.875,4934.2
769.317,4938.15
774.756,4948.45
780.191,4873.65
785.623,4946.8
791.051,4983.75
796.475,4973.45
801.897,4939.0
807.314,5018.15
812.729,5060.45
818.139,5076.75
823.547,4986.2
828.951,5020.05
834.351,5040.85
839.748,5091.15
845.142,5099.5
850.532,5092.0
855.918,5041.05
861.302,5107.6
866.681,5162.85
872.058,5144.6
877.431,5123.4
882.8,5227.0
888.166,5191.15
893.529,5171.15
898.888,5132.8
904.244,5245.25
909.596,5277.75
914.945,5255.9
920.291,5232.0
925.633,5285.05
930.972,5329.5
936.308,5356.95
941.64,5293.5
946.968,5248.1
952.294,5275.55
957.615,5263.05
962.934,5379.4
968.249,5420.45
973.561,5332.95
978.869,5435.1
984.174,5477.7
989.476,5346.75
994.774,5473.5
1000.07,5499.0
1005.36,5419.95
1010.65,5422.9
1015.93,5427.35
1021.22,5562.15
1026.49,5523.55
1031.77,5454.65
1037.04,5464.4
1042.31,5562.3
1047.57,5526.15
1052.83,5629.4
1058.09,5583.9
1063.35,5588.75
1068.6,5685.15
1073.85,5619.95
1079.09,5762.2
1084.33,5552.55
1089.57,5695.0
1094.81,5756.15
1100.04,5684.85
1105.27,5684.05
1110.49,5709.7
1115.71,5741.7
1120.93,5684.6
1126.15,5724.9
1131.36,5861.1
1136.57,5773.15
1141.77,5752.65
1146.98,5709.6
1152.18,5740.2
1157.37,5788.15
1162.56,5771.5
1167.75,5851.45
1172.94,5903.1
1178.12,5761.1
1183.3,5874.15
1188.48,5944.25
1193.65,5934.25
1198.82,5902.4
1203.99,5922.15
1209.15,5941.4
1214.31,5891.5
1219.46,6050.55
1224.62,5885.3
1229.77,5979.5
1234.92,6020.1
1240.06,6085.55
1245.2,6025.45
1250.34,5960.9
1255.47,6139.1
1260.6,6184.25
1265.73,6080.95
1270.85,6060.1
1275.97,6049.75
1281.09,6210.8
1286.21,6119.75
1291.32,6049.0
1296.43,6286.3
1301.53,6295.65
1306.63,6331.25
1311.73,6304.65
1316.83,6159.8
1321.92,6395.7
1327.01,6246.25
1332.1,6324.4
1337.18,6385.75
1342.26,6331.4
1347.34,6325.2
1352.41,6307.5
1357.48,6362.95
1362.55,6243.75
1367.61,6287.8
1372.67,6278.7
1377.73,6351.0
1382.78,6270.5
1387.84,6222.5
1392.88,6268.0
1397.93,6365.25
1402.97,6400.45
1408.01,6224.5
1413.05,6348.65
1418.08,6371.9
1423.11,6333.15
1428.14,6307.9
1433.16,6510.45
1438.18,6441.25
1443.2,6380.55
1448.21,6411.95
1453.22,6508.4
1458.23,6346.4
1463.23,6462.4
1468.23,6384.15
1473.23,6352.95
1478.23,6447.3
1483.22,6471.05
1488.21,6421.6
1493.2,6295.2
1498.18,6454.9
1503.16,6333.6
1508.14,6400.95
1513.11,6642.1
1518.08,6410.6
1523.05,6551.5
1528.01,6494.8
1532.97,6528.45
1537.93,6512.75
1542.89,6583.25
1547.84,6671.75
1552.79,6715.6
1557.73,6751.5
1562.68,6605.4
1567.62,6775.5
1572.56,6698.9
1577.49,6749.6
1582.42,6698.35
1587.35,6629.35
1592.27,6621.2
1597.19,6764.45
1602.11,6743.5
1607.03,6646.85
1611.94,6584.6
1616.85,6495.35
1621.76,6568.6
1626.66,6592.75
1631.56,6551.75
1636.46,6530.15
1641.36,6499.1
1646.25,6561.65
1651.14,6501.25
1656.02,6463.9
1660.9,6334.55
1665.78,6463.2
1670.66,6489.0
1675.54,6515.25
1680.41,6413.35
1685.27,6440.45
1690.14,6417.35
1695.0,6485.55
1699.86,6416.7
1704.71,6492.5
1709.57,6392.55
1714.42,6498.1
1719.26,6383.25
1724.11,6353.35
1728.95,6486.2
1733.79,6417.0
1738.62,6348.55
1743.46,6357.2
1748.28,6507.45
1753.11,6447.9
1757.93,6432.5
1762.75,6549.0
1767.57,6497.85
1772.39,6583.3
1777.2,6420.6
1782.01,6642.3
1786.81,6538.4
1791.62,6534.6
1796.41,6495.65
1801.21,6581.4
1806.01,6491.4
1810.8,6450.6
1815.59,6506.65
1820.37,6620.2
1825.15,6400.75
1829.93,6410.9
1834.71,6481.6
1839.48,6483.3
1844.25,6544.95
1849.02,6514.1
1853.79,6440.1
1858.55,6491.2
1863.31,6605.65
1868.06,6523.9
1872.82,6653.2
1877.57,6435.7
1882.31,6594.3
1887.06,6618.35
1891.8,6549.9
1896.54,6496.2
1901.28,6762.0
1906.01,6587.15
1910.74,6598.7
1915.47,6659.45
1920.19,6617.7
1924.91,6598.9
1929.63,6621.05
1934.35,6591.15
1939.06,6654.35
1943.77,6443.55
1948.48,6574.8
1953.19,6658.05
1957.89,6601.1
1962.59,6588.3
1967.28,6466.9
1971.98,6631.4
1976.67,6596.75
1981.35,6559.8
1986.04,6726.35
1990.72,6666.0
1995.4,6711.1
2000.08,6683.05
2004.75,6707.3
2009.42,6872.15
2014.09,6622.35
2018.75,6657.3
2023.42,6905.25
2028.08,6668.9
2032.73,6747.2
2037.39,6656.7
2042.04,6845.4
2046.69,6760.6
2051.33,6730.1
2055.97,6696.25
2060.61,6707.55
2065.25,6574.85
2069.88,6812.6
2074.52,6796.2
2079.15,6750.8
2083.77,6739.9
2088.39,6707.4
2093.01,6795.45
2097.63,6735.2
2102.25,6737.3
2106.86,6774.9
2111.47,6881.35
2116.08,6795.95
2120.68,6641.75
2125.28,6735.1
2129.88,6809.85
2134.47,6848.05
2139.07,6958.45
2143.66,6862.4
2148.24,6765.75
2152.83,6797.75
2157.41,6772.35
2161.99,6776.05
2166.57,6792.0
2171.14,6754.7
2175.71,6768.55
2180.28,6959.7
2184.84,6790.95
2189.41,6865.45
2193.97,6908.6
2198.52,6890.4
2203.08,6899.75
2207.63,6639.6
2212.18,6743.3
2216.73,6755.7
2221.27,6878.9
2225.81,6786.05
2230.35,6660.55
2234.89,6822.35
2239.42,6987.65
2243.95,6718.95
2248.48,6769.3
2253.0,6994.6
2257.52,6719.55
2262.04,6827.05
2266.56,6829.65
2271.07,6733.75
2275.58,6759.0
2280.09,6979.0
2284.6,6770.3
2289.1,6732.15
2293.6,6801.75
2298.1,6896.05
2302.6,6861.15
2307.09,6611.45
2311.58,6862.35
2316.07,6860.05
2320.55,6947.05
2325.03,6734.7
2329.51,6878.25
2333.99,6899.5
2338.46,6734.5
2342.93,6895.4
2347.4,6925.15
2351.87,6783.3
2356.33,6646.4
2360.79,6886.6
2365.25,6769.7
2369.71,6731.55
2374.16,6845.3
2378.61,6893.25
2383.06,6991.65
2387.5,6753.8
2391.94,6711.65
2396.38,6782.2
2400.82,7034.5
2405.26,6822.25
2409.69,6754.8
2414.12,7028.65
2418.54,6663.5
2422.97,6835.2
2427.39,6906.75
2431.81,6955.3
2436.22,6749.6
2440.64,6921.35
2445.05,6937.3
2449.46,6960.75
2453.86,6685.35
2458.27,6671.75
2462.67,6768.5
2467.06,6806.05
2471.46,6857.25
2475.85,6935.8
2480.24,6723.05
2484.63,6733.35
2489.02,6766.9
2493.4,6913.8
2497.78,6928.8
2502.16,6684.1
2506.53,6828.25
2510.9,6840.15
2515.27,6781.05
2519.64,7015.85
2524.0,6834.2
2528.37,6779.8
2532.73,6831.6
2537.08,6818.3
2541.44,6718.8
2545.79,6726.8
2550.14,6994.25
2554.48,6953.1
2558.83,6639.2
2563.17,6841.15
2567.51,6912.75
2571.85,6871.3
2576.18,6803.45
2580.51,6666.15
2584.84,6825.95
2589.17,6721.9
2593.49,6791.05
2597.81,6877.0
2602.13,6952.45
2606.45,6831.35
2610.76,6695.85
2615.07,6920.35
2619.38,6834.5
2623.69,6836.5
2627.99,6723.15
2632.29,6822.65
2636.59,6802.9
2640.89,7054.6
2645.18,6934.0
2649.47,6874.35
2653.76,6808.85
2658.05,6933.25
2662.33,6823.75
2666.61,6762.05
2670.89,6845.25
2675.17,6912.35
2679.44,6860.4
2683.71,6818.9
2687.98,6853.5
2692.25,6701.5
2696.51,6764.3
2700.77,6822.6
2705.03,6766.2
2709.29,6857.4
2713.54,6730.8
2717.79,6921.0
2722.04,6851.9
2726.29,6706.3
2730.53,6820.9
2734.77,6758.4
2739.01,6710.75
2743.25,6815.05
2747.48,6774.8
2751.71,6977.9
2755.94,6759.95
2760.17,6860.8
2764.39,6785.3
2768.61,6697.35
2772.83,6788.9
2777.05,6700.8
2781.27,6819.1
2785.48,6673.35
2789.69,6928.9
2793.89,6881.4
2798.1,6701.2
2802.3,6843.85
2806.5,6700.65
2810.7,6593.4
2814.89,6801.4
2819.09,6899.6
2823.28,6779.95
2827.46,6755.55
2831.65,6713.25
2835.83,6823.95
2840.01,6924.9
2844.19,6985.95
2848.37,6800.85
2852.54,6835.45
2856.71,7113.3
2860.88,6978.15
2865.05,6816.65
2869.21,6773.35
2873.37,7031.45
2877.53,7020.5
2881.69,6894.35
2885.84,6894.4
2889.99,6899.6
2894.14,6952.6
2898.29,6982.4
2902.43,6739.45
2906.58,6842.7
2910.72,6950.55
2914.85,6939.75
2918.99,6748.25
2923.12,6657.25
2927.25,6931.5
2931.38,6786.05
2935.5,6827.5
2939.63,6599.7
2943.75,6675.55
2947.87,6573.1
2951.98,6753.45
2956.1,6700.5
2960.21,6669.95
2964.32,6613.0
2968.42,6572.85
2972.53,6672.65
2976.63,6809.5
2980.73,6696.1
2984.83,6618.2
2988.92,6619.2
2993.01,6672.9
2997.1,6726.8
3001.19,6531.0
3005.28,6612.25
3009.36,6750.65
3013.44,6742.8
3017.52,6568.5
3021.6,6574.0
3025.67,6608.4
3029.74,6563.65
3033.81,6470.85
3037.88,6606.5
3041.94,6735.7
3046.01,6621.55
3050.07,6616.65
3054.12,6340.5
3058.18,6491.45
3062.23,6577.55
3066.28,6490.95
3070.33,6481.35
3074.38,6443.25
3078.42,6487.9
3082.46,6309.55
3086.5,6505.15
3090.54,6595.15
3094.57,6553.9
3098.6,6479.85
3102.63,6400.9
3106.66,6627.25
3110.69,6470.4
3114.71,6517.95
3118.73,6398.1
3122.75,6498.25
3126.77,6382.3
3130.78,6424.65
3134.79,6469.6
3138.8,6425.75
3142.81,6320.2
3146.81,6354.3
3150.82,6475.95
3154.82,6411.55
3158.81,6370.05
3162.81,6462.35
3166.8,6391.55
3170.79,6398.8
3174.78,6422.65
3178.77,6290.75
3182.75,6242.95
3186.74,6292.25
3190.72,6221.55
3194.69,6153.2
3198.67,6441.4
3202.64,6179.45
3206.61,6236.75
3210.58,6396.95
3214.55,6088.25
3218.51,6209.0
3222.47,6187.65
3226.43,6408.9
3230.39,6233.2
3234.35,6229.95
3238.3,6095.75
3242.25,6267.1
3246.2,6063.15
3250.15,6094.4
3254.09,6229.4
3258.03,6231.7
3261.97,6242.55
3265.91,6247.05
3269.84,6165.2
3273.78,5954.15
3277.71,6053.7
3281.64,6188.8
3285.56,6112.25
3289.49,6182.6
3293.41,5960.8
3297.33,6243.75
3301.25,6087.75
3305.16,6183.35
3309.07,6016.1
3312.99,6039.3
3316.89,5959.6
3320.8,6038.85
3324.7,5852.25
3328.61,5897.1
3332.51,6234.2
3336.4,5954.0
3340.3,5827.0
3344.19,5950.5
3348.08,5948.6
3351.97,5953.35
3355.86,5811.2
3359.74,5891.25
3363.63,5919.7
3367.51,5990.3
3371.39,5730.05
3375.26,5975.95
3379.13,5984.55
3383.01,5699.45
3386.88,5788.05
3390.74,5772.15
3394.61,5866.15
3398.47,5898.65
3402.33,5655.2
3406.19,5749.45
3410.05,5784.3
3413.9,5808.9
3417.75,5774.4
3421.6,5747.8
3425.45,5776.05
3429.3,5664.4
3433.14,5779.55
3436.98,5628.05
3440.82,5654.05
3444.66,5829.65
3448.49,5658.75
3452.32,5712.05
3456.15,5684.5
3459.98,5549.3
3463.81,5641.35
3467.63,5668.95
3471.46,5518.65
3475.28,5672.15
3479.09,5593.0
3482.91,5456.35
3486.72,5688.25
3490.53,5554.2
3494.34,5521.85
3498.15,5497.35
3501.96,5419.0
3505.76,5500.35
3509.56,5453.4
3513.36,5515.35
3517.15,5379.25
3520.95,5337.45
3524.74,5509.8
3528.53,5333.5
3532.32,5479.6
3536.11,5400.15
3539.89,5346.65
3543.67,5315.2
3547.45,5461.9
3551.23,5129.95
3555.0,5389.55
3558.78,5201.75
3562.55,5251.55
3566.32,5331.35
3570.09,5368.35
3573.85,5311.55
3577.61,5192.75
3581.37,5349.55
3585.13,5232.8
3588.89,5222.75
3592.64,5009.9
3596.4,5271.2
3600.15,5274.95
3603.9,5132.3
3607.64,5104.05
3611.39,5161.7
3615.13,5207.4
3618.87,5158.9
3622.61,5035.55
3626.34,5180.15
3630.08,4984.7
3633.81,5046.75
3637.54,5255.65
3641.27,4967.1
3644.99,4910.55
3648.72,5040.05
3652.44,4977.35
3656.16,5150.05
3659.87,4803.0
3663.59,4956.1
3665.45,5052.6