File: spectra/VLFR_08-PLA_bio_Raman_23b24765.csv
nm,Intensity
528.637,1836.1
528.806,1837.8
528.974,1837.2
529.143,1837.3
529.311,1835.0
529.48,1835.8
529.648,1836.8
529.816,1836.8
529.985,1838.5
530.153,1838.7
530.322,1838.1
530.49,1839.7
530.659,1838.5
530.827,1838.2
530.995,1839.7
531.164,1839.8
531.332,1844.2
531.5,1851.1
531.669,1932.9
531.837,3095.8
532.006,6153.2
532.174,5196.4
532.342,2044.5
532.511,1842.6
532.679,1841.9
532.847,1840.0
533.016,1840.6
533.184,1842.3
533.352,1849.3
533.521,1931.7
533.689,2328.9
533.857,3068.0
534.025,3442.8
534.194,3406.9
534.362,3231.7
534.53,3170.2
534.699,3129.2
534.867,3009.8
535.035,2975.7
535.203,2862.5
535.372,2859.7
535.54,2783.3
535.708,2723.9
535.876,2655.0
536.045,2644.7
536.213,2660.7
536.381,2666.5
536.549,2733.8
536.717,2699.3
536.886,2645.6
537.054,2612.3
537.222,2620.5
537.39,2641.2
537.558,2629.0
537.726,2624.7
537.895,2610.2
538.063,2567.5
538.231,2525.0
538.399,2494.9
538.567,2483.9
538.735,2456.7
538.903,2454.8
539.072,2492.9
539.24,2483.3
539.408,2452.7
539.576,2430.4
539.744,2399.0
539.912,2406.3
540.08,2424.9
540.248,2485.5
540.416,2528.1
540.584,2549.5
540.752,2600.9
540.92,2581.8
541.088,2588.9
541.256,2557.9
541.425,2552.4
541.593,2526.7
541.761,2490.8
541.929,2449.9
542.097,2460.8
542.265,2469.4
542.433,2447.0
542.601,2486.3
542.769,2475.7
542.937,2523.1
543.104,2611.8
543.272,2672.6
543.44,2742.5
543.608,2776.4
543.776,2772.3
543.944,2749.8
544.112,2714.4
544.28,2610.9
544.448,2522.0
544.616,2465.5
544.784,2471.2
544.952,2452.9
545.12,2439.0
545.288,2422.9
545.455,2411.7
545.623,2418.2
545.791,2420.9
545.959,2417.6
546.127,2409.9
546.295,2411.2
546.463,2429.4
546.63,2418.7
546.798,2445.7
546.966,2469.8
547.134,2459.8
547.302,2439.2
547.47,2450.9
547.637,2449.5
547.805,2452.0
547.973,2454.0
548.141,2453.7
548.308,2470.2
548.476,2482.7
548.644,2476.8
548.812,2482.4
548.98,2469.9
549.147,2487.9
549.315,2519.0
549.483,2470.5
549.65,2490.8
549.818,2479.0
549.986,2467.3
550.154,2493.1
550.321,2484.2
550.489,2514.7
550.657,2492.6
550.824,2508.5
550.992,2540.3
551.16,2554.3
551.327,2542.9
551.495,2566.1
551.663,2565.2
551.83,2589.0
551.998,2573.6
552.166,2602.7
552.333,2619.1
552.501,2583.1
552.668,2571.4
552.836,2621.5
553.004,2595.7
553.171,2562.9
553.339,2558.6
553.506,2562.2
553.674,2580.1
553.842,2687.5
554.009,2678.1
554.177,2639.1
554.344,2635.0
554.512,2607.7
554.679,2584.0
554.847,2580.5
555.014,2560.7
555.182,2550.5
555.349,2537.6
555.517,2487.8
555.684,2513.1
555.852,2527.3
556.019,2489.0
556.187,2507.4
556.354,2526.3
556.522,2509.9
556.689,2545.3
556.857,2551.5
557.024,2573.9
557.192,2636.8
557.359,2722.2
557.526,2920.2
557.694,3273.6
557.861,3749.1
558.029,4115.0
558.196,3926.9
558.363,3278.2
558.531,2919.4
558.698,2799.1
558.866,2749.3
559.033,2723.6
559.2,2669.1
559.368,2688.5
559.535,2669.7
559.702,2664.2
559.87,2630.6
560.037,2645.0
560.204,2601.8
560.372,2612.9
560.539,2596.5
560.706,2581.7
560.873,2593.4
561.041,2579.3
561.208,2592.9
561.375,2546.6
561.543,2577.3
561.71,2588.7
561.877,2573.1
562.044,2566.6
562.211,2610.6
562.379,2594.7
562.546,2657.1
562.713,2670.6
562.88,2749.6
563.048,2823.5
563.215,2945.5
563.382,3051.0
563.549,3011.8
563.716,2933.0
563.883,2821.4
564.051,2739.6
564.218,2682.3
564.385,2691.1
564.552,2760.6
564.719,2856.8
564.886,2929.8
565.053,2940.9
565.221,2941.1
565.388,2924.6
565.555,2906.0
565.722,2981.4
565.889,3127.6
566.056,3244.2
566.223,3157.6
566.39,3023.9
566.557,2865.5
566.724,2787.5
566.891,2693.0
567.058,2657.3
567.225,2687.0
567.392,2648.6
567.559,2697.2
567.726,2759.9
567.893,2780.2
568.06,2744.6
568.227,2745.7
568.394,2702.5
568.561,2727.1
568.728,2701.5
568.895,2751.2
569.062,2759.7
569.229,2700.6
569.396,2718.4
569.563,2704.2
569.73,2691.3
569.897,2690.1
570.064,2679.2
570.231,2701.8
570.398,2734.7
570.564,2725.1
570.731,2703.0
570.898,2698.6
571.065,2760.7
571.232,2802.1
571.399,2906.1
571.566,3019.7
571.732,3003.2
571.899,2964.1
572.066,2922.0
572.233,2886.5
572.4,2860.0
572.566,2857.8
572.733,2868.8
572.9,2875.9
573.067,2848.1
573.234,2877.0
573.4,2911.4
573.567,2899.9
573.734,2876.4
573.901,2864.6
574.067,2867.1
574.234,2869.6
574.401,2926.2
574.568,2948.9
574.734,2902.5
574.901,2797.0
575.068,2728.0
575.234,2738.9
575.401,2716.5
575.568,2734.3
575.734,2733.0
575.901,2801.5
576.068,2828.7
576.234,2990.9
576.401,3256.3
576.568,3464.2
576.734,3577.1
576.901,3516.0
577.067,3311.9
577.234,3056.6
577.401,2902.3
577.567,2803.6
577.734,2756.0
577.9,2758.5
578.067,2722.5
578.233,2730.9
578.4,2743.3
578.567,2726.0
578.733,2734.4
578.9,2704.2
579.066,2704.9
579.233,2723.1
579.399,2725.1
579.566,2707.2
579.732,2728.0
579.899,2707.2
580.065,2705.2
580.231,2740.1
580.398,2747.0
580.564,2730.1
580.731,2726.6
580.897,2718.6
581.064,2710.0
581.23,2714.0
581.397,2723.9
581.563,2713.3
581.729,2716.9
581.896,2684.5
582.062,2718.0
582.228,2717.8
582.395,2710.7
582.561,2736.1
582.728,2729.4
582.894,2750.6
583.06,2726.8
583.227,2713.8
583.393,2707.3
583.559,2723.3
583.726,2744.9
583.892,2739.5
584.058,2762.9
584.224,2737.2
584.391,2723.9
584.557,2731.7
584.723,2716.9
584.889,2730.0
585.056,2728.3
585.222,2716.4
585.388,2718.8
585.554,2731.0
585.721,2772.1
585.887,2739.0
586.053,2767.4
586.219,2783.0
586.385,2865.9
586.552,3021.1
586.718,3138.4
586.884,3270.3
587.05,3296.9
587.216,3379.0
587.382,3503.0
587.549,3462.1
587.715,3342.1
587.881,3112.8
588.047,2968.0
588.213,2855.3
588.379,2811.5
588.545,2760.4
588.711,2721.5
588.877,2731.4
589.043,2760.0
589.209,2737.7
589.375,2721.5
589.542,2705.2
589.708,2689.1
589.874,2702.1
590.04,2714.8
590.206,2692.5
590.372,2739.7
590.538,2704.7
590.704,2683.2
590.87,2701.7
591.036,2725.7
591.201,2717.8
591.367,2723.2
591.533,2715.2
591.699,2701.3
591.865,2704.4
592.031,2712.2
592.197,2727.5
592.363,2709.2
592.529,2717.1
592.695,2706.8
592.861,2706.7
593.027,2699.8
593.192,2720.8
593.358,2691.3
593.524,2674.8
593.69,2713.4
593.856,2690.1
594.022,2715.1
594.187,2705.7
594.353,2691.9
594.519,2693.8
594.685,2696.9
594.851,2693.2
595.016,2722.6
595.182,2726.9
595.348,2713.4
595.514,2683.6
595.679,2736.6
595.845,2700.4
596.011,2705.5
596.177,2707.0
596.342,2715.1
596.508,2723.6
596.674,2721.8
596.84,2698.1
597.005,2721.4
597.171,2685.2
597.337,2700.8
597.502,2679.9
597.668,2684.6
597.833,2725.1
597.999,2701.2
598.165,2725.3
598.33,2702.2
598.496,2701.8
598.662,2719.6
598.827,2693.3
598.993,2737.3
599.158,2698.3
599.324,2705.0
599.489,2730.8
599.655,2712.6
599.821,2677.9
599.986,2699.0
600.152,2709.2
600.317,2734.4
600.483,2690.2
600.648,2681.0
600.814,2708.6
600.979,2704.4
601.145,2683.1
601.31,2708.1
601.476,2711.7
601.641,2684.6
601.807,2701.8
601.972,2718.8
602.137,2723.2
602.303,2736.1
602.468,2709.8
602.634,2710.1
602.799,2698.3
602.964,2732.2
603.13,2710.2
603.295,2691.7
603.461,2700.9
603.626,2698.2
603.791,2736.9
603.957,2711.2
604.122,2688.0
604.287,2690.9
604.453,2693.5
604.618,2675.8
604.783,2707.0
604.949,2686.7
605.114,2700.5
605.279,2687.7
605.444,2675.2
605.61,2726.1
605.775,2686.7
605.94,2680.6
606.105,2692.9
606.271,2696.3
606.436,2696.4
606.601,2680.7
606.766,2717.2
606.931,2703.7
607.097,2697.7
607.262,2675.6
607.427,2696.0
607.592,2667.8
607.757,2724.2
607.922,2706.1
608.088,2709.0
608.253,2674.3
608.418,2677.7
608.583,2667.5
608.748,2691.9
608.913,2697.2
609.078,2667.9
609.243,2710.2
609.408,2702.8
609.573,2672.2
609.738,2684.2
609.903,2702.9
610.068,2684.7
610.233,2683.2
610.399,2704.8
610.564,2687.6
610.729,2691.9
610.894,2684.7
611.058,2673.8
611.223,2706.5
611.388,2659.4
611.553,2647.5
611.718,2691.7
611.883,2689.0
612.048,2673.6
612.213,2686.6
612.378,2679.7
612.543,2667.1
612.708,2666.3
612.873,2691.8
613.038,2686.7
613.202,2696.5
613.367,2667.1
613.532,2691.2
613.697,2665.7
613.862,2712.4
614.027,2673.3
614.192,2679.7
614.356,2673.9
614.521,2667.8
614.686,2665.7
614.851,2682.3
615.016,2711.9
615.18,2673.5
615.345,2706.5
615.51,2668.0
615.675,2691.3
615.839,2668.0
616.004,2678.7
616.169,2683.5
616.333,2677.9
616.498,2678.7
616.663,2699.9
616.827,2671.8
616.992,2650.5
617.157,2687.1
617.321,2688.0
617.486,2678.9
617.651,2680.4
617.815,2664.4
617.98,2678.1
618.145,2648.6
618.309,2667.4
618.474,2669.9
618.638,2660.8
618.803,2662.9
618.968,2671.7
619.132,2662.8
619.297,2679.2
619.461,2666.4
619.626,2634.8
619.79,2665.5
619.955,2678.1
620.119,2663.8
620.284,2669.9
620.448,2682.0
620.613,2624.9
620.777,2662.3
620.942,2648.2
621.106,2646.3
621.271,2664.3
621.435,2675.3
621.599,2642.1
621.764,2665.4
621.928,2655.1
622.093,2675.8
622.257,2682.4
622.421,2719.0
622.586,2763.6
622.75,2775.8
622.915,2787.4
623.079,2795.4
623.243,2784.0
623.408,2747.6
623.572,2745.6
623.736,2723.3
623.9,2743.3
624.065,2704.4
624.229,2697.4
624.393,2680.5
624.558,2675.0
624.722,2661.8
624.886,2659.5
625.05,2662.1
625.215,2630.7
625.379,2639.5
625.543,2637.7
625.707,2633.4
625.871,2628.4
626.036,2632.8
626.2,2651.4
626.364,2667.5
626.528,2659.0
626.692,2640.8
626.856,2644.8
627.02,2653.0
627.185,2675.9
627.349,2659.9
627.513,2682.3
627.677,2680.7
627.841,2773.4
628.005,2939.3
628.169,3172.8
628.333,3360.4
628.497,3435.6
628.661,3409.3
628.825,3308.5
628.989,3240.5
629.153,3215.3
629.317,3270.6
629.481,3288.8
629.645,3287.7
629.809,3299.8
629.973,3300.5
630.137,3499.6
630.301,3651.7
630.465,4032.5
630.629,4782.8
630.793,6131.8
630.957,7184.5
631.121,7385.0
631.285,6659.9
631.449,5628.3
631.612,4903.3
631.776,4302.0
631.94,4024.2
632.104,3917.1
632.268,3767.8
632.432,3722.0
632.596,3839.4
632.759,4097.5
632.923,4478.2
633.087,4676.5
633.251,4755.9
633.414,4669.0
633.578,4407.2
633.742,4053.2
633.906,3795.2
634.069,3555.2
634.233,3238.1
634.397,2996.1
634.561,2934.0
634.724,2857.1
634.888,2733.9
635.052,2691.9
635.215,2655.6
635.379,2648.8
635.543,2656.1
635.706,2643.3
635.87,2578.3
636.034,2581.8
636.197,2603.9
636.361,2574.1
636.524,2574.0
636.688,2590.8
636.852,2565.0
637.015,2518.9
637.179,2542.9
637.342,2562.2
637.506,2549.3
637.669,2559.2
637.833,2523.8
637.996,2551.8
638.16,2536.7
638.323,2515.2
638.487,2526.5
638.65,2501.2
638.814,2527.9
638.977,2544.6
639.141,2518.5
639.304,2490.7
639.468,2524.9
639.631,2499.1
639.794,2502.2
639.958,2516.8
640.121,2538.9
640.285,2485.7
640.448,2459.9
640.611,2497.8
640.775,2501.3
640.938,2519.0
641.101,2518.7
641.265,2509.7
641.428,2490.8
641.591,2520.3
641.755,2490.0
641.918,2477.4
642.081,2523.5
642.244,2510.2
642.408,2500.1
642.571,2505.1
642.734,2463.9
642.897,2461.0
643.061,2503.1
643.224,2472.8
643.387,2454.8
643.55,2471.3
643.713,2481.1
643.876,2456.9
644.04,2469.8
644.203,2446.4
644.366,2429.6
644.529,2436.2
644.692,2445.9
644.855,2423.7
645.018,2448.1
645.181,2439.6
645.345,2433.9
645.508,2402.2
645.671,2461.1
645.834,2426.3
645.997,2400.2
646.16,2400.2
646.323,2425.3
646.486,2412.9
646.649,2411.2
646.812,2412.4
646.975,2424.9
647.138,2386.4
647.301,2415.2
647.464,2405.8
647.627,2413.2
647.79,2399.0
647.953,2377.0
648.115,2388.3
648.278,2377.2
648.441,2402.8
648.604,2371.5
648.767,2384.8
648.93,2389.2
649.093,2384.2
649.256,2359.1
649.418,2348.4
649.581,2385.0
649.744,2372.9
649.907,2361.5
650.07,2365.9
650.233,2357.3
650.395,2343.3
650.558,2365.8
650.721,2348.5
650.884,2358.6
651.046,2347.1
651.209,2355.5
651.372,2344.6
651.534,2347.9
651.697,2361.7
651.86,2351.7
652.023,2363.0
652.185,2338.8
652.348,2318.6
652.511,2325.2
652.673,2332.0
652.836,2346.9
652.998,2318.6
653.161,2332.2
653.324,2325.1
653.486,2329.8
653.649,2327.8
653.811,2326.9
653.974,2335.2
654.137,2303.1
654.299,2304.5
654.462,2308.5
654.624,2336.5
654.787,2301.6
654.949,2291.2
655.112,2298.6
655.274,2295.5
655.437,2292.0
655.599,2303.0
655.761,2300.7
655.924,2279.6
656.086,2280.0
656.249,2289.2
656.411,2286.9
656.574,2298.5
656.736,2285.9
656.898,2298.7
657.061,2295.8
657.223,2273.6
657.385,2277.8
657.548,2265.9
657.71,2299.3
657.872,2275.6
658.035,2261.3
658.197,2250.8
658.359,2279.2
658.522,2240.5
658.684,2243.1
658.846,2257.7
659.008,2234.7
659.171,2258.3
659.333,2232.7
659.495,2239.4
659.657,2227.9
659.82,2231.9
659.982,2227.1
660.144,2248.3
660.306,2247.8
660.468,2241.7
660.63,2212.7
660.793,2238.6
660.955,2235.7
661.036,2219.0