File: spectra/VLFR_08-PLA_bio_Raman_d1001c75.csv
nm,Intensity
528.65,1848.2
528.819,1848.85
528.987,1849.45
529.155,1849.1
529.324,1849.75
529.492,1849.5
529.66,1849.2
529.829,1850.15
529.997,1848.9
530.165,1850.7
530.334,1849.65
530.502,1850.9
530.67,1848.85
530.839,1849.2
531.007,1851.25
531.175,1850.55
531.344,1851.5
531.512,1855.75
531.68,1878.6
531.848,2250.6
532.017,3384.1
532.185,3070.3
532.353,1971.15
532.521,1852.75
532.69,1850.8
532.858,1851.85
533.026,1850.35
533.194,1852.35
533.363,1855.1
533.531,1877.5
533.699,2026.7
533.867,2272.05
534.036,2402.1
534.204,2395.9
534.372,2359.15
534.54,2338.2
534.708,2325.7
534.877,2301.25
535.045,2303.75
535.213,2308.45
535.381,2297.7
535.549,2276.05
535.717,2252.5
535.886,2227.7
536.054,2227.1
536.222,2225.25
536.39,2243.2
536.558,2259.15
536.726,2252.3
536.894,2214.15
537.062,2215.4
537.231,2212.9
537.399,2203.55
537.567,2228.1
537.735,2242.75
537.903,2245.95
538.071,2220.05
538.239,2221.05
538.407,2205.35
538.575,2204.7
538.743,2197.85
538.911,2230.1
539.079,2210.7
539.247,2204.9
539.415,2203.05
539.583,2179.25
539.751,2164.4
539.919,2159.7
540.087,2173.8
540.255,2189.95
540.423,2211.8
540.591,2228.3
540.759,2233.5
540.927,2234.55
541.095,2236.0
541.263,2232.25
541.431,2200.5
541.599,2206.75
541.767,2189.5
541.935,2192.5
542.103,2206.35
542.271,2188.65
542.439,2192.5
542.607,2197.7
542.775,2206.35
542.943,2220.55
543.111,2242.1
543.279,2285.2
543.446,2302.0
543.614,2345.55
543.782,2337.85
543.95,2337.85
544.118,2300.2
544.286,2256.9
544.454,2219.3
544.622,2211.95
544.789,2206.25
544.957,2186.45
545.125,2200.85
545.293,2195.6
545.461,2184.55
545.629,2198.85
545.796,2198.85
545.964,2192.9
546.132,2193.65
546.3,2189.6
546.468,2207.4
546.635,2205.15
546.803,2212.35
546.971,2215.55
547.139,2221.3
547.306,2213.0
547.474,2210.4
547.642,2222.0
547.81,2219.45
547.977,2209.35
548.145,2223.7
548.313,2219.05
548.481,2220.45
548.648,2221.3
548.816,2239.2
548.984,2238.55
549.151,2235.25
549.319,2230.1
549.487,2234.6
549.655,2237.45
549.822,2229.35
549.99,2232.35
550.158,2237.7
550.325,2232.5
550.493,2239.95
550.66,2252.45
550.828,2267.7
550.996,2266.1
551.163,2265.6
551.331,2285.9
551.499,2269.65
551.666,2283.4
551.834,2290.7
552.001,2292.25
552.169,2287.2
552.337,2287.15
552.504,2292.15
552.672,2305.1
552.839,2309.5
553.007,2295.9
553.174,2272.65
553.342,2281.2
553.509,2278.65
553.677,2307.5
553.844,2304.5
554.012,2309.85
554.179,2301.0
554.347,2298.75
554.514,2281.5
554.682,2278.55
554.849,2287.0
555.017,2277.5
555.184,2271.25
555.352,2255.1
555.519,2262.45
555.687,2253.65
555.854,2255.55
556.022,2264.9
556.189,2265.0
556.357,2265.55
556.524,2262.9
556.691,2267.55
556.859,2288.35
557.026,2271.2
557.194,2292.25
557.361,2315.55
557.528,2378.0
557.696,2470.5
557.863,2666.1
558.031,2856.3
558.198,2782.7
558.365,2514.75
558.533,2378.25
558.7,2354.05
558.867,2337.2
559.035,2324.65
559.202,2330.2
559.369,2335.45
559.537,2331.7
559.704,2338.6
559.871,2325.35
560.038,2306.95
560.206,2304.25
560.373,2304.45
560.54,2303.35
560.708,2297.85
560.875,2298.0
561.042,2301.15
561.209,2300.2
561.377,2299.55
561.544,2292.25
561.711,2299.4
561.878,2310.45
562.045,2298.45
562.213,2302.55
562.38,2306.2
562.547,2324.55
562.714,2329.9
562.881,2359.45
563.049,2402.05
563.216,2428.45
563.383,2467.75
563.55,2463.95
563.717,2415.25
563.884,2385.0
564.052,2352.6
564.219,2356.3
564.386,2359.2
564.553,2375.0
564.72,2401.8
564.887,2438.2
565.054,2466.95
565.221,2412.5
565.388,2426.5
565.556,2419.8
565.723,2445.5
565.89,2489.0
566.057,2529.1
566.224,2536.7
566.391,2485.15
566.558,2430.45
566.725,2390.15
566.892,2356.35
567.059,2345.2
567.226,2343.3
567.393,2345.75
567.56,2369.7
567.727,2399.5
567.894,2397.25
568.061,2382.8
568.228,2372.7
568.395,2385.75
568.562,2376.8
568.729,2377.85
568.896,2388.6
569.063,2389.7
569.23,2394.7
569.396,2382.9
569.563,2381.55
569.73,2368.15
569.897,2372.3
570.064,2370.65
570.231,2383.9
570.398,2380.9
570.565,2400.35
570.732,2392.6
570.898,2393.95
571.065,2408.2
571.232,2452.75
571.399,2491.2
571.566,2527.15
571.733,2533.7
571.9,2470.55
572.066,2455.2
572.233,2466.65
572.4,2442.6
572.567,2426.4
572.734,2440.95
572.9,2429.4
573.067,2445.1
573.234,2444.55
573.401,2448.0
573.567,2454.25
573.734,2457.95
573.901,2459.35
574.068,2424.3
574.234,2442.25
574.401,2477.6
574.568,2465.25
574.734,2439.4
574.901,2432.2
575.068,2404.65
575.235,2394.9
575.401,2392.9
575.568,2390.85
575.735,2400.2
575.901,2414.05
576.068,2429.45
576.235,2469.6
576.401,2555.45
576.568,2647.2
576.734,2691.65
576.901,2635.75
577.068,2580.15
577.234,2491.1
577.401,2423.1
577.567,2416.55
577.734,2407.4
577.901,2379.55
578.067,2391.7
578.234,2371.5
578.4,2370.85
578.567,2379.95
578.733,2377.65
578.9,2385.4
579.066,2374.7
579.233,2370.5
579.399,2362.45
579.566,2380.2
579.732,2376.75
579.899,2383.35
580.065,2375.1
580.232,2381.75
580.398,2363.75
580.565,2363.75
580.731,2380.4
580.898,2370.3
581.064,2375.25
581.231,2369.0
581.397,2375.7
581.563,2379.5
581.73,2382.2
581.896,2374.55
582.063,2380.85
582.229,2376.15
582.395,2382.05
582.562,2364.35
582.728,2382.7
582.895,2373.6
583.061,2366.2
583.227,2379.2
583.394,2378.15
583.56,2368.45
583.726,2375.5
583.893,2378.4
584.059,2380.4
584.225,2367.6
584.391,2367.95
584.558,2376.95
584.724,2379.55
584.89,2364.5
585.057,2366.95
585.223,2384.9
585.389,2367.6
585.555,2350.5
585.722,2361.1
585.888,2372.65
586.054,2375.9
586.22,2374.65
586.386,2389.85
586.553,2440.45
586.719,2487.5
586.885,2503.3
587.051,2573.15
587.217,2590.7
587.384,2633.35
587.55,2626.45
587.716,2592.65
587.882,2493.25
588.048,2422.15
588.214,2406.55
588.38,2398.9
588.546,2389.6
588.713,2372.7
588.879,2360.85
589.045,2368.1
589.211,2361.05
589.377,2359.8
589.543,2338.4
589.709,2361.4
589.875,2363.4
590.041,2357.95
590.207,2362.2
590.373,2334.4
590.539,2361.9
590.705,2351.0
590.871,2346.75
591.037,2349.8
591.203,2362.5
591.369,2345.8
591.535,2347.0
591.701,2355.35
591.867,2361.05
592.033,2370.4
592.199,2363.9
592.365,2368.7
592.531,2373.1
592.697,2358.3
592.863,2362.55
593.029,2359.1
593.195,2346.1
593.361,2350.7
593.526,2344.25
593.692,2363.0
593.858,2355.4
594.024,2333.75
594.19,2339.3
594.356,2347.55
594.522,2343.2
594.687,2366.85
594.853,2361.0
595.019,2353.35
595.185,2362.65
595.351,2352.0
595.516,2356.8
595.682,2357.7
595.848,2358.55
596.014,2354.2
596.18,2363.75
596.345,2361.4
596.511,2361.9
596.677,2355.05
596.843,2358.4
597.008,2353.35
597.174,2346.0
597.34,2346.8
597.505,2352.75
597.671,2355.95
597.837,2370.05
598.002,2363.5
598.168,2355.7
598.334,2359.15
598.499,2357.3
598.665,2365.7
598.831,2356.3
598.996,2358.6
599.162,2358.35
599.328,2360.8
599.493,2376.2
599.659,2361.1
599.824,2358.4
599.99,2356.55
600.156,2368.75
600.321,2372.2
600.487,2369.45
600.652,2360.3
600.818,2355.2
600.983,2355.65
601.149,2363.75
601.314,2363.95
601.48,2363.3
601.645,2367.25
601.811,2357.95
601.976,2363.55
602.142,2358.3
602.307,2356.6
602.473,2370.7
602.638,2350.1
602.804,2363.8
602.969,2357.15
603.135,2351.9
603.3,2371.55
603.466,2360.6
603.631,2379.05
603.796,2338.15
603.962,2352.65
604.127,2357.85
604.293,2370.15
604.458,2362.0
604.623,2346.55
604.789,2353.85
604.954,2355.85
605.119,2360.9
605.285,2361.5
605.45,2357.75
605.615,2347.5
605.781,2365.55
605.946,2356.45
606.111,2367.45
606.277,2356.6
606.442,2343.75
606.607,2339.9
606.772,2344.8
606.938,2356.9
607.103,2360.4
607.268,2359.0
607.433,2348.6
607.599,2365.3
607.764,2354.05
607.929,2351.1
608.094,2360.6
608.259,2360.0
608.425,2356.95
608.59,2355.45
608.755,2360.1
608.92,2335.3
609.085,2349.9
609.25,2350.85
609.415,2358.45
609.581,2364.4
609.746,2361.2
609.911,2364.15
610.076,2341.3
610.241,2349.2
610.406,2350.75
610.571,2357.95
610.736,2356.4
610.901,2349.65
611.066,2354.35
611.231,2347.35
611.396,2342.4
611.561,2367.65
611.727,2343.5
611.892,2349.05
612.057,2356.5
612.222,2339.05
612.386,2355.6
612.551,2343.2
612.716,2338.55
612.881,2349.7
613.046,2345.45
613.211,2351.9
613.376,2334.05
613.541,2341.25
613.706,2332.95
613.871,2359.75
614.036,2344.85
614.201,2346.75
614.366,2351.2
614.531,2349.4
614.695,2346.3
614.86,2332.4
615.025,2345.15
615.19,2355.7
615.355,2337.85
615.52,2345.5
615.684,2334.8
615.849,2344.3
616.014,2355.7
616.179,2343.15
616.344,2344.35
616.508,2337.85
616.673,2336.4
616.838,2335.45
617.003,2344.85
617.168,2313.8
617.332,2350.75
617.497,2328.05
617.662,2334.35
617.826,2350.3
617.991,2333.75
618.156,2340.9
618.32,2330.4
618.485,2332.0
618.65,2330.25
618.814,2321.85
618.979,2321.3
619.144,2336.5
619.308,2346.9
619.473,2331.55
619.638,2325.95
619.802,2327.4
619.967,2338.25
620.131,2319.0
620.296,2327.0
620.461,2333.8
620.625,2324.25
620.79,2320.9
620.954,2322.25
621.119,2319.4
621.283,2335.4
621.448,2323.2
621.612,2344.7
621.777,2321.9
621.941,2323.2
622.106,2318.15
622.27,2358.35
622.435,2347.5
622.599,2353.1
622.764,2367.1
622.928,2381.55
623.093,2366.2
623.257,2363.9
623.422,2367.95
623.586,2368.25
623.75,2347.45
623.915,2341.7
624.079,2333.0
624.244,2346.2
624.408,2335.15
624.572,2323.25
624.737,2324.8
624.901,2319.85
625.065,2323.7
625.23,2318.0
625.394,2302.0
625.558,2311.15
625.723,2305.95
625.887,2315.55
626.051,2308.75
626.215,2323.9
626.38,2309.95
626.544,2302.85
626.708,2293.2
626.872,2315.5
627.037,2316.25
627.201,2313.3
627.365,2321.3
627.529,2310.8
627.693,2325.1
627.858,2360.25
628.022,2413.5
628.186,2507.65
628.35,2598.1
628.514,2656.95
628.678,2643.45
628.843,2583.35
629.007,2544.15
629.171,2545.9
629.335,2556.6
629.499,2559.0
629.663,2551.4
629.827,2550.45
629.991,2586.25
630.155,2628.0
630.319,2679.95
630.483,2823.9
630.647,3143.0
630.812,3761.55
630.976,4253.6
631.14,4377.9
631.304,4070.0
631.468,3564.85
631.632,3271.5
631.796,3048.35
631.959,2876.5
632.123,2802.9
632.287,2705.8
632.451,2699.6
632.615,2715.15
632.779,2804.6
632.943,2933.3
633.107,3024.95
633.271,3091.35
633.435,3095.65
633.599,2981.75
633.763,2861.1
633.926,2766.4
634.09,2636.7
634.254,2511.25
634.418,2443.35
634.582,2376.7
634.746,2352.1
634.909,2324.25
635.073,2329.8
635.237,2308.5
635.401,2279.15
635.564,2274.5
635.728,2275.35
635.892,2258.75
636.056,2262.85
636.219,2259.85
636.383,2264.9
636.547,2252.5
636.711,2269.95
636.874,2247.35
637.038,2252.25
637.202,2250.05
637.365,2228.65
637.529,2246.8
637.693,2240.35
637.856,2254.85
638.02,2232.75
638.184,2249.75
638.347,2231.2
638.511,2231.0
638.674,2245.9
638.838,2230.7
639.002,2229.35
639.165,2237.6
639.329,2232.95
639.492,2231.5
639.656,2222.3
639.819,2225.05
639.983,2217.45
640.146,2236.65
640.31,2220.8
640.473,2211.85
640.637,2208.05
640.8,2223.95
640.964,2203.8
641.127,2211.4
641.291,2225.05
641.454,2216.25
641.618,2217.05
641.781,2220.15
641.944,2215.45
642.108,2207.45
642.271,2224.6
642.435,2209.85
642.598,2213.0
642.761,2208.65
642.925,2218.75
643.088,2209.95
643.251,2189.45
643.415,2195.75
643.578,2195.65
643.741,2189.1
643.905,2190.0
644.068,2207.95
644.231,2195.55
644.394,2184.9
644.558,2185.6
644.721,2186.2
644.884,2182.9
645.047,2189.2
645.211,2188.2
645.374,2184.3
645.537,2188.85
645.7,2179.0
645.863,2174.0
646.027,2162.4
646.19,2188.4
646.353,2174.6
646.516,2165.95
646.679,2167.55
646.842,2189.35
647.005,2170.9
647.169,2152.25
647.332,2182.55
647.495,2170.8
647.658,2162.35
647.821,2164.85
647.984,2170.5
648.147,2174.9
648.31,2152.75
648.473,2169.4
648.636,2153.55
648.799,2154.05
648.962,2155.65
649.125,2152.25
649.288,2135.15
649.451,2153.9
649.614,2153.9
649.777,2155.6
649.94,2136.55
650.103,2144.5
650.266,2143.0
650.429,2150.15
650.592,2147.45
650.755,2142.05
650.918,2135.9
651.08,2148.5
651.243,2158.75
651.406,2142.25
651.569,2142.15
651.732,2144.95
651.895,2123.25
652.058,2143.6
652.22,2137.4
652.383,2134.85
652.546,2127.65
652.709,2135.6
652.872,2125.95
653.034,2136.15
653.197,2126.3
653.36,2122.05
653.523,2134.25
653.685,2113.35
653.848,2106.2
654.011,2121.1
654.173,2121.9
654.336,2124.15
654.499,2122.2
654.662,2112.0
654.824,2117.45
654.987,2122.9
655.149,2119.7
655.312,2105.2
655.475,2112.7
655.637,2119.65
655.8,2116.95
655.963,2112.3
656.125,2117.35
656.288,2102.5
656.45,2102.45
656.613,2103.05
656.775,2111.2
656.938,2104.15
657.1,2096.35
657.263,2107.25
657.425,2098.7
657.588,2107.0
657.75,2087.8
657.913,2111.8
658.075,2103.6
658.238,2090.75
658.4,2080.85
658.563,2112.7
658.725,2084.35
658.888,2093.2
659.05,2088.55
659.212,2093.15
659.375,2084.95
659.537,2091.15
659.7,2088.0
659.862,2085.8
660.024,2086.0
660.187,2083.3
660.349,2085.2
660.511,2088.8
660.674,2087.3
660.836,2072.85
660.998,2072.05
661.079,2075.0