File: spectra/VLFR_01-LDPE_bio_Raman_95e2f300.csv
nm,Intensity
526.495,829.2
526.632,828.8
526.768,828.7
526.905,828.8
527.042,829.1
527.179,828.3
527.315,829.9
527.452,830.3
527.589,828.9
527.725,829.4
527.862,828.3
527.999,829.8
528.136,829.7
528.272,828.4
528.409,828.7
528.546,829.8
528.682,829.4
528.819,827.8
528.955,828.4
529.092,828.4
529.229,829.5
529.365,827.6
529.502,829.1
529.639,829.7
529.775,829.9
529.912,827.9
530.048,829.8
530.185,829.8
530.321,830.0
530.458,827.9
530.594,829.8
530.731,829.7
530.867,828.8
531.004,829.0
531.14,829.6
531.277,830.8
531.413,828.8
531.55,829.2
531.686,829.6
531.823,829.1
531.959,830.9
532.096,839.8
532.232,842.2
532.369,832.8
532.505,828.5
532.641,829.0
532.778,828.4
532.914,829.2
533.051,829.3
533.187,829.1
533.323,828.5
533.46,829.6
533.596,830.0
533.732,831.8
533.869,850.6
534.005,876.9
534.141,885.5
534.278,886.8
534.414,883.6
534.55,879.9
534.687,876.6
534.823,875.8
534.959,871.8
535.095,870.7
535.232,867.6
535.368,866.8
535.504,865.4
535.64,861.9
535.777,864.3
535.913,859.5
536.049,857.9
536.185,860.0
536.321,858.8
536.457,859.6
536.594,856.9
536.73,857.7
536.866,856.8
537.002,857.2
537.138,857.1
537.274,856.3
537.41,856.5
537.547,855.9
537.683,858.2
537.819,855.7
537.955,857.3
538.091,854.6
538.227,859.2
538.363,857.0
538.499,856.5
538.635,853.7
538.771,855.7
538.907,852.1
539.043,853.1
539.179,853.8
539.315,850.9
539.451,851.7
539.587,850.8
539.723,848.3
539.859,851.3
539.995,852.9
540.131,848.3
540.267,851.6
540.403,851.1
540.539,848.8
540.675,851.1
540.811,852.1
540.947,851.2
541.083,851.1
541.219,848.6
541.354,851.0
541.49,850.5
541.626,852.8
541.762,851.5
541.898,850.9
542.034,852.8
542.17,853.7
542.305,852.2
542.441,852.6
542.577,851.5
542.713,852.1
542.849,853.5
542.984,851.2
543.12,853.5
543.256,850.5
543.392,851.9
543.528,853.5
543.663,853.6
543.799,852.2
543.935,853.5
544.071,853.2
544.206,855.4
544.342,854.6
544.478,853.0
544.613,852.6
544.749,853.2
544.885,853.8
545.02,855.0
545.156,854.2
545.292,854.0
545.427,853.9
545.563,854.7
545.699,852.5
545.834,854.9
545.97,856.1
546.106,856.4
546.241,855.6
546.377,854.2
546.512,854.0
546.648,857.1
546.784,854.9
546.919,855.4
547.055,855.7
547.19,856.3
547.326,854.5
547.461,851.9
547.597,852.6
547.732,855.3
547.868,855.3
548.003,855.0
548.139,854.7
548.274,856.4
548.41,854.2
548.545,854.4
548.681,855.5
548.816,850.8
548.952,853.1
549.087,852.8
549.223,854.9
549.358,852.4
549.494,852.5
549.629,852.8
549.764,854.4
549.9,855.1
550.035,851.7
550.171,854.2
550.306,855.1
550.441,854.9
550.577,853.1
550.712,853.9
550.847,852.6
550.983,854.7
551.118,852.9
551.253,854.2
551.389,856.0
551.524,855.5
551.659,854.1
551.795,853.9
551.93,853.2
552.065,852.6
552.201,855.2
552.336,855.3
552.471,853.8
552.606,853.8
552.742,856.4
552.877,858.3
553.012,855.5
553.147,855.7
553.283,856.1
553.418,856.1
553.553,857.7
553.688,858.3
553.823,857.0
553.959,860.4
554.094,856.0
554.229,857.0
554.364,859.0
554.499,858.0
554.634,858.0
554.769,859.4
554.905,858.6
555.04,857.6
555.175,859.3
555.31,858.8
555.445,860.0
555.58,859.8
555.715,861.0
555.85,860.1
555.985,859.7
556.121,860.2
556.256,865.2
556.391,862.9
556.526,861.2
556.661,859.5
556.796,861.6
556.931,861.0
557.066,861.5
557.201,861.4
557.336,863.6
557.471,864.4
557.606,865.0
557.741,864.8
557.876,866.8
558.011,869.2
558.146,867.5
558.281,866.6
558.416,867.3
558.551,864.9
558.685,869.0
558.82,867.8
558.955,869.8
559.09,863.2
559.225,867.6
559.36,865.4
559.495,865.8
559.63,867.2
559.765,868.7
559.9,866.8
560.034,868.8
560.169,865.0
560.304,867.0
560.439,863.9
560.574,864.2
560.709,868.1
560.843,866.3
560.978,868.0
561.113,867.0
561.248,866.7
561.383,865.8
561.517,867.8
561.652,867.9
561.787,869.3
561.922,871.6
562.057,870.2
562.191,870.5
562.326,869.2
562.461,870.1
562.596,873.6
562.73,872.2
562.865,874.5
563.0,872.9
563.134,875.1
563.269,876.1
563.404,879.1
563.539,879.6
563.673,884.5
563.808,902.2
563.943,950.3
564.077,1004.8
564.212,957.1
564.346,907.1
564.481,897.5
564.616,892.1
564.75,895.4
564.885,891.7
565.02,891.4
565.154,888.9
565.289,887.4
565.423,888.7
565.558,888.9
565.693,895.5
565.827,901.4
565.962,930.9
566.096,1019.8
566.231,1106.7
566.365,1004.6
566.5,919.7
566.634,897.6
566.769,888.1
566.903,885.7
567.038,885.5
567.172,886.4
567.307,885.1
567.441,890.3
567.576,889.7
567.71,888.3
567.845,883.1
567.979,884.1
568.114,886.3
568.248,886.1
568.383,887.9
568.517,889.2
568.652,887.3
568.786,887.7
568.92,889.4
569.055,891.7
569.189,888.5
569.324,892.7
569.458,892.6
569.592,892.6
569.727,895.4
569.861,893.1
569.996,897.3
570.13,896.0
570.264,895.8
570.399,897.3
570.533,899.0
570.667,905.9
570.802,904.4
570.936,908.7
571.07,910.4
571.205,912.8
571.339,934.8
571.473,1026.5
571.607,1120.2
571.742,1003.2
571.876,938.2
572.01,925.5
572.144,922.7
572.279,919.7
572.413,917.5
572.547,913.2
572.681,913.5
572.816,915.4
572.95,913.8
573.084,914.7
573.218,915.8
573.353,915.9
573.487,922.6
573.621,921.6
573.755,925.6
573.889,933.1
574.023,938.1
574.158,935.4
574.292,932.8
574.426,931.9
574.56,929.2
574.694,934.5
574.828,938.5
574.963,940.4
575.097,945.7
575.231,955.2
575.365,977.4
575.499,1053.6
575.633,1090.4
575.767,1026.5
575.901,1001.6
576.035,1009.7
576.169,1023.7
576.303,1051.8
576.438,1053.2
576.572,1031.8
576.706,1029.5
576.84,1043.1
576.974,1039.3
577.108,1042.1
577.242,1036.3
577.376,1031.9
577.51,1017.8
577.644,1018.2
577.778,1020.0
577.912,1021.7
578.046,1025.2
578.18,1025.4
578.314,1028.5
578.448,1040.1
578.582,1045.1
578.716,1046.2
578.85,1055.7
578.984,1059.8
579.117,1062.5
579.251,1075.3
579.385,1074.6
579.519,1074.2
579.653,1091.5
579.787,1093.9
579.921,1100.9
580.055,1102.8
580.189,1098.0
580.323,1116.2
580.456,1121.6
580.59,1128.1
580.724,1132.0
580.858,1135.7
580.992,1147.1
581.126,1153.6
581.26,1152.0
581.393,1161.6
581.527,1164.1
581.661,1175.9
581.795,1177.9
581.929,1187.4
582.063,1184.4
582.196,1190.8
582.33,1188.7
582.464,1195.6
582.598,1197.7
582.731,1210.9
582.865,1217.1
582.999,1217.0
583.133,1221.2
583.267,1221.9
583.4,1225.0
583.534,1229.6
583.668,1233.7
583.801,1231.9
583.935,1240.1
584.069,1236.7
584.203,1247.1
584.336,1239.9
584.47,1242.7
584.604,1242.5
584.737,1246.0
584.871,1246.7
585.005,1245.3
585.138,1255.8
585.272,1250.1
585.406,1242.2
585.539,1253.2
585.673,1251.0
585.807,1251.4
585.94,1256.2
586.074,1256.9
586.208,1261.4
586.341,1251.7
586.475,1257.8
586.608,1262.4
586.742,1260.2
586.876,1255.6
587.009,1264.9
587.143,1255.9
587.276,1262.7
587.41,1265.2
587.543,1259.4
587.677,1256.9
587.811,1258.4
587.944,1272.8
588.078,1260.0
588.211,1263.3
588.345,1267.1
588.478,1268.7
588.612,1266.3
588.745,1269.3
588.879,1280.0
589.012,1272.2
589.146,1266.5
589.279,1273.5
589.413,1268.4
589.546,1266.8
589.68,1274.8
589.813,1275.0
589.947,1278.9
590.08,1286.9
590.214,1281.7
590.347,1283.6
590.48,1290.4
590.614,1283.5
590.747,1290.4
590.881,1286.0
591.014,1293.6
591.148,1292.2
591.281,1294.4
591.414,1299.3
591.548,1297.9
591.681,1300.0
591.815,1298.9
591.948,1298.8
592.081,1297.3
592.215,1292.2
592.348,1293.0
592.481,1293.1
592.615,1296.2
592.748,1297.6
592.881,1294.8
593.015,1294.8
593.148,1303.1
593.281,1294.6
593.415,1301.6
593.548,1292.9
593.681,1291.8
593.815,1294.7
593.948,1298.3
594.081,1301.2
594.215,1298.6
594.348,1297.3
594.481,1290.0
594.614,1295.0
594.748,1290.3
594.881,1294.1
595.014,1289.5
595.147,1288.9
595.281,1288.6
595.414,1290.8
595.547,1283.1
595.68,1295.3
595.814,1283.2
595.947,1289.6
596.08,1293.3
596.213,1289.6
596.347,1286.4
596.48,1291.0
596.613,1288.7
596.746,1292.0
596.879,1292.8
597.012,1291.9
597.146,1287.7
597.279,1286.8
597.412,1293.8
597.545,1287.6
597.678,1292.3
597.811,1286.2
597.945,1289.8
598.078,1282.0
598.211,1294.8
598.344,1295.4
598.477,1297.4
598.61,1304.7
598.743,1302.6
598.876,1296.5
599.009,1299.6
599.143,1302.0
599.276,1302.9
599.409,1300.9
599.542,1297.1
599.675,1304.0
599.808,1300.3
599.941,1314.7
600.074,1303.5
600.207,1298.8
600.34,1300.2
600.473,1296.5
600.606,1299.4
600.739,1297.3
600.872,1286.9
601.005,1299.4
601.138,1293.3
601.271,1300.9
601.404,1299.7
601.537,1294.7
601.67,1296.9
601.803,1299.4
601.936,1294.7
602.069,1302.0
602.202,1296.0
602.335,1296.8
602.468,1298.5
602.601,1287.1
602.734,1292.9
602.867,1285.8
603.0,1283.4
603.133,1283.1
603.266,1282.9
603.399,1282.2
603.532,1280.6
603.665,1276.8
603.798,1273.4
603.931,1284.0
604.064,1272.3
604.196,1272.0
604.329,1267.2
604.462,1264.4
604.595,1262.4
604.728,1252.4
604.861,1247.5
604.994,1245.9
605.127,1240.8
605.259,1242.6
605.392,1232.9
605.525,1229.7
605.658,1230.3
605.791,1226.0
605.924,1221.2
606.057,1229.4
606.189,1206.3
606.322,1211.0
606.455,1212.3
606.588,1202.0
606.721,1203.6
606.853,1196.6
606.986,1197.4
607.119,1196.9
607.252,1196.8
607.385,1188.8
607.517,1193.9
607.65,1184.0
607.783,1181.7
607.916,1185.9
608.049,1178.8
608.181,1180.7
608.314,1179.6
608.447,1171.0
608.58,1173.8
608.712,1169.3
608.845,1171.9
608.978,1161.3
609.111,1161.5
609.243,1155.8
609.376,1151.3
609.509,1150.1
609.641,1152.8
609.774,1143.4
609.907,1143.5
610.039,1141.9
610.172,1144.8
610.305,1133.9
610.438,1141.9
610.57,1140.0
610.703,1140.3
610.836,1131.1
610.968,1132.1
611.101,1139.4
611.234,1127.6
611.366,1136.1
611.499,1126.0
611.631,1121.7
611.764,1123.4
611.897,1118.9
612.029,1116.8
612.162,1118.0
612.295,1114.6
612.427,1117.4
612.56,1115.3
612.692,1116.1
612.825,1111.6
612.958,1110.9
613.09,1111.7
613.223,1110.4
613.355,1107.9
613.488,1098.1
613.621,1106.5
613.753,1101.3
613.886,1105.3
614.018,1102.0
614.151,1094.0
614.283,1103.3
614.416,1102.0
614.548,1093.1
614.681,1098.4
614.814,1091.6
614.946,1094.5
615.079,1087.3
615.211,1081.5
615.344,1081.1
615.476,1080.9
615.609,1073.3
615.741,1082.8
615.874,1076.6
616.006,1080.7
616.139,1076.3
616.271,1076.3
616.404,1078.4
616.536,1080.0
616.669,1079.4
616.801,1071.2
616.933,1076.8
617.066,1072.4
617.198,1073.2
617.331,1072.2
617.463,1069.8
617.596,1073.5
617.728,1070.1
617.861,1076.6
617.993,1068.5
618.125,1070.8
618.258,1063.8
618.39,1069.9
618.523,1065.2
618.655,1063.0
618.788,1064.5
618.92,1061.0
619.052,1062.2
619.185,1061.9
619.317,1059.4
619.45,1062.7
619.582,1059.4
619.714,1062.0
619.847,1059.8
619.979,1062.7
620.111,1057.1
620.244,1054.5
620.376,1055.9
620.509,1055.9
620.641,1055.1
620.773,1060.3
620.906,1057.7
621.038,1060.7
621.17,1055.4
621.303,1059.8
621.435,1064.6
621.567,1066.5
621.7,1073.0
621.832,1067.6
621.964,1075.9
622.096,1079.0
622.229,1080.6
622.361,1081.2
622.493,1084.3
622.626,1078.0
622.758,1073.3
622.89,1068.0
623.022,1067.6
623.155,1066.0
623.287,1057.9
623.419,1057.8
623.552,1061.1
623.684,1059.6
623.816,1057.7
623.948,1059.2
624.081,1058.4
624.213,1068.7
624.345,1064.7
624.477,1062.0
624.61,1058.2
624.742,1058.6
624.874,1062.8
625.006,1065.3
625.138,1070.5
625.271,1063.3
625.403,1065.2
625.535,1066.1
625.667,1072.8
625.799,1073.5
625.932,1077.9
626.064,1078.7
626.196,1083.5
626.328,1088.1
626.46,1097.7
626.593,1133.7
626.725,1179.8
626.857,1241.6
626.989,1356.6
627.121,1500.5
627.253,1584.8
627.386,1559.9
627.518,1493.7
627.65,1428.8
627.782,1382.5
627.914,1350.8
628.046,1334.0
628.178,1326.6
628.311,1353.8
628.443,1463.2
628.575,1611.7
628.707,1604.5
628.839,1477.4
628.971,1416.4
629.103,1403.6
629.235,1386.0
629.367,1373.9
629.5,1342.0
629.632,1317.0
629.764,1294.0
629.896,1277.3
630.028,1265.4
630.16,1264.7
630.292,1272.5
630.424,1271.5
630.556,1258.6
630.688,1236.4
630.82,1227.5
630.952,1194.1
631.084,1165.2
631.216,1141.4
631.349,1135.9
631.481,1122.5
631.613,1115.0
631.745,1114.9
631.877,1111.1
632.009,1110.4
632.141,1109.1
632.273,1102.1
632.405,1105.2
632.537,1103.4
632.669,1100.2
632.801,1108.4
632.933,1102.9
633.065,1099.4
633.197,1106.6
633.329,1099.5
633.461,1107.9
633.593,1106.5
633.725,1105.5
633.857,1107.8
633.989,1106.9
634.121,1100.4
634.253,1098.5
634.385,1102.1
634.517,1098.7
634.649,1102.8
634.781,1103.6
634.912,1102.1
635.044,1103.7
635.176,1103.6
635.308,1103.4
635.44,1107.6
635.572,1100.6
635.704,1110.3
635.836,1104.3
635.968,1100.1
636.1,1100.6
636.232,1103.7
636.364,1095.6
636.496,1104.4
636.628,1102.7
636.76,1105.8
636.891,1100.7
637.023,1098.6
637.155,1109.3
637.287,1104.6
637.419,1101.2
637.551,1096.9
637.683,1098.4
637.815,1095.0
637.947,1096.7
638.078,1097.2
638.21,1094.5
638.342,1102.8
638.474,1102.0
638.606,1099.6
638.738,1101.7
638.87,1096.3
639.002,1101.6
639.133,1098.6
639.265,1102.8
639.397,1098.0
639.529,1102.3
639.661,1097.1
639.793,1098.7
639.924,1102.2
640.056,1099.0
640.188,1093.5
640.32,1097.8
640.452,1098.7
640.584,1100.2
640.715,1097.1
640.847,1103.1
640.979,1097.8
641.111,1099.8
641.243,1098.5
641.374,1094.0
641.506,1102.2
641.638,1092.4
641.77,1095.2
641.902,1103.6
642.033,1100.4
642.165,1104.8
642.297,1099.3
642.429,1102.1
642.561,1097.5
642.692,1100.0
642.824,1096.9
642.956,1099.5
643.088,1101.5
643.219,1093.0
643.351,1094.5
643.483,1099.3
643.615,1098.7
643.746,1097.8
643.878,1092.4
644.01,1094.8
644.142,1092.8
644.273,1089.8
644.405,1093.9
644.537,1099.9
644.669,1092.0
644.8,1095.7
644.932,1094.2
645.064,1098.5
645.195,1095.8
645.327,1084.4
645.459,1090.7
645.591,1088.1
645.722,1086.9
645.854,1090.3
645.986,1089.9
646.117,1091.8
646.249,1091.2
646.381,1085.5
646.512,1098.8
646.644,1088.5
646.776,1088.4
646.908,1084.3
647.039,1090.5
647.171,1084.9
647.303,1086.6
647.434,1090.0
647.566,1085.6
647.698,1085.4
647.829,1089.7
647.961,1081.4
648.093,1084.6
648.224,1086.1
648.356,1080.1
648.488,1090.7
648.619,1082.3
648.751,1084.3
648.883,1071.4
649.014,1079.9
649.146,1079.9
649.277,1079.6
649.409,1077.8
649.541,1079.6
649.672,1072.0
649.804,1077.3
649.936,1073.8
650.067,1070.1
650.199,1072.3
650.33,1073.0
650.462,1073.9
650.594,1075.3
650.725,1065.2
650.857,1065.5
650.988,1071.7
651.12,1071.4
651.252,1073.4
651.383,1064.5
651.515,1071.7
651.646,1067.6
651.778,1067.7
651.91,1069.7
652.041,1066.8
652.173,1062.0
652.304,1066.9
652.436,1067.7
652.568,1060.0
652.699,1065.1
652.831,1067.2
652.962,1067.9
653.094,1063.1
653.225,1068.1
653.357,1062.5
653.489,1061.2
653.62,1059.4
653.752,1062.5
653.883,1057.5
654.015,1058.7
654.146,1067.7
654.278,1060.5
654.409,1054.0
654.541,1054.3
654.672,1059.7
654.804,1059.6
654.935,1049.5
655.067,1058.7
655.199,1057.3
655.33,1058.8
655.462,1047.4
655.593,1053.0
655.725,1058.2
655.856,1053.6
655.988,1059.8
656.119,1046.8
656.251,1053.6
656.382,1049.5
656.514,1051.4
656.645,1046.7
656.777,1052.3
656.908,1051.9
657.04,1051.4
657.171,1052.3
657.303,1050.6
657.434,1045.8
657.566,1039.7
657.697,1044.1
657.829,1043.6
657.96,1041.8
658.092,1044.9
658.223,1044.6
658.355,1041.0
658.486,1046.0
658.617,1044.3
658.749,1039.3
658.88,1035.6
659.012,1034.3
659.143,1036.9
659.275,1032.0
659.406,1030.3
659.538,1032.1
659.669,1036.3
659.801,1032.6
659.932,1029.7
660.064,1030.1
660.195,1028.0
660.326,1028.2
660.458,1025.0
660.589,1021.9
660.721,1017.2
660.852,1021.7
660.984,1017.3
661.115,1020.6
661.246,1019.0
661.378,1015.4
661.509,1012.6
661.641,1004.7
661.772,1017.3
661.904,1005.4
662.035,1003.4
662.166,1006.9
662.298,999.8
662.429,999.5
662.561,1004.7
662.692,1002.1
662.823,995.5
662.955,999.8
663.086,999.6