File: spectra/VLFR_07-PET_bio_Raman_f568e5bd.csv
nm,Intensity
791.377,12446.4
791.652,12211.4
791.927,11932.2
792.202,11730.3
792.477,11400.9
792.752,11175.8
793.027,11076.0
793.301,11034.9
793.576,10907.7
793.851,10834.8
794.126,10830.4
794.401,10626.8
794.676,10502.5
794.951,10522.6
795.225,10542.0
795.5,10505.9
795.775,10512.8
796.05,10426.8
796.325,10352.5
796.599,10403.1
796.874,10440.0
797.149,10540.1
797.424,10414.9
797.698,10439.8
797.973,10491.1
798.248,10346.5
798.523,10309.9
798.797,10355.8
799.072,10536.1
799.347,10458.5
799.622,10435.5
799.896,10495.0
800.171,10433.7
800.446,10305.2
800.72,10380.7
800.995,10310.0
801.27,10275.8
801.544,10253.2
801.819,10269.9
802.094,10438.3
802.368,10328.0
802.643,10149.2
802.918,10154.9
803.192,10194.4
803.467,10138.3
803.742,10003.4
804.016,10021.5
804.291,9977.82
804.565,9921.86
804.84,10014.4
805.114,10073.2
805.389,9858.64
805.664,9887.2
805.938,9749.22
806.213,9767.72
806.487,9762.26
806.762,9816.92
807.036,9816.78
807.311,9689.06
807.585,9588.56
807.86,9693.0
808.134,9696.7
808.409,9690.66
808.683,9504.18
808.958,9557.72
809.232,9664.8
809.507,9689.36
809.781,9534.82
810.056,9444.84
810.33,9458.9
810.605,9492.04
810.879,9508.22
811.153,9528.42
811.428,9416.8
811.702,9471.38
811.977,9473.56
812.251,9362.08
812.525,9348.38
812.8,9279.18
813.074,9370.04
813.349,9325.22
813.623,9313.58
813.897,9261.08
814.172,9275.06
814.446,9153.8
814.72,9171.18
814.995,9181.9
815.269,9152.14
815.543,9156.6
815.818,9209.6
816.092,9030.98
816.366,9035.78
816.64,9056.86
816.915,9088.7
817.189,9007.9
817.463,8965.48
817.737,8916.14
818.012,8877.3
818.286,8979.28
818.56,9066.14
818.834,8858.38
819.109,8788.4
819.383,8870.78
819.657,8797.78
819.931,8977.22
820.205,8817.5
820.48,8780.56
820.754,8908.32
821.028,8706.1
821.302,8782.8
821.576,8774.32
821.85,8701.18
822.125,8694.42
822.399,8670.28
822.673,8608.06
822.947,8568.0
823.221,8553.3
823.495,8544.72
823.769,8573.2
824.043,8472.12
824.317,8546.56
824.591,8618.86
824.865,8446.26
825.14,8436.18
825.414,8632.38
825.688,8756.62
825.962,8883.22
826.236,8725.06
826.51,8465.64
826.784,8478.42
827.058,8350.72
827.332,8256.48
827.606,8318.3
827.88,8258.8
828.154,8286.0
828.428,8253.0
828.702,8176.6
828.976,8162.88
829.249,8197.38
829.523,8212.22
829.797,8150.0
830.071,8228.2
830.345,8257.66
830.619,8321.46
830.893,8262.5
831.167,8180.52
831.441,8046.4
831.715,8045.7
831.988,8013.62
832.262,7917.4
832.536,7929.76
832.81,8029.0
833.084,8074.38
833.358,8004.38
833.632,7981.42
833.905,7916.16
834.179,7919.56
834.453,7884.9
834.727,7848.94
835.001,7750.84
835.274,7805.14
835.548,7795.06
835.822,7778.56
836.096,7763.18
836.369,7763.0
836.643,7910.58
836.917,7910.5
837.191,7876.54
837.464,7874.2
837.738,7934.64
838.012,7913.7
838.285,7844.52
838.559,7866.04
838.833,7800.28
839.106,7807.1
839.38,7812.84
839.654,7775.52
839.927,7860.68
840.201,7788.0
840.475,7855.1
840.748,7888.0
841.022,8002.74
841.295,8040.5
841.569,8111.62
841.843,8098.92
842.116,7803.8
842.39,7770.96
842.663,7788.0
842.937,7749.82
843.211,7746.32
843.484,7626.58
843.758,7613.32
844.031,7527.24
844.305,7521.2
844.578,7559.44
844.852,7475.78
845.125,7400.56
845.399,7388.74
845.672,7394.28
845.946,7324.4
846.219,7273.2
846.493,7251.76
846.766,7293.44
847.039,7369.88
847.313,7277.52
847.586,7221.88
847.86,7201.28
848.133,7186.42
848.407,7220.06
848.68,7212.48
848.953,7212.24
849.227,7141.7
849.5,7132.12
849.773,7136.46
850.047,7094.5
850.32,7116.14
850.593,7099.22
850.867,7124.6
851.14,7162.66
851.413,7211.94
851.687,7209.56
851.96,7156.82
852.233,7062.82
852.507,7080.38
852.78,7163.74
853.053,7127.78
853.326,7067.68
853.6,6998.28
853.873,7044.18
854.146,7060.42
854.419,7064.66
854.693,7024.34
854.966,7041.92
855.239,7013.04
855.512,6933.94
855.785,6942.2
856.059,6911.28
856.332,6930.14
856.605,6972.14
856.878,6969.24
857.151,6970.46
857.424,6978.82
857.698,6926.76
857.971,6995.16
858.244,7010.64
858.517,7007.74
858.79,7105.96
859.063,7139.08
859.336,7094.34
859.609,7078.68
859.882,7103.96
860.155,7127.36
860.428,7121.14
860.701,7058.24
860.974,7038.64
861.247,6980.9
861.52,6982.48
861.793,6894.94
862.066,6789.52
862.339,6765.38
862.612,6800.6
862.885,6768.48
863.158,6715.02
863.431,6745.56
863.704,6741.14
863.977,6748.06
864.25,6766.14
864.523,6794.48
864.796,6785.64
865.069,6737.9
865.342,6764.5
865.615,6739.78
865.888,6678.98
866.16,6624.56
866.433,6641.44
866.706,6668.98
866.979,6654.98
867.252,6575.6
867.525,6609.66
867.798,6632.2
868.07,6609.06
868.343,6595.06
868.616,6579.46
868.889,6614.68
869.162,6608.86
869.434,6536.98
869.707,6568.9
869.98,6616.72
870.253,6647.7
870.525,6649.98
870.798,6569.24
871.071,6615.68
871.344,6699.84
871.616,6806.14
871.889,6833.12
872.162,6902.14
872.434,6972.68
872.707,6997.08
872.98,7014.32
873.252,7068.14
873.525,7023.38
873.798,6959.22
874.07,6851.56
874.343,6730.34
874.615,6728.34
874.888,6683.42
875.161,6605.3
875.433,6494.74
875.706,6523.48
875.978,6520.06
876.251,6494.5
876.524,6482.1
876.796,6485.58
877.069,6436.86
877.341,6366.32
877.614,6355.62
877.886,6410.54
878.159,6376.54
878.431,6300.78
878.704,6266.1
878.976,6290.94
879.249,6332.24
879.521,6342.78
879.794,6303.58
880.066,6246.22
880.338,6264.54
880.611,6279.14
880.883,6265.76
881.156,6249.42
881.428,6232.26
881.7,6242.22
881.973,6239.22
882.245,6273.34
882.518,6278.5
882.79,6260.82
883.062,6266.44
883.335,6264.8
883.607,6233.98
883.879,6172.88
884.152,6117.16
884.424,6172.58
884.696,6204.26
884.968,6196.46
885.241,6208.46
885.513,6240.06
885.785,6188.64
886.058,6149.92
886.33,6118.88
886.602,6130.44
886.874,6128.16
887.146,6108.3
887.419,6122.84
887.691,6095.42
887.963,6060.92
888.235,6027.9
888.507,6029.46
888.78,6010.2
889.052,5964.66
889.324,5931.38
889.596,5940.56
889.868,5934.26
890.14,5996.3
890.412,5990.22
890.684,5940.96
890.957,5955.36
891.229,5937.96
891.501,5949.48
891.773,5999.08
892.045,6006.2
892.317,5958.4
892.589,5927.24
892.861,5922.04
893.133,5853.38
893.405,5819.48
893.677,5858.3
893.949,5868.26
894.221,5857.66
894.493,5825.76
894.765,5784.64
895.037,5767.74
895.309,5787.72
895.581,5799.32
895.853,5806.26
896.125,5755.3
896.397,5738.16
896.668,5758.66
896.94,5806.8
897.212,5913.38
897.484,5970.98
897.756,6153.52
898.028,6347.82
898.3,6493.96
898.571,6591.12
898.843,6575.16
899.115,6461.76
899.387,6299.78
899.659,6110.9
899.931,5950.78
900.202,5816.06
900.474,5712.7
900.746,5661.24
901.018,5600.92
901.289,5576.52
901.561,5584.56
901.833,5574.44
902.105,5530.78
902.376,5544.42
902.648,5530.2
902.92,5538.22
903.191,5517.16
903.463,5495.76
903.735,5494.9
904.006,5478.7
904.278,5513.18
904.55,5565.98
904.821,5522.76
905.093,5482.02
905.365,5464.14
905.636,5519.54
905.908,5568.42
906.179,5560.88
906.451,5629.36
906.722,5753.16
906.994,5889.9
907.266,6025.9
907.537,6055.24
907.809,6036.14
908.08,6017.14
908.352,5962.12
908.623,5916.94
908.895,5842.04
909.166,5750.9
909.438,5678.16
909.709,5584.96
909.981,5494.94
910.252,5417.9
910.523,5341.42
910.795,5327.4
911.066,5309.66
911.338,5275.52
911.609,5285.66
911.881,5267.92
912.152,5238.66
912.423,5216.26
912.695,5203.86
912.966,5206.66
913.237,5210.06
913.509,5217.88
913.78,5236.18
914.051,5196.22
914.323,5194.86
914.594,5180.42
914.865,5157.08
915.136,5134.7
915.408,5112.72
915.679,5108.04
915.95,5099.74
916.221,5113.88
916.493,5096.14
916.764,5060.9
917.035,5074.16
917.306,5063.82
917.578,5056.0
917.849,5070.16
918.12,5073.6
918.391,5049.98
918.662,5028.68
918.933,5041.18
919.204,5042.56
919.476,5012.68
919.747,4967.24
920.018,4966.8
920.289,4994.88
920.56,5001.06
920.831,4970.74
921.102,4967.38
921.373,4967.28
921.644,4952.32
921.915,4928.56
922.186,4936.2
922.457,4964.58
922.728,4947.32
922.999,4922.68
923.27,4895.46
923.541,4916.48
923.812,4906.1
924.083,4875.66
924.354,4852.16
924.625,4844.36
924.896,4845.82
925.167,4853.92
925.438,4871.4
925.709,4836.74
925.98,4832.54
926.251,4834.78
926.522,4830.88
926.792,4832.76
927.063,4828.24
927.334,4812.28
927.605,4772.86
927.876,4727.84
928.147,4739.84
928.417,4765.58
928.688,4769.68
928.959,4766.76
929.23,4751.02
929.501,4730.54
929.771,4725.38
930.042,4712.78
930.313,4694.94
930.584,4679.62
930.854,4679.48
931.125,4670.3
931.396,4644.16
931.666,4648.72
931.937,4655.34
932.208,4654.28
932.478,4641.18
932.749,4655.96
933.02,4642.14
933.29,4619.64
933.561,4614.04
933.832,4624.48
934.102,4608.78
934.373,4596.12
934.643,4580.22
934.914,4583.38
935.184,4585.98
935.455,4568.94
935.726,4584.8
935.996,4566.58
936.267,4530.68
936.537,4521.56
936.808,4537.56
937.078,4542.9
937.349,4535.54
937.619,4537.22
937.89,4526.72
938.16,4505.26
938.43,4492.34
938.701,4492.8
938.971,4516.1
939.242,4522.16
939.512,4515.68
939.782,4497.4
940.053,4484.44
940.323,4485.04
940.594,4486.88
940.864,4469.54
941.134,4465.18
941.405,4469.26
941.675,4480.86
941.945,4464.44
942.216,4440.8
942.486,4414.94
942.756,4419.02
943.026,4423.78
943.297,4423.6
943.567,4424.0
943.837,4421.84
944.107,4415.1
944.378,4402.76
944.648,4391.12
944.918,4402.28
945.188,4405.34
945.458,4396.24
945.729,4382.4
945.999,4374.72
946.269,4372.26
946.539,4365.12
946.809,4359.88
947.079,4352.02
947.349,4347.6
947.62,4340.68
947.89,4345.62
948.16,4355.56
948.43,4355.78
948.7,4341.2
948.97,4333.48
949.24,4314.48
949.51,4317.22
949.78,4328.14
950.05,4318.18
950.32,4310.92
950.59,4305.74
950.86,4310.9
951.13,4315.04
951.4,4310.56
951.67,4305.62
951.94,4280.38
952.21,4279.92
952.48,4269.24
952.75,4265.46
953.02,4248.64
953.289,4255.3
953.559,4262.06
953.829,4270.08
954.099,4269.64
954.369,4265.16
954.639,4253.68
954.909,4242.6
955.178,4236.2
955.448,4227.6
955.718,4223.06
955.988,4219.46
956.257,4219.76
956.527,4219.38
956.797,4226.72
957.067,4227.58
957.336,4220.44
957.606,4212.5
957.876,4216.88
958.146,4214.82
958.415,4206.5
958.685,4196.5
958.955,4198.62
959.224,4192.92
959.494,4198.36
959.764,4198.62
960.033,4195.12
960.303,4190.04
960.572,4182.34
960.842,4170.92
961.112,4157.74
961.381,4167.38
961.651,4169.3
961.92,4154.4
962.19,4151.38
962.459,4146.78
962.729,4151.36
962.998,4149.24
963.268,4157.26
963.537,4157.86
963.807,4148.32
964.076,4140.32
964.346,4134.54
964.615,4127.84
964.885,4128.18
965.154,4128.34
965.424,4126.52
965.693,4124.32
965.962,4124.2
966.232,4128.1
966.501,4116.44
966.771,4110.54
967.04,4118.46
967.309,4118.7
967.579,4111.88
967.848,4104.8
968.117,4099.3
968.387,4097.26
968.656,4091.46
968.925,4089.88
969.194,4091.94
969.464,4090.48
969.733,4089.82
970.002,4092.78
970.271,4088.8
970.541,4088.34
970.81,4088.12
971.079,4081.76
971.348,4072.7
971.617,4074.16
971.887,4070.62
972.156,4076.32
972.425,4071.76
972.694,4058.78
972.963,4062.86
973.232,4058.16
973.501,4056.32
973.77,4051.0
974.04,4048.28
974.309,4043.56
974.578,4040.7
974.847,4041.36
975.116,4038.96
975.385,4038.78
975.654,4042.72
975.923,4042.68
976.192,4036.16
976.461,4030.2
976.73,4022.06
976.999,4017.38
977.268,4020.76
977.537,4024.34
977.806,4020.66
978.074,4017.64
978.343,4018.48
978.612,4014.78
978.881,4012.22
979.15,4012.12
979.419,4009.32
979.688,4012.04
979.957,4011.2
980.225,4003.56
980.494,3999.14
980.763,3998.06
981.032,3998.3
981.301,3990.7
981.569,3990.44
981.838,3990.0
982.107,3994.8
982.376,3992.24
982.644,3991.08
982.913,3989.98
983.182,3987.18
983.451,3985.18
983.719,3984.0
983.988,3979.38
984.257,3976.7
984.525,3977.3
984.794,3978.74
985.063,3976.4
985.331,3970.16
985.6,3969.5
985.868,3969.76
986.137,3968.46
986.406,3959.44
986.674,3959.38
986.943,3961.36
987.211,3958.72
987.48,3962.1
987.748,3960.82
988.017,3957.5
988.285,3958.62
988.554,3960.54
988.822,3958.32
989.091,3954.32
989.359,3951.46
989.628,3946.3
989.896,3943.72
990.164,3940.6
990.433,3942.6
990.701,3943.18
990.97,3938.04
991.238,3933.4
991.506,3932.52
991.775,3929.4
992.043,3932.32
992.311,3928.62
992.58,3929.22
992.848,3928.92
993.116,3926.26
993.385,3925.4
993.653,3927.26
993.921,3921.34
994.19,3921.72
994.458,3919.38
994.726,3917.7
994.994,3920.72
995.262,3920.36
995.531,3913.5
995.799,3908.26
996.067,3906.92
996.335,3910.7
996.603,3910.46
996.872,3909.46
997.14,3909.76
997.408,3907.94
997.676,3906.92
997.944,3910.22
998.212,3904.84
998.48,3901.86
998.748,3902.78
999.016,3899.44
999.284,3897.96
999.552,3894.16
999.82,3893.92
1000.09,3892.04
1000.36,3890.04
1000.62,3887.68
1000.89,3891.6
1001.16,3889.9
1001.43,3888.34
1001.7,3890.84
1001.96,3886.44
1002.23,3885.46
1002.5,3881.48
1002.77,3881.48
1003.04,3880.94
1003.3,3881.34
1003.57,3879.76
1003.84,3879.98
1004.11,3880.9
1004.38,3877.24
1004.64,3875.26
1004.91,3876.34
1005.18,3874.98
1005.45,3873.08
1005.71,3873.4
1005.98,3870.98
1006.25,3872.94
1006.52,3870.48
1006.79,3869.88
1007.05,3868.9
1007.32,3865.08
1007.59,3864.12
1007.86,3864.68
1008.12,3864.86
1008.39,3865.04
1008.66,3863.76
1008.93,3861.36
1009.19,3860.1
1009.46,3860.02
1009.73,3860.24
1010.0,3859.54
1010.26,3856.28
1010.53,3852.78
1010.8,3854.64
1011.07,3853.58
1011.33,3854.14
1011.6,3852.08
1011.87,3850.66
1012.14,3851.42
1012.4,3849.28
1012.67,3848.38
1012.94,3849.04
1013.21,3850.5
1013.47,3850.58
1013.74,3848.66
1014.01,3848.66
1014.28,3848.24
1014.54,3844.76
1014.81,3844.16
1015.08,3846.7
1015.35,3846.0
1015.61,3845.54
1015.88,3845.06
1016.15,3846.12
1016.42,3844.44
1016.68,3841.5
1016.95,3840.72
1017.22,3839.98
1017.48,3840.92
1017.75,3841.52
1018.02,3838.84
1018.29,3837.66
1018.55,3837.74
1018.82,3840.2
1019.09,3837.08
1019.36,3837.56
1019.62,3834.82
1019.89,3834.62
1020.16,3834.84
1020.42,3833.88
1020.69,3835.46
1020.96,3836.42
1021.23,3838.06
1021.49,3839.18
1021.76,3840.64
1022.03,3846.2
1022.29,3845.38
1022.56,3844.54
1022.83,3844.4
1023.09,3845.06
1023.36,3843.68
1023.63,3843.84
1023.9,3837.34
1024.16,3838.14
1024.43,3837.86
1024.7,3834.86
1024.96,3833.66
1025.23,3832.16
1025.5,3828.06
1025.76,3827.54
1026.03,3826.64
1026.3,3826.64
1026.56,3824.44
1026.83,3825.04
1027.1,3822.86
1027.37,3821.14
1027.63,3820.96
1027.9,3820.66
1028.17,3820.14
1028.43,3818.86
1028.7,3817.68
1028.97,3814.98
1029.23,3814.8
1029.5,3813.1
1029.77,3811.86
1030.03,3812.12
1030.3,3810.58
1030.57,3809.44
1030.83,3809.16
1031.1,3809.24
1031.37,3809.5
1031.63,3811.56
1031.9,3810.22
1032.17,3809.46
1032.43,3809.34
1032.7,3810.78
1032.97,3810.34
1033.23,3809.3
1033.5,3811.62
1033.77,3812.12
1034.03,3813.0
1034.3,3814.3
1034.57,3813.62
1034.83,3816.32
1035.1,3814.98
1035.36,3815.46
1035.63,3816.02
1035.9,3813.78
1036.16,3812.04
1036.43,3812.9
1036.7,3810.7
1036.96,3809.92
1037.23,3808.42
1037.5,3807.38
1037.76,3804.98
1038.03,3804.44
1038.3,3803.96
1038.56,3802.36
1038.83,3801.88
1039.09,3801.12
1039.36,3799.86
1039.63,3799.72
1039.89,3797.84
1040.16,3799.12
1040.43,3797.78
1040.69,3797.58
1040.96,3796.36
1041.22,3796.54
1041.49,3795.78
1041.76,3796.52
1042.02,3794.84
1042.29,3795.38
1042.55,3795.58
1042.82,3795.3
1043.09,3793.72
1043.35,3794.14
1043.62,3792.88
1043.89,3793.74
1044.15,3792.6
1044.42,3794.3
1044.68,3793.56
1044.95,3793.46
1045.22,3792.92
1045.48,3792.56
1045.75,3791.34
1046.01,3792.34
1046.28,3791.3
1046.55,3790.98
1046.81,3790.8
1047.08,3791.02
1047.34,3790.56
1047.61,3790.2
1047.88,3791.06
1048.14,3790.64
1048.41,3791.04
1048.67,3790.4
1048.94,3789.82
1049.2,3790.02
1049.47,3790.4
1049.74,3789.2
1050.0,3789.38
1050.27,3789.96
1050.53,3788.58
1050.8,3788.3
1051.06,3789.3
1051.33,3789.42
1051.6,3790.1
1051.86,3789.0
1052.13,3789.28
1052.39,3788.92
1052.66,3788.26
1052.92,3788.86
1053.19,3787.66
1053.46,3788.26
1053.72,3788.26
1053.99,3788.5
1054.25,3787.66
1054.52,3787.9
1054.78,3787.74
1055.05,3788.16
1055.32,3788.44
1055.58,3787.94
1055.85,3787.06
1056.11,3788.24
1056.38,3787.84
1056.64,3787.42
1056.91,3785.94
1057.17,3787.92
1057.44,3786.4
1057.7,3785.64
1057.97,3786.46
1058.24,3786.78
1058.5,3784.96
1058.77,3786.18
1059.03,3786.36
1059.3,3786.86
1059.56,3785.9
1059.83,3786.78
1060.09,3786.08
1060.36,3786.54
1060.62,3786.36
1060.89,3785.72
1061.15,3786.04
1061.42,3785.46
1061.68,3785.26
1061.95,3785.04
1062.22,3785.02
1062.48,3786.46
1062.75,3784.3
1063.01,3785.46
1063.28,3784.22
1063.54,3784.7
1063.81,3785.56
1064.07,3784.86
1064.34,3784.8
1064.6,3785.02
1064.87,3784.4
1065.13,3784.54
1065.4,3785.16
1065.66,3785.08
1065.93,3784.66
1066.19,3783.96
1066.46,3784.3
1066.72,3783.54
1066.99,3784.36
1067.25,3783.94
1067.52,3784.62
1067.78,3783.86
1068.05,3782.62