File: spectra/VLFR_08-PLA_bio_Raman_ad81c72e.csv
nm,Intensity
526.547,832.4
526.684,832.5
526.821,831.7
526.958,831.8
527.095,832.05
527.232,831.9
527.368,832.6
527.505,830.85
527.642,832.75
527.779,832.1
527.916,832.15
528.052,832.5
528.189,831.5
528.326,831.15
528.463,832.15
528.599,831.75
528.736,831.95
528.873,832.1
529.009,831.85
529.146,832.0
529.283,831.75
529.419,832.5
529.556,832.2
529.693,832.55
529.829,831.55
529.966,832.3
530.103,832.45
530.239,832.4
530.376,831.85
530.512,831.75
530.649,832.55
530.785,831.05
530.922,831.75
531.059,831.85
531.195,831.7
531.332,831.85
531.468,831.65
531.605,832.05
531.741,831.75
531.878,831.6
532.014,838.7
532.151,869.5
532.287,861.4
532.423,836.7
532.56,831.65
532.696,831.6
532.833,832.25
532.969,832.35
533.106,831.5
533.242,831.85
533.378,831.55
533.515,830.55
533.651,833.4
533.787,843.9
533.924,884.65
534.06,932.3
534.196,941.85
534.333,942.6
534.469,938.15
534.605,933.95
534.742,929.65
534.878,926.5
535.014,919.35
535.15,916.5
535.287,915.15
535.423,912.35
535.559,912.45
535.695,911.75
535.832,911.2
535.968,909.6
536.104,910.05
536.24,909.7
536.376,908.6
536.513,910.5
536.649,911.75
536.785,910.0
536.921,912.6
537.057,909.2
537.193,907.6
537.329,904.5
537.465,906.15
537.602,908.35
537.738,906.95
537.874,907.9
538.01,907.2
538.146,906.3
538.282,904.5
538.418,904.45
538.554,904.6
538.69,900.8
538.826,901.8
538.962,903.0
539.098,901.85
539.234,901.45
539.37,902.8
539.506,900.95
539.642,901.45
539.778,900.4
539.914,897.95
540.05,901.05
540.186,899.1
540.322,901.9
540.458,901.6
540.594,903.7
540.729,907.7
540.865,908.7
541.001,909.2
541.137,907.3
541.273,905.6
541.409,906.5
541.545,906.75
541.68,907.25
541.816,905.5
541.952,902.0
542.088,904.15
542.224,902.6
542.36,906.1
542.495,902.6
542.631,904.2
542.767,904.4
542.903,906.85
543.038,903.95
543.174,907.15
543.31,910.85
543.446,914.35
543.581,913.0
543.717,916.7
543.853,914.75
543.988,914.95
544.124,916.6
544.26,912.55
544.395,912.8
544.531,909.25
544.667,909.2
544.802,906.5
544.938,908.2
545.074,907.95
545.209,906.6
545.345,906.55
545.481,905.6
545.616,908.4
545.752,909.5
545.887,907.6
546.023,908.8
546.158,906.3
546.294,908.2
546.43,909.5
546.565,908.25
546.701,906.55
546.836,906.35
546.972,909.4
547.107,908.7
547.243,911.65
547.378,909.2
547.514,907.85
547.649,910.25
547.785,909.65
547.92,906.8
548.056,906.45
548.191,906.4
548.326,910.4
548.462,910.85
548.597,909.65
548.733,911.4
548.868,910.4
549.004,911.9
549.139,911.5
549.274,913.5
549.41,915.95
549.545,911.5
549.68,912.3
549.816,912.3
549.951,912.3
550.086,914.6
550.222,911.85
550.357,912.55
550.492,913.2
550.628,913.35
550.763,914.25
550.898,912.25
551.034,917.2
551.169,914.0
551.304,917.8
551.439,914.55
551.575,913.95
551.71,915.85
551.845,915.25
551.98,916.95
552.116,916.15
552.251,918.0
552.386,919.6
552.521,918.25
552.656,917.3
552.792,919.75
552.927,917.35
553.062,919.3
553.197,919.7
553.332,919.15
553.467,918.45
553.603,917.9
553.738,920.8
553.873,919.95
554.008,921.2
554.143,921.75
554.278,922.25
554.413,919.8
554.548,921.4
554.683,919.65
554.819,918.8
554.954,921.25
555.089,920.6
555.224,919.9
555.359,918.2
555.494,917.05
555.629,919.0
555.764,919.2
555.899,918.2
556.034,915.65
556.169,917.4
556.304,918.0
556.439,916.35
556.574,921.05
556.709,918.55
556.844,918.8
556.979,919.25
557.114,920.65
557.249,922.9
557.384,924.8
557.519,924.75
557.653,927.15
557.788,936.75
557.923,948.5
558.058,965.25
558.193,965.25
558.328,952.15
558.463,938.75
558.598,929.55
558.733,924.6
558.867,926.7
559.002,923.55
559.137,923.65
559.272,924.2
559.407,925.25
559.542,925.1
559.677,924.2
559.811,924.75
559.946,923.2
560.081,924.25
560.216,925.9
560.351,923.05
560.485,925.6
560.62,924.05
560.755,924.0
560.89,921.35
561.024,922.5
561.159,924.85
561.294,922.4
561.429,925.2
561.563,925.55
561.698,923.95
561.833,925.1
561.967,922.15
562.102,925.25
562.237,922.7
562.371,924.65
562.506,927.0
562.641,926.75
562.775,928.2
562.91,926.85
563.045,933.85
563.179,933.35
563.314,938.8
563.449,940.1
563.583,938.85
563.718,941.25
563.853,934.75
563.987,932.25
564.122,928.4
564.256,931.6
564.391,929.8
564.525,933.1
564.66,934.75
564.795,936.25
564.929,938.05
565.064,941.15
565.198,938.7
565.333,936.8
565.467,938.3
565.602,939.5
565.736,939.6
565.871,941.9
566.005,944.15
566.14,948.65
566.274,946.55
566.409,944.15
566.543,940.65
566.678,936.8
566.812,933.2
566.947,932.5
567.081,933.25
567.216,933.0
567.35,930.2
567.484,935.65
567.619,933.4
567.753,934.15
567.888,935.25
568.022,937.1
568.156,934.95
568.291,933.85
568.425,935.65
568.56,934.15
568.694,932.85
568.828,938.15
568.963,934.8
569.097,934.5
569.231,937.15
569.366,935.45
569.5,939.15
569.634,936.45
569.769,938.55
569.903,936.25
570.037,935.95
570.172,934.2
570.306,936.1
570.44,934.95
570.575,935.5
570.709,937.2
570.843,936.1
570.977,935.45
571.112,935.9
571.246,938.5
571.38,940.75
571.514,944.25
571.649,944.7
571.783,944.5
571.917,943.1
572.051,943.55
572.185,945.15
572.32,942.25
572.454,942.15
572.588,940.1
572.722,941.7
572.856,943.3
572.991,945.25
573.125,941.6
573.259,943.55
573.393,941.55
573.527,946.95
573.661,946.45
573.795,946.9
573.93,945.0
574.064,947.1
574.198,944.0
574.332,946.4
574.466,948.65
574.6,950.45
574.734,947.05
574.868,946.1
575.002,943.5
575.136,940.55
575.271,945.2
575.405,939.85
575.539,940.65
575.673,943.4
575.807,940.55
575.941,942.55
576.075,942.45
576.209,947.4
576.343,948.3
576.477,955.7
576.611,961.35
576.745,965.0
576.879,967.15
577.013,963.5
577.147,960.05
577.281,959.0
577.415,947.85
577.549,946.55
577.683,946.75
577.817,946.65
577.951,944.5
578.085,943.1
578.218,943.9
578.352,943.3
578.486,942.7
578.62,944.9
578.754,945.45
578.888,944.75
579.022,944.8
579.156,945.35
579.29,944.55
579.424,948.0
579.557,942.9
579.691,946.05
579.825,943.5
579.959,946.65
580.093,945.25
580.227,947.05
580.361,944.5
580.494,943.85
580.628,945.5
580.762,946.65
580.896,944.2
581.03,945.45
581.164,945.7
581.297,944.65
581.431,942.85
581.565,947.25
581.699,944.1
581.832,945.4
581.966,944.45
582.1,945.4
582.234,946.65
582.368,948.05
582.501,949.9
582.635,945.9
582.769,948.15
582.903,949.9
583.036,949.75
583.17,950.05
583.304,949.2
583.437,949.4
583.571,946.45
583.705,951.4
583.838,948.4
583.972,949.25
584.106,949.35
584.24,950.95
584.373,948.35
584.507,949.85
584.641,950.15
584.774,950.55
584.908,952.7
585.041,950.8
585.175,948.1
585.309,948.9
585.442,947.05
585.576,951.0
585.71,948.65
585.843,953.05
585.977,951.9
586.11,952.8
586.244,953.6
586.378,955.95
586.511,957.85
586.645,959.15
586.778,964.9
586.912,967.65
587.045,968.0
587.179,968.45
587.313,972.2
587.446,977.3
587.58,977.9
587.713,976.95
587.847,967.55
587.98,968.6
588.114,957.9
588.247,955.75
588.381,953.95
588.514,956.6
588.648,955.6
588.781,951.25
588.915,953.95
589.048,956.0
589.182,952.25
589.315,950.5
589.449,953.8
589.582,951.15
589.715,953.05
589.849,953.35
589.982,951.85
590.116,952.85
590.249,951.8
590.383,954.15
590.516,949.4
590.649,954.35
590.783,957.35
590.916,952.25
591.05,954.2
591.183,956.2
591.316,956.55
591.45,951.95
591.583,955.25
591.717,953.8
591.85,951.65
591.983,955.55
592.117,951.4
592.25,953.85
592.383,951.2
592.517,954.1
592.65,955.75
592.783,950.85
592.917,952.55
593.05,951.6
593.183,949.85
593.317,951.75
593.45,953.4
593.583,953.85
593.717,949.65
593.85,952.2
593.983,955.0
594.116,955.1
594.25,955.5
594.383,951.65
594.516,955.5
594.649,955.35
594.783,956.65
594.916,956.0
595.049,955.7
595.182,954.8
595.316,959.55
595.449,953.75
595.582,956.3
595.715,953.35
595.849,955.25
595.982,954.95
596.115,957.1
596.248,958.25
596.381,954.4
596.514,954.7
596.648,955.1
596.781,955.15
596.914,958.45
597.047,956.95
597.18,954.6
597.313,957.15
597.447,958.2
597.58,954.8
597.713,957.35
597.846,958.55
597.979,958.0
598.112,956.5
598.245,958.15
598.379,959.6
598.512,956.3
598.645,959.8
598.778,955.25
598.911,961.35
599.044,958.95
599.177,960.1
599.31,956.7
599.443,958.45
599.576,957.3
599.709,958.95
599.842,957.1
599.975,958.7
600.109,958.7
600.242,961.55
600.375,956.9
600.508,959.0
600.641,958.45
600.774,957.15
600.907,958.25
601.04,958.75
601.173,958.95
601.306,958.75
601.439,959.2
601.572,959.0
601.705,956.85
601.838,958.35
601.971,957.3
602.104,954.45
602.237,958.35
602.37,958.95
602.503,955.55
602.636,959.6
602.768,959.65
602.901,962.35
603.034,958.85
603.167,960.75
603.3,954.25
603.433,961.45
603.566,956.5
603.699,957.8
603.832,961.75
603.965,960.1
604.098,959.1
604.231,958.15
604.364,958.3
604.496,956.9
604.629,956.6
604.762,956.6
604.895,960.2
605.028,957.75
605.161,958.25
605.294,957.45
605.427,957.0
605.559,953.1
605.692,957.2
605.825,954.95
605.958,955.2
606.091,957.4
606.224,953.0
606.356,954.3
606.489,956.95
606.622,955.55
606.755,957.35
606.888,955.25
607.02,960.05
607.153,960.0
607.286,955.35
607.419,957.75
607.552,956.65
607.684,955.15
607.817,958.65
607.95,958.3
608.083,956.25
608.215,954.05
608.348,955.85
608.481,957.0
608.614,954.4
608.746,955.85
608.879,958.5
609.012,958.0
609.145,957.75
609.277,957.7
609.41,957.75
609.543,954.8
609.675,958.3
609.808,956.6
609.941,955.15
610.074,957.65
610.206,959.15
610.339,956.3
610.472,959.4
610.604,957.4
610.737,956.4
610.87,956.85
611.002,956.75
611.135,956.05
611.268,956.35
611.4,953.9
611.533,959.45
611.666,957.2
611.798,961.1
611.931,955.65
612.063,958.35
612.196,956.1
612.329,960.7
612.461,958.55
612.594,959.1
612.727,960.05
612.859,959.5
612.992,960.8
613.124,960.55
613.257,963.8
613.39,958.65
613.522,961.05
613.655,957.75
613.787,961.7
613.92,964.05
614.052,961.75
614.185,962.25
614.317,959.1
614.45,961.8
614.583,960.9
614.715,964.75
614.848,959.05
614.98,964.3
615.113,961.15
615.245,962.5
615.378,958.8
615.51,956.85
615.643,961.45
615.775,961.2
615.908,960.95
616.04,964.6
616.173,959.0
616.305,961.05
616.438,959.8
616.57,960.25
616.703,961.55
616.835,963.8
616.968,959.9
617.1,962.15
617.233,960.85
617.365,963.35
617.498,960.65
617.63,963.7
617.762,962.5
617.895,962.85
618.027,962.45
618.16,963.0
618.292,960.65
618.425,959.6
618.557,960.9
618.689,962.25
618.822,964.85
618.954,963.5
619.087,962.4
619.219,960.95
619.351,961.2
619.484,960.7
619.616,960.15
619.749,958.45
619.881,962.5
620.013,958.45
620.146,960.3
620.278,959.85
620.41,957.9
620.543,958.15
620.675,959.0
620.808,957.5
620.94,958.05
621.072,961.35
621.205,956.85
621.337,959.55
621.469,960.55
621.602,960.95
621.734,961.4
621.866,962.35
621.998,962.0
622.131,961.6
622.263,963.7
622.395,963.8
622.528,964.75
622.66,964.25
622.792,960.65
622.925,967.45
623.057,965.3
623.189,965.75
623.321,963.1
623.454,965.65
623.586,967.45
623.718,963.45
623.85,963.8
623.983,961.4
624.115,963.05
624.247,964.4
624.379,961.95
624.512,962.75
624.644,963.7
624.776,965.35
624.908,962.1
625.041,962.8
625.173,962.15
625.305,960.0
625.437,960.8
625.569,958.9
625.702,961.05
625.834,961.5
625.966,962.25
626.098,960.0
626.23,962.9
626.363,961.2
626.495,964.55
626.627,962.8
626.759,962.15
626.891,959.9
627.024,963.85
627.156,959.7
627.288,959.25
627.42,960.35
627.552,964.6
627.684,961.7
627.816,961.9
627.949,964.7
628.081,973.25
628.213,972.45
628.345,984.2
628.477,993.95
628.609,990.8
628.741,993.15
628.874,987.45
629.006,983.25
629.138,985.5
629.27,982.5
629.402,985.0
629.534,984.1
629.666,987.55
629.798,983.4
629.93,984.55
630.062,984.25
630.195,993.35
630.327,995.7
630.459,1001.85
630.591,1011.85
630.723,1033.4
630.855,1082.4
630.987,1128.9
631.119,1159.7
631.251,1157.25
631.383,1126.1
631.515,1088.3
631.647,1055.35
631.779,1036.6
631.911,1022.95
632.043,1013.0
632.175,1009.35
632.307,1005.6
632.439,1005.65
632.571,1000.8
632.703,1004.3
632.835,1008.65
632.967,1021.15
633.099,1029.2
633.231,1034.25
633.363,1041.55
633.495,1037.35
633.627,1029.5
633.759,1022.9
633.891,1008.5
634.023,1002.75
634.155,991.1
634.287,981.95
634.419,978.0
634.551,972.25
634.683,969.35
634.815,964.1
634.947,962.8
635.079,962.25
635.211,965.5
635.343,958.9
635.475,959.8
635.607,959.45
635.739,956.9
635.871,957.55
636.003,956.85
636.135,957.5
636.267,958.55
636.398,961.0
636.53,954.3
636.662,957.3
636.794,958.05
636.926,959.9
637.058,956.85
637.19,954.9
637.322,958.4
637.454,952.9
637.586,955.2
637.717,955.9
637.849,958.15
637.981,955.05
638.113,954.25
638.245,958.45
638.377,955.15
638.509,956.85
638.641,957.1
638.773,955.7
638.904,957.5
639.036,955.2
639.168,956.75
639.3,954.25
639.432,956.5
639.564,958.3
639.695,957.15
639.827,955.95
639.959,956.8
640.091,954.6
640.223,958.25
640.355,956.85
640.486,955.75
640.618,956.55
640.75,959.4
640.882,957.6
641.014,958.2
641.146,956.3
641.277,955.9
641.409,955.15
641.541,959.75
641.673,956.0
641.805,962.15
641.936,959.75
642.068,957.75
642.2,960.2
642.332,954.35
642.464,956.9
642.595,956.65
642.727,956.85
642.859,952.65
642.991,954.05
643.122,958.05
643.254,954.3
643.386,956.2
643.518,956.6
643.649,953.85
643.781,956.6
643.913,954.1
644.045,956.1
644.176,956.5
644.308,954.6
644.44,954.5
644.572,957.7
644.703,953.2
644.835,953.95
644.967,955.3
645.099,955.6
645.23,954.6
645.362,954.85
645.494,954.75
645.625,954.3
645.757,954.1
645.889,955.9
646.021,955.3
646.152,953.95
646.284,954.25
646.416,954.6
646.547,954.25
646.679,956.3
646.811,958.3
646.942,953.15
647.074,956.8
647.206,953.6
647.337,958.75
647.469,953.35
647.601,955.4
647.732,954.65
647.864,958.15
647.996,955.6
648.127,953.8
648.259,954.0
648.391,958.25
648.522,956.15
648.654,954.5
648.786,953.65
648.917,956.95
649.049,956.35
649.181,956.9
649.312,955.9
649.444,955.0
649.576,957.1
649.707,955.6
649.839,954.85
649.971,954.7
650.102,956.8
650.234,953.85
650.365,957.0
650.497,953.6
650.629,953.3
650.76,953.8
650.892,952.65
651.023,952.7
651.155,955.2
651.287,958.05
651.418,958.1
651.55,953.45
651.682,951.2
651.813,953.9
651.945,955.75
652.076,954.65
652.208,954.35
652.339,951.3
652.471,954.5
652.603,951.55
652.734,953.9
652.866,951.6
652.997,951.9
653.129,950.45
653.261,949.75
653.392,949.9
653.524,949.55
653.655,948.1
653.787,950.0
653.918,949.9
654.05,949.55
654.181,950.15
654.313,948.35
654.445,949.45
654.576,945.55
654.708,946.7
654.839,946.65
654.971,948.3
655.102,944.1
655.234,947.55
655.365,945.05
655.497,944.2
655.628,943.45
655.76,942.85
655.892,942.05
656.023,943.05
656.155,940.05
656.286,944.2
656.418,940.95
656.549,940.5
656.681,942.35
656.812,941.1
656.944,941.5
657.075,940.45
657.207,940.5
657.338,940.55
657.47,942.5
657.601,939.15
657.733,940.0
657.864,939.25
657.996,941.25
658.127,939.7
658.259,935.75
658.39,938.0
658.522,940.4
658.653,935.75
658.785,938.8
658.916,937.5
659.048,935.8
659.179,936.4
659.311,937.5
659.442,937.3
659.574,935.5
659.705,933.6
659.836,933.25
659.968,935.6
660.099,934.9
660.231,934.8
660.362,933.1
660.494,931.25
660.625,935.1
660.757,934.9
660.888,931.85
661.02,930.65
661.151,933.5
661.283,931.5
661.414,931.25
661.545,928.15
661.677,933.1
661.808,932.9
661.94,932.3
662.071,931.3
662.203,931.5
662.334,929.8
662.466,930.55
662.597,932.4
662.728,929.0
662.86,929.5
662.991,930.0
663.123,928.15