File: spectra/VLFR_02-HDPE_nobio_Raman_6ce42be9.csv
nm,Intensity
526.486,828.8
526.622,829.2
526.759,827.2
526.896,829.6
527.033,828.8
527.169,828.0
527.306,829.4
527.443,830.5
527.579,829.2
527.716,829.5
527.853,829.5
527.989,828.7
528.126,828.3
528.263,829.9
528.399,830.2
528.536,828.2
528.672,829.3
528.809,830.1
528.946,828.2
529.082,830.0
529.219,829.2
529.355,827.3
529.492,829.0
529.628,829.7
529.765,827.6
529.901,828.5
530.038,829.3
530.174,829.1
530.311,828.6
530.447,828.2
530.584,828.7
530.72,830.0
530.857,829.1
530.993,829.0
531.13,829.5
531.266,828.3
531.403,829.4
531.539,830.9
531.676,828.8
531.812,828.3
531.948,835.7
532.085,892.0
532.221,939.6
532.358,862.6
532.494,831.9
532.63,828.8
532.767,829.4
532.903,828.5
533.039,829.3
533.176,828.3
533.312,828.4
533.448,827.9
533.585,828.6
533.721,831.1
533.857,845.3
533.993,871.5
534.13,883.3
534.266,884.9
534.402,885.2
534.539,884.0
534.675,886.0
534.811,884.2
534.947,887.7
535.083,885.2
535.22,882.1
535.356,879.0
535.492,868.8
535.628,860.4
535.764,859.1
535.901,856.1
536.037,853.4
536.173,851.5
536.309,851.0
536.445,851.7
536.581,846.9
536.717,850.3
536.854,845.8
536.99,847.5
537.126,846.9
537.262,848.3
537.398,850.0
537.534,845.5
537.67,845.9
537.806,847.2
537.942,846.1
538.078,846.9
538.214,847.1
538.35,845.0
538.486,845.1
538.622,844.4
538.758,845.1
538.894,843.1
539.03,843.3
539.166,842.0
539.302,841.9
539.438,841.4
539.574,841.5
539.71,839.1
539.846,839.4
539.982,840.6
540.118,840.3
540.254,838.5
540.39,839.0
540.526,838.4
540.662,839.4
540.798,840.0
540.933,838.9
541.069,837.5
541.205,839.5
541.341,839.5
541.477,838.5
541.613,839.3
541.749,837.0
541.884,839.2
542.02,840.6
542.156,840.0
542.292,838.2
542.428,841.1
542.563,838.5
542.699,839.2
542.835,836.9
542.971,838.2
543.106,838.2
543.242,838.3
543.378,838.2
543.514,839.8
543.649,838.3
543.785,839.4
543.921,838.6
544.057,837.0
544.192,838.6
544.328,838.5
544.464,837.0
544.599,836.4
544.735,838.5
544.871,838.0
545.006,837.4
545.142,837.7
545.278,837.8
545.413,837.0
545.549,835.6
545.684,840.1
545.82,836.2
545.956,839.0
546.091,837.0
546.227,836.9
546.362,839.5
546.498,838.0
546.634,837.7
546.769,837.7
546.905,836.1
547.04,838.3
547.176,839.5
547.311,838.5
547.447,837.4
547.582,837.3
547.718,837.1
547.853,838.0
547.989,837.3
548.124,837.7
548.26,838.3
548.395,837.6
548.531,837.8
548.666,835.7
548.802,838.8
548.937,837.5
549.072,836.9
549.208,837.8
549.343,838.1
549.479,837.7
549.614,836.7
549.75,837.9
549.885,837.5
550.02,838.2
550.156,837.3
550.291,837.5
550.426,838.7
550.562,836.7
550.697,838.4
550.832,838.5
550.968,837.5
551.103,837.3
551.238,836.9
551.374,837.2
551.509,837.7
551.644,836.1
551.78,837.8
551.915,838.6
552.05,836.4
552.185,837.6
552.321,837.7
552.456,837.9
552.591,839.5
552.726,836.8
552.862,837.6
552.997,839.2
553.132,838.0
553.267,838.4
553.403,839.9
553.538,841.6
553.673,839.9
553.808,840.4
553.943,837.8
554.078,838.9
554.214,838.7
554.349,841.6
554.484,840.3
554.619,838.7
554.754,839.3
554.889,839.7
555.024,841.5
555.16,840.5
555.295,839.4
555.43,841.1
555.565,841.4
555.7,840.2
555.835,841.5
555.97,843.5
556.105,841.4
556.24,840.1
556.375,843.0
556.51,842.4
556.645,841.8
556.78,841.2
556.915,842.4
557.05,845.0
557.185,843.0
557.32,843.4
557.455,844.2
557.59,844.4
557.725,844.0
557.86,844.9
557.995,844.6
558.13,845.3
558.265,845.0
558.4,848.1
558.535,848.1
558.67,845.5
558.805,845.6
558.94,845.0
559.075,844.8
559.21,844.1
559.345,843.1
559.479,843.7
559.614,843.5
559.749,844.8
559.884,843.8
560.019,845.7
560.154,842.6
560.289,843.3
560.424,843.9
560.558,842.8
560.693,841.8
560.828,844.2
560.963,844.0
561.098,843.8
561.232,845.6
561.367,843.4
561.502,843.7
561.637,843.6
561.772,842.3
561.906,843.9
562.041,843.1
562.176,845.3
562.311,848.0
562.445,845.6
562.58,845.6
562.715,845.7
562.85,847.2
562.984,847.2
563.119,846.5
563.254,846.5
563.388,847.4
563.523,850.8
563.658,852.4
563.792,864.8
563.927,905.4
564.062,963.7
564.196,932.1
564.331,880.5
564.466,868.5
564.6,865.3
564.735,862.7
564.87,862.5
565.004,859.5
565.139,856.8
565.273,856.0
565.408,855.0
565.543,853.5
565.677,855.0
565.812,859.3
565.946,874.6
566.081,914.9
566.215,971.9
566.35,931.5
566.485,874.5
566.619,856.8
566.754,851.2
566.888,849.7
567.023,850.1
567.157,849.8
567.292,853.7
567.426,864.8
567.561,873.4
567.695,856.4
567.83,849.8
567.964,848.5
568.099,845.4
568.233,846.2
568.368,845.8
568.502,845.9
568.636,846.5
568.771,846.3
568.905,848.3
569.04,845.8
569.174,848.5
569.309,846.5
569.443,848.5
569.577,844.0
569.712,847.6
569.846,846.1
569.98,850.4
570.115,847.5
570.249,848.8
570.384,848.8
570.518,850.1
570.652,854.5
570.787,856.6
570.921,853.0
571.055,857.5
571.19,857.8
571.324,870.7
571.458,942.5
571.592,1053.4
571.727,973.0
571.861,888.9
571.995,873.8
572.13,868.6
572.264,862.9
572.398,856.2
572.532,854.1
572.667,849.3
572.801,848.4
572.935,848.3
573.069,849.8
573.204,846.7
573.338,848.5
573.472,849.2
573.606,850.2
573.74,850.6
573.875,854.7
574.009,860.0
574.143,857.4
574.277,853.0
574.411,849.2
574.545,845.9
574.68,849.3
574.814,847.6
574.948,849.0
575.082,848.8
575.216,851.2
575.35,859.8
575.484,891.2
575.619,920.9
575.753,896.8
575.887,882.8
576.021,899.2
576.155,934.9
576.289,1000.7
576.423,1008.3
576.557,959.8
576.691,930.8
576.825,925.7
576.959,938.4
577.093,944.1
577.227,933.7
577.361,910.1
577.495,886.9
577.629,868.2
577.763,862.3
577.897,861.3
578.031,858.2
578.165,855.7
578.299,855.1
578.433,852.4
578.567,850.6
578.701,852.7
578.835,851.8
578.969,851.4
579.103,851.8
579.237,849.9
579.371,850.9
579.505,852.7
579.639,852.3
579.773,851.6
579.907,852.6
580.041,850.7
580.175,851.2
580.309,852.2
580.442,851.1
580.576,853.0
580.71,850.6
580.844,852.2
580.978,852.8
581.112,852.5
581.246,852.8
581.38,850.4
581.513,851.1
581.647,853.0
581.781,852.8
581.915,851.0
582.049,851.4
582.183,851.7
582.316,853.3
582.45,852.7
582.584,853.7
582.718,852.8
582.852,854.1
582.985,854.5
583.119,853.2
583.253,853.6
583.387,854.0
583.52,855.1
583.654,855.2
583.788,854.9
583.922,855.2
584.055,855.5
584.189,854.8
584.323,856.1
584.456,856.0
584.59,856.8
584.724,858.3
584.858,857.5
584.991,857.7
585.125,858.2
585.259,860.4
585.392,860.7
585.526,857.5
585.66,860.9
585.793,861.0
585.927,864.0
586.061,861.4
586.194,862.1
586.328,861.0
586.462,864.3
586.595,862.9
586.729,865.7
586.862,864.8
586.996,870.5
587.13,867.7
587.263,869.9
587.397,867.9
587.53,869.8
587.664,869.5
587.797,872.4
587.931,870.7
588.065,874.4
588.198,874.7
588.332,875.4
588.465,872.0
588.599,874.4
588.732,876.1
588.866,881.2
588.999,880.6
589.133,877.6
589.266,879.8
589.4,877.4
589.533,881.3
589.667,883.2
589.8,883.4
589.934,885.3
590.067,885.1
590.201,886.0
590.334,888.7
590.468,886.7
590.601,888.1
590.735,889.6
590.868,889.6
591.001,889.7
591.135,890.6
591.268,894.3
591.402,895.4
591.535,895.6
591.669,895.7
591.802,896.7
591.935,894.0
592.069,894.8
592.202,893.5
592.335,896.7
592.469,896.7
592.602,899.3
592.736,901.2
592.869,902.0
593.002,901.4
593.136,897.3
593.269,903.0
593.402,902.6
593.536,900.4
593.669,904.9
593.802,902.9
593.936,901.2
594.069,906.7
594.202,902.0
594.336,904.2
594.469,904.7
594.602,910.2
594.735,907.2
594.869,910.6
595.002,913.9
595.135,911.3
595.268,912.5
595.402,915.5
595.535,912.6
595.668,916.6
595.801,915.5
595.935,914.3
596.068,912.6
596.201,914.0
596.334,912.7
596.468,916.4
596.601,913.7
596.734,918.4
596.867,918.4
597.0,919.3
597.133,920.8
597.267,922.1
597.4,922.5
597.533,920.4
597.666,919.0
597.799,922.4
597.932,923.5
598.066,922.6
598.199,921.8
598.332,924.7
598.465,925.8
598.598,925.8
598.731,925.7
598.864,925.5
598.998,928.3
599.131,926.1
599.264,926.8
599.397,928.3
599.53,928.9
599.663,925.8
599.796,923.7
599.929,929.7
600.062,929.4
600.195,931.3
600.328,923.5
600.461,928.1
600.594,933.2
600.727,929.3
600.86,930.2
600.994,932.2
601.127,930.5
601.26,931.7
601.393,931.4
601.526,929.7
601.659,928.6
601.792,932.4
601.925,928.2
602.058,933.1
602.191,934.2
602.324,928.8
602.457,929.3
602.589,933.2
602.722,926.6
602.855,926.4
602.988,928.0
603.121,926.7
603.254,921.9
603.387,926.0
603.52,927.6
603.653,924.3
603.786,927.4
603.919,923.0
604.052,923.5
604.185,923.1
604.318,920.1
604.451,922.4
604.583,920.1
604.716,925.3
604.849,917.7
604.982,916.2
605.115,924.1
605.248,915.8
605.381,913.5
605.514,912.2
605.646,915.5
605.779,912.3
605.912,911.3
606.045,911.8
606.178,912.4
606.311,911.0
606.443,909.2
606.576,911.0
606.709,907.2
606.842,908.1
606.975,906.1
607.107,903.1
607.24,904.9
607.373,906.6
607.506,904.5
607.639,904.6
607.771,903.5
607.904,902.1
608.037,901.3
608.17,903.2
608.302,903.4
608.435,901.7
608.568,900.7
608.701,900.2
608.833,901.7
608.966,899.4
609.099,905.4
609.232,899.3
609.364,900.1
609.497,900.3
609.63,899.8
609.762,897.5
609.895,897.6
610.028,901.0
610.161,897.0
610.293,897.3
610.426,900.3
610.559,898.4
610.691,902.8
610.824,900.5
610.957,899.3
611.089,899.3
611.222,899.9
611.355,895.8
611.487,897.9
611.62,896.2
611.752,897.9
611.885,895.6
612.018,894.0
612.15,895.0
612.283,892.7
612.416,895.8
612.548,893.6
612.681,894.0
612.813,894.6
612.946,894.9
613.078,894.0
613.211,890.6
613.344,893.7
613.476,894.0
613.609,896.4
613.741,892.6
613.874,895.4
614.006,893.0
614.139,892.8
614.272,892.5
614.404,889.9
614.537,894.6
614.669,891.5
614.802,890.2
614.934,892.1
615.067,893.6
615.199,891.6
615.332,894.7
615.464,890.7
615.597,894.3
615.729,889.8
615.862,888.6
615.994,890.7
616.127,892.4
616.259,892.5
616.392,891.1
616.524,892.4
616.657,894.9
616.789,893.2
616.922,896.8
617.054,899.1
617.186,897.8
617.319,902.1
617.451,896.5
617.584,898.1
617.716,900.0
617.849,899.4
617.981,899.2
618.113,899.0
618.246,895.4
618.378,899.3
618.511,898.0
618.643,896.9
618.775,894.4
618.908,895.6
619.04,893.5
619.173,899.7
619.305,894.9
619.437,896.1
619.57,900.7
619.702,900.2
619.834,900.1
619.967,899.1
620.099,897.3
620.231,898.7
620.364,897.2
620.496,896.2
620.628,897.4
620.761,901.4
620.893,900.3
621.025,900.9
621.158,905.3
621.29,906.5
621.422,913.9
621.555,919.1
621.687,928.0
621.819,927.0
621.952,936.2
622.084,947.5
622.216,957.7
622.348,960.9
622.481,957.7
622.613,948.9
622.745,932.9
622.878,924.8
623.01,909.2
623.142,910.6
623.274,904.4
623.407,903.4
623.539,900.4
623.671,899.8
623.803,895.7
623.935,896.8
624.068,894.3
624.2,894.6
624.332,893.8
624.464,895.2
624.597,897.4
624.729,895.8
624.861,895.1
624.993,899.8
625.125,894.8
625.258,900.5
625.39,897.4
625.522,901.5
625.654,906.1
625.786,910.3
625.918,911.4
626.051,917.1
626.183,924.5
626.315,939.5
626.447,964.2
626.579,1007.9
626.711,1102.6
626.844,1240.0
626.976,1451.6
627.108,1696.0
627.24,1857.0
627.372,1829.0
627.504,1700.8
627.636,1560.9
627.768,1480.9
627.901,1415.5
628.033,1386.4
628.165,1406.2
628.297,1475.2
628.429,1693.2
628.561,2024.3
628.693,1963.6
628.825,1580.7
628.957,1410.3
629.089,1361.7
629.221,1335.3
629.354,1310.9
629.486,1277.2
629.618,1240.9
629.75,1200.7
629.882,1176.7
630.014,1151.8
630.146,1141.8
630.278,1141.3
630.41,1137.0
630.542,1121.7
630.674,1099.8
630.806,1070.1
630.938,1037.2
631.07,995.3
631.202,959.3
631.334,938.0
631.466,918.0
631.598,912.8
631.73,906.9
631.862,902.2
631.994,901.4
632.126,897.0
632.258,897.6
632.39,893.5
632.522,893.5
632.654,887.5
632.786,888.2
632.918,891.5
633.05,890.8
633.182,887.5
633.314,886.3
633.446,886.1
633.578,884.2
633.71,881.4
633.842,885.6
633.974,881.6
634.106,882.1
634.237,879.9
634.369,878.3
634.501,880.5
634.633,881.1
634.765,876.3
634.897,878.5
635.029,876.7
635.161,875.5
635.293,874.3
635.425,877.1
635.557,875.0
635.689,874.3
635.82,878.0
635.952,875.2
636.084,876.7
636.216,877.9
636.348,876.2
636.48,874.9
636.612,873.5
636.744,875.8
636.875,877.3
637.007,873.6
637.139,875.0
637.271,874.0
637.403,873.6
637.535,872.8
637.667,872.4
637.798,871.8
637.93,869.8
638.062,872.6
638.194,873.4
638.326,871.7
638.458,868.2
638.589,869.2
638.721,870.8
638.853,872.5
638.985,873.4
639.117,873.9
639.248,872.4
639.38,872.4
639.512,872.0
639.644,871.7
639.776,873.7
639.907,872.6
640.039,873.5
640.171,872.7
640.303,873.8
640.435,872.8
640.566,872.7
640.698,872.3
640.83,871.7
640.962,876.1
641.093,873.3
641.225,871.3
641.357,875.1
641.489,873.2
641.62,874.4
641.752,874.4
641.884,874.4
642.016,877.1
642.147,876.5
642.279,875.6
642.411,874.2
642.543,874.7
642.674,873.4
642.806,875.8
642.938,874.3
643.069,876.2
643.201,876.3
643.333,877.9
643.465,877.1
643.596,877.3
643.728,872.2
643.86,877.1
643.991,877.6
644.123,875.3
644.255,877.3
644.386,875.5
644.518,876.7
644.65,876.6
644.781,879.1
644.913,877.9
645.045,878.2
645.176,876.6
645.308,876.8
645.44,876.9
645.571,879.4
645.703,877.5
645.835,877.3
645.966,879.5
646.098,879.3
646.23,881.2
646.361,878.7
646.493,879.9
646.625,878.7
646.756,876.3
646.888,880.0
647.019,879.1
647.151,878.6
647.283,878.4
647.414,881.3
647.546,879.4
647.678,884.0
647.809,878.8
647.941,883.1
648.072,881.0
648.204,880.4
648.336,881.3
648.467,880.7
648.599,875.2
648.73,881.7
648.862,879.9
648.993,879.6
649.125,879.7
649.257,878.1
649.388,883.1
649.52,879.9
649.651,879.3
649.783,882.9
649.914,881.6
650.046,881.0
650.178,879.9
650.309,881.0
650.441,878.8
650.572,880.3
650.704,883.2
650.835,879.0
650.967,881.9
651.098,880.5
651.23,880.5
651.361,880.3
651.493,881.4
651.625,882.0
651.756,880.9
651.888,882.2
652.019,882.2
652.151,880.5
652.282,882.8
652.414,882.6
652.545,882.8
652.677,886.2
652.808,881.4
652.94,881.4
653.071,881.0
653.203,881.2
653.334,880.9
653.466,880.6
653.597,880.9
653.729,879.7
653.86,880.1
653.992,878.8
654.123,880.7
654.255,880.8
654.386,879.0
654.518,881.0
654.649,879.6
654.78,881.1
654.912,878.5
655.043,878.0
655.175,878.0
655.306,880.9
655.438,880.0
655.569,876.5
655.701,877.2
655.832,881.7
655.964,879.4
656.095,879.9
656.226,881.0
656.358,878.4
656.489,875.1
656.621,878.8
656.752,878.3
656.884,876.3
657.015,875.5
657.146,878.4
657.278,878.7
657.409,877.8
657.541,876.4
657.672,875.5
657.804,878.5
657.935,874.5
658.066,879.2
658.198,878.6
658.329,876.5
658.461,875.3
658.592,876.0
658.723,874.8
658.855,875.4
658.986,877.0
659.118,875.4
659.249,876.5
659.38,878.3
659.512,874.0
659.643,876.6
659.774,877.5
659.906,877.2
660.037,876.8
660.169,878.4
660.3,874.7
660.431,874.5
660.563,872.8
660.694,873.3
660.825,870.6
660.957,870.7
661.088,871.5
661.22,872.4
661.351,869.2
661.482,867.2
661.614,867.5
661.745,870.4
661.876,867.1
662.008,867.4
662.139,868.3
662.27,865.8
662.402,866.0
662.533,868.1
662.664,867.2
662.796,867.7
662.927,865.0
663.058,867.1