File: spectra/VLFR_06-PET_nobio_Raman_e83e465c.csv
nm,Intensity
526.547,832.3
526.683,833.0
526.82,833.5
526.957,833.0
527.094,831.7
527.23,833.6
527.367,831.4
527.504,831.9
527.641,833.7
527.777,832.7
527.914,833.2
528.051,832.1
528.188,831.9
528.324,832.1
528.461,831.3
528.598,832.6
528.734,832.9
528.871,831.8
529.008,833.5
529.144,832.8
529.281,832.8
529.417,832.6
529.554,832.1
529.691,832.9
529.827,833.6
529.964,832.3
530.1,833.4
530.237,832.7
530.373,833.6
530.51,831.6
530.647,833.0
530.783,833.0
530.92,832.5
531.056,833.6
531.193,832.8
531.329,831.9
531.466,834.5
531.602,831.9
531.738,832.1
531.875,830.3
532.011,839.2
532.148,859.3
532.284,856.6
532.421,836.0
532.557,834.0
532.693,832.5
532.83,832.8
532.966,832.5
533.103,831.9
533.239,832.0
533.375,831.9
533.512,834.8
533.648,848.3
533.784,941.2
533.921,1271.6
534.057,1646.0
534.193,1750.9
534.33,1679.0
534.466,1598.8
534.602,1542.6
534.738,1477.4
534.875,1408.4
535.011,1346.8
535.147,1288.0
535.283,1239.7
535.42,1196.7
535.556,1165.9
535.692,1135.2
535.828,1112.3
535.964,1082.1
536.101,1051.3
536.237,1034.6
536.373,1014.9
536.509,1010.8
536.645,1005.6
536.781,987.8
536.917,991.1
537.054,986.2
537.19,987.3
537.326,984.2
537.462,982.4
537.598,985.1
537.734,990.8
537.87,994.9
538.006,1006.2
538.142,1003.0
538.278,1006.1
538.414,998.2
538.55,990.9
538.686,985.8
538.822,978.4
538.958,978.2
539.094,979.8
539.23,977.5
539.366,978.4
539.502,984.3
539.638,993.6
539.774,1001.3
539.91,999.6
540.046,995.6
540.182,988.6
540.318,980.3
540.454,968.3
540.59,964.9
540.726,964.9
540.862,962.3
540.997,958.3
541.133,957.0
541.269,958.9
541.405,952.2
541.541,951.2
541.677,953.6
541.812,951.2
541.948,956.2
542.084,953.8
542.22,957.7
542.356,962.1
542.492,960.8
542.627,958.2
542.763,959.6
542.899,957.5
543.035,957.6
543.17,956.3
543.306,958.4
543.442,957.8
543.578,961.9
543.713,960.8
543.849,966.0
543.985,965.5
544.12,962.8
544.256,960.7
544.392,966.0
544.527,960.8
544.663,965.3
544.799,965.1
544.934,969.7
545.07,968.8
545.206,973.0
545.341,981.6
545.477,1007.9
545.612,1052.3
545.748,1059.2
545.884,1017.1
546.019,993.7
546.155,982.4
546.29,980.9
546.426,975.6
546.562,980.0
546.697,981.0
546.833,976.2
546.968,981.1
547.104,979.8
547.239,980.0
547.375,976.6
547.51,976.9
547.646,981.3
547.781,981.8
547.917,976.3
548.052,979.4
548.188,979.2
548.323,979.0
548.458,977.9
548.594,982.1
548.729,983.9
548.865,979.4
549.0,984.8
549.136,985.8
549.271,983.5
549.406,985.3
549.542,984.5
549.677,985.6
549.812,987.0
549.948,985.0
550.083,991.7
550.219,989.4
550.354,993.7
550.489,1007.2
550.625,1075.3
550.76,1120.3
550.895,1036.5
551.03,999.4
551.166,1002.3
551.301,995.3
551.436,995.2
551.572,998.9
551.707,992.6
551.842,998.4
551.977,998.7
552.113,1004.5
552.248,1000.4
552.383,1005.4
552.518,1005.6
552.654,1019.9
552.789,1033.9
552.924,1054.4
553.059,1035.7
553.194,1010.3
553.329,1013.1
553.465,1009.7
553.6,1012.0
553.735,1012.7
553.87,1010.2
554.005,1013.6
554.14,1014.1
554.276,1012.0
554.411,1017.6
554.546,1015.0
554.681,1013.1
554.816,1018.6
554.951,1016.0
555.086,1020.9
555.221,1022.7
555.356,1033.0
555.491,1042.2
555.626,1064.2
555.761,1074.7
555.896,1061.6
556.031,1062.8
556.167,1066.8
556.302,1067.7
556.437,1075.0
556.572,1076.7
556.707,1075.8
556.842,1077.7
556.977,1082.0
557.112,1094.1
557.246,1119.0
557.381,1152.5
557.516,1196.1
557.651,1216.0
557.786,1175.5
557.921,1120.7
558.056,1102.6
558.191,1091.6
558.326,1095.8
558.461,1102.6
558.596,1095.5
558.731,1088.7
558.866,1080.2
559.0,1078.3
559.135,1057.0
559.27,1058.4
559.405,1055.2
559.54,1049.0
559.675,1050.8
559.81,1055.5
559.944,1047.8
560.079,1052.5
560.214,1050.6
560.349,1053.4
560.484,1054.8
560.618,1055.3
560.753,1062.5
560.888,1061.1
561.023,1063.3
561.158,1059.2
561.292,1063.8
561.427,1063.3
561.562,1070.5
561.697,1064.8
561.831,1069.2
561.966,1071.2
562.101,1073.9
562.235,1078.3
562.37,1079.5
562.505,1082.7
562.64,1081.5
562.774,1087.2
562.909,1089.5
563.044,1092.9
563.178,1093.0
563.313,1092.1
563.448,1098.8
563.582,1096.4
563.717,1094.2
563.852,1092.9
563.986,1089.8
564.121,1089.6
564.255,1092.8
564.39,1093.9
564.525,1100.3
564.659,1111.6
564.794,1111.7
564.928,1120.6
565.063,1138.9
565.198,1146.8
565.332,1163.8
565.467,1173.5
565.601,1180.7
565.736,1194.3
565.87,1207.8
566.005,1191.6
566.139,1182.5
566.274,1159.1
566.408,1137.5
566.543,1132.0
566.677,1119.4
566.812,1114.8
566.946,1105.3
567.081,1112.2
567.215,1109.4
567.35,1116.5
567.484,1134.1
567.619,1161.8
567.753,1175.7
567.887,1163.3
568.022,1141.9
568.156,1127.4
568.291,1119.3
568.425,1121.1
568.56,1119.2
568.694,1119.6
568.828,1117.8
568.963,1119.9
569.097,1124.6
569.231,1121.8
569.366,1133.4
569.5,1132.0
569.635,1133.6
569.769,1145.1
569.903,1151.2
570.038,1156.2
570.172,1159.6
570.306,1165.8
570.441,1191.4
570.575,1214.6
570.709,1233.5
570.843,1249.7
570.978,1285.6
571.112,1321.6
571.246,1346.5
571.381,1364.8
571.515,1348.6
571.649,1315.7
571.783,1275.9
571.918,1257.5
572.052,1239.3
572.186,1220.6
572.32,1200.7
572.455,1185.3
572.589,1173.9
572.723,1162.5
572.857,1163.2
572.991,1161.1
573.126,1158.8
573.26,1156.4
573.394,1157.1
573.528,1158.8
573.662,1162.6
573.796,1163.9
573.931,1183.0
574.065,1190.9
574.199,1182.3
574.333,1182.3
574.467,1173.7
574.601,1174.5
574.735,1171.7
574.869,1175.3
575.004,1185.3
575.138,1186.2
575.272,1203.5
575.406,1215.0
575.54,1200.1
575.674,1190.3
575.808,1187.2
575.942,1179.4
576.076,1184.3
576.21,1200.9
576.344,1208.4
576.478,1210.9
576.612,1214.3
576.746,1217.2
576.88,1218.4
577.014,1206.6
577.148,1197.0
577.282,1198.2
577.416,1191.9
577.55,1185.8
577.684,1191.9
577.818,1189.0
577.952,1182.1
578.086,1194.7
578.22,1196.4
578.354,1189.7
578.488,1194.0
578.622,1199.1
578.756,1204.0
578.89,1193.0
579.024,1198.7
579.158,1202.8
579.292,1207.0
579.426,1202.7
579.559,1199.0
579.693,1207.7
579.827,1210.1
579.961,1202.9
580.095,1206.5
580.229,1209.8
580.363,1209.3
580.497,1217.6
580.63,1216.3
580.764,1221.7
580.898,1219.1
581.032,1227.1
581.166,1230.1
581.3,1224.3
581.433,1241.6
581.567,1267.5
581.701,1309.2
581.835,1408.1
581.969,1600.4
582.102,1952.6
582.236,2154.7
582.37,1802.1
582.504,1431.9
582.637,1296.8
582.771,1264.7
582.905,1246.1
583.039,1240.0
583.172,1237.9
583.306,1240.4
583.44,1242.6
583.574,1231.3
583.707,1236.2
583.841,1237.5
583.975,1247.9
584.108,1248.3
584.242,1249.3
584.376,1248.1
584.51,1250.7
584.643,1256.7
584.777,1258.2
584.911,1261.6
585.044,1270.3
585.178,1289.5
585.312,1304.5
585.445,1358.9
585.579,1464.5
585.712,1593.6
585.846,1692.1
585.98,1739.8
586.113,1722.0
586.247,1673.6
586.381,1593.9
586.514,1503.0
586.648,1415.2
586.781,1355.9
586.915,1319.3
587.048,1301.0
587.182,1293.2
587.316,1278.8
587.449,1276.6
587.583,1278.8
587.716,1273.5
587.85,1269.7
587.983,1266.7
588.117,1258.5
588.25,1268.6
588.384,1262.8
588.517,1265.0
588.651,1265.5
588.784,1265.4
588.918,1265.0
589.051,1264.0
589.185,1265.8
589.318,1263.2
589.452,1271.0
589.585,1274.3
589.719,1261.9
589.852,1267.1
589.986,1266.5
590.119,1269.4
590.253,1268.3
590.386,1270.6
590.519,1270.1
590.653,1270.8
590.786,1271.6
590.92,1275.8
591.053,1273.6
591.187,1271.4
591.32,1277.1
591.453,1285.2
591.587,1266.0
591.72,1274.7
591.853,1282.3
591.987,1280.7
592.12,1276.6
592.254,1272.9
592.387,1274.3
592.52,1280.0
592.654,1280.0
592.787,1274.6
592.92,1281.6
593.054,1277.3
593.187,1273.4
593.32,1280.7
593.454,1282.0
593.587,1274.8
593.72,1280.3
593.853,1278.9
593.987,1279.4
594.12,1281.7
594.253,1282.5
594.387,1276.7
594.52,1279.3
594.653,1283.1
594.786,1281.0
594.92,1283.9
595.053,1289.7
595.186,1289.8
595.319,1286.3
595.453,1287.1
595.586,1289.6
595.719,1294.4
595.852,1283.9
595.985,1288.6
596.119,1288.7
596.252,1288.3
596.385,1291.1
596.518,1290.5
596.651,1297.0
596.785,1286.1
596.918,1297.4
597.051,1294.7
597.184,1283.6
597.317,1292.7
597.45,1295.6
597.584,1295.0
597.717,1294.6
597.85,1293.8
597.983,1291.1
598.116,1301.8
598.249,1294.2
598.382,1295.9
598.516,1290.0
598.649,1294.8
598.782,1299.2
598.915,1304.2
599.048,1304.7
599.181,1300.0
599.314,1305.5
599.447,1302.0
599.58,1306.2
599.713,1299.8
599.846,1305.1
599.979,1299.3
600.113,1304.8
600.246,1299.2
600.379,1296.6
600.512,1297.7
600.645,1295.9
600.778,1300.4
600.911,1293.3
601.044,1301.8
601.177,1295.7
601.31,1301.3
601.443,1301.9
601.576,1297.9
601.709,1292.1
601.842,1301.5
601.975,1291.3
602.108,1295.6
602.241,1299.3
602.374,1303.4
602.507,1298.8
602.64,1306.8
602.773,1301.3
602.905,1305.1
603.038,1298.6
603.171,1300.4
603.304,1300.5
603.437,1300.9
603.57,1304.5
603.703,1295.6
603.836,1306.9
603.969,1302.9
604.102,1306.2
604.235,1302.0
604.368,1304.3
604.501,1299.9
604.633,1295.4
604.766,1293.8
604.899,1300.1
605.032,1294.0
605.165,1298.4
605.298,1287.1
605.431,1296.5
605.563,1290.1
605.696,1288.8
605.829,1285.8
605.962,1285.5
606.095,1285.9
606.228,1277.0
606.36,1291.1
606.493,1299.7
606.626,1285.2
606.759,1285.3
606.892,1290.9
607.025,1292.7
607.157,1288.0
607.29,1302.2
607.423,1302.8
607.556,1293.6
607.688,1295.4
607.821,1294.6
607.954,1299.2
608.087,1292.4
608.219,1286.6
608.352,1300.4
608.485,1303.6
608.618,1304.1
608.75,1296.2
608.883,1295.9
609.016,1299.0
609.149,1305.3
609.281,1299.0
609.414,1302.5
609.547,1301.4
609.68,1303.4
609.812,1313.0
609.945,1299.1
610.078,1298.6
610.21,1296.8
610.343,1300.8
610.476,1299.2
610.608,1296.3
610.741,1307.9
610.874,1298.5
611.006,1296.8
611.139,1299.5
611.272,1297.3
611.404,1307.8
611.537,1297.4
611.67,1306.4
611.802,1299.1
611.935,1303.1
612.067,1298.6
612.2,1305.7
612.333,1311.7
612.465,1304.4
612.598,1315.9
612.731,1314.1
612.863,1320.6
612.996,1313.8
613.128,1327.4
613.261,1316.5
613.393,1320.9
613.526,1319.7
613.659,1317.2
613.791,1323.8
613.924,1321.5
614.056,1327.0
614.189,1325.9
614.321,1320.5
614.454,1325.1
614.586,1332.9
614.719,1322.0
614.852,1334.0
614.984,1326.4
615.117,1318.3
615.249,1321.4
615.382,1322.2
615.514,1335.2
615.647,1324.3
615.779,1329.6
615.912,1324.2
616.044,1329.7
616.177,1329.9
616.309,1325.0
616.442,1335.2
616.574,1332.1
616.707,1333.7
616.839,1330.7
616.971,1331.6
617.104,1326.1
617.236,1340.7
617.369,1337.8
617.501,1339.8
617.634,1340.1
617.766,1341.0
617.899,1348.8
618.031,1352.6
618.163,1339.5
618.296,1352.9
618.428,1350.0
618.561,1360.8
618.693,1352.5
618.826,1352.4
618.958,1336.5
619.09,1349.0
619.223,1351.7
619.355,1340.0
619.487,1351.4
619.62,1342.6
619.752,1346.5
619.885,1349.3
620.017,1343.2
620.149,1332.3
620.282,1347.4
620.414,1342.8
620.546,1347.6
620.679,1347.3
620.811,1341.9
620.943,1356.5
621.076,1344.1
621.208,1346.1
621.34,1345.9
621.473,1355.4
621.605,1344.3
621.737,1349.7
621.87,1347.4
622.002,1346.1
622.134,1348.9
622.267,1355.8
622.399,1353.0
622.531,1357.4
622.663,1354.7
622.796,1354.5
622.928,1359.4
623.06,1364.9
623.193,1362.8
623.325,1364.8
623.457,1367.2
623.589,1369.0
623.722,1371.1
623.854,1376.7
623.986,1368.3
624.118,1377.7
624.251,1366.4
624.383,1371.9
624.515,1382.0
624.647,1369.4
624.78,1385.9
624.912,1386.8
625.044,1377.5
625.176,1377.9
625.308,1378.0
625.441,1372.1
625.573,1380.8
625.705,1387.3
625.837,1385.2
625.969,1384.9
626.102,1378.7
626.234,1376.4
626.366,1373.2
626.498,1382.3
626.63,1378.6
626.762,1381.8
626.895,1385.3
627.027,1383.9
627.159,1387.0
627.291,1386.6
627.423,1381.7
627.555,1382.4
627.687,1387.8
627.82,1387.2
627.952,1396.7
628.084,1403.5
628.216,1400.9
628.348,1403.2
628.48,1411.8
628.612,1420.0
628.744,1424.7
628.877,1425.4
629.009,1428.3
629.141,1435.8
629.273,1429.7
629.405,1427.3
629.537,1437.9
629.669,1434.5
629.801,1436.3
629.933,1426.2
630.065,1419.2
630.197,1426.4
630.33,1423.8
630.462,1437.0
630.594,1436.4
630.726,1444.8
630.858,1458.5
630.99,1464.2
631.122,1487.7
631.254,1518.5
631.386,1551.0
631.518,1564.2
631.65,1594.2
631.782,1600.1
631.914,1595.1
632.046,1592.5
632.178,1577.0
632.31,1553.0
632.442,1527.3
632.574,1521.8
632.706,1509.8
632.838,1501.8
632.97,1508.3
633.102,1497.6
633.234,1501.2
633.366,1502.1
633.498,1504.6
633.63,1492.8
633.762,1479.9
633.894,1486.5
634.026,1476.3
634.158,1475.8
634.29,1461.4
634.422,1464.9
634.554,1466.7
634.686,1453.6
634.818,1466.1
634.95,1460.8
635.082,1464.6
635.214,1464.5
635.346,1476.7
635.477,1477.9
635.609,1491.2
635.741,1508.0
635.873,1513.7
636.005,1558.5
636.137,1558.0
636.269,1592.5
636.401,1637.6
636.533,1666.4
636.665,1663.6
636.797,1648.5
636.929,1604.4
637.06,1566.7
637.192,1528.7
637.324,1509.7
637.456,1518.9
637.588,1501.5
637.72,1500.1
637.852,1487.8
637.984,1481.2
638.115,1487.1
638.247,1478.4
638.379,1486.9
638.511,1488.9
638.643,1480.7
638.775,1489.1
638.907,1476.6
639.039,1477.2
639.17,1475.6
639.302,1492.5
639.434,1480.9
639.566,1495.2
639.698,1491.7
639.83,1494.8
639.961,1481.2
640.093,1489.3
640.225,1490.1
640.357,1489.6
640.489,1482.8
640.62,1494.5
640.752,1491.9
640.884,1507.3
641.016,1498.5
641.148,1496.6
641.279,1505.2
641.411,1488.5
641.543,1499.2
641.675,1507.5
641.807,1512.3
641.938,1501.0
642.07,1505.5
642.202,1516.9
642.334,1513.9
642.466,1510.3
642.597,1513.9
642.729,1518.7
642.861,1512.6
642.993,1500.0
643.124,1501.3
643.256,1502.2
643.388,1500.9
643.52,1501.3
643.651,1497.7
643.783,1504.3
643.915,1499.5
644.047,1495.1
644.178,1503.7
644.31,1500.5
644.442,1504.4
644.574,1505.4
644.705,1500.1
644.837,1501.4
644.969,1504.6
645.1,1507.2
645.232,1504.9
645.364,1499.3
645.496,1499.4
645.627,1503.4
645.759,1504.8
645.891,1504.3
646.022,1513.4
646.154,1503.8
646.286,1517.3
646.417,1517.0
646.549,1512.6
646.681,1512.5
646.812,1520.3
646.944,1517.3
647.076,1517.6
647.207,1523.4
647.339,1523.9
647.471,1518.5
647.602,1536.0
647.734,1522.5
647.866,1524.4
647.997,1533.0
648.129,1521.7
648.261,1519.2
648.392,1532.2
648.524,1525.5
648.656,1519.0
648.787,1517.5
648.919,1528.9
649.051,1515.8
649.182,1519.1
649.314,1515.3
649.446,1520.9
649.577,1523.0
649.709,1519.2
649.84,1524.4
649.972,1517.3
650.104,1529.3
650.235,1523.1
650.367,1528.0
650.498,1517.3
650.63,1524.8
650.762,1513.2
650.893,1528.1
651.025,1524.1
651.157,1524.3
651.288,1523.8
651.42,1528.4
651.551,1522.4
651.683,1522.6
651.814,1523.0
651.946,1526.5
652.078,1526.8
652.209,1526.6
652.341,1534.9
652.472,1527.7
652.604,1533.8
652.736,1525.3
652.867,1538.5
652.999,1537.5
653.13,1517.1
653.262,1521.9
653.393,1531.1
653.525,1536.3
653.656,1543.7
653.788,1529.5
653.92,1537.1
654.051,1536.8
654.183,1525.1
654.314,1534.9
654.446,1529.9
654.577,1528.1
654.709,1534.6
654.84,1537.1
654.972,1527.5
655.103,1538.5
655.235,1530.3
655.366,1522.4
655.498,1534.8
655.63,1541.1
655.761,1533.4
655.893,1532.4
656.024,1523.8
656.156,1544.1
656.287,1535.2
656.419,1541.3
656.55,1533.8
656.682,1525.1
656.813,1534.6
656.945,1533.2
657.076,1535.9
657.208,1539.7
657.339,1538.4
657.471,1539.2
657.602,1540.0
657.734,1536.6
657.865,1536.2
657.997,1542.0
658.128,1543.9
658.26,1535.1
658.391,1540.4
658.522,1542.0
658.654,1526.9
658.785,1541.3
658.917,1538.1
659.048,1535.6
659.18,1533.3
659.311,1544.0
659.443,1536.8
659.574,1527.8
659.706,1525.5
659.837,1534.1
659.969,1533.2
660.1,1529.1
660.232,1533.3
660.363,1534.9
660.494,1520.2
660.626,1532.9
660.757,1529.5
660.889,1525.7
661.02,1531.9
661.152,1542.5
661.283,1530.4
661.415,1521.1
661.546,1528.5
661.677,1521.8
661.809,1520.1
661.94,1519.0
662.072,1510.5
662.203,1529.9
662.335,1535.7
662.466,1507.4
662.597,1513.2
662.729,1529.9
662.86,1510.9
662.992,1516.8
663.123,1520.1