File: spectra/VLFR_01-LDPE_bio_Raman_fe19d443.csv
nm,Intensity
528.65,1856.05
528.819,1855.95
528.987,1857.45
529.155,1855.95
529.324,1857.35
529.492,1855.35
529.66,1856.75
529.829,1854.7
529.997,1856.95
530.165,1855.95
530.334,1857.0
530.502,1856.15
530.67,1857.05
530.839,1856.8
531.007,1855.8
531.175,1858.15
531.344,1857.6
531.512,1858.95
531.68,1868.45
531.848,2038.3
532.017,2621.75
532.185,2575.05
532.353,1936.05
532.521,1857.7
532.69,1857.2
532.858,1857.25
533.026,1856.0
533.194,1857.75
533.363,1858.85
533.531,1869.85
533.699,1945.85
533.867,2071.3
534.036,2134.2
534.204,2145.9
534.372,2143.05
534.54,2137.35
534.708,2148.9
534.877,2138.05
535.045,2134.1
535.213,2123.35
535.381,2137.8
535.549,2130.45
535.717,2119.85
535.886,2117.6
536.054,2110.25
536.222,2101.45
536.39,2107.35
536.558,2106.6
536.726,2103.4
536.894,2104.2
537.062,2096.1
537.231,2105.5
537.399,2110.7
537.567,2114.45
537.735,2119.2
537.903,2106.5
538.071,2114.05
538.239,2108.7
538.407,2099.95
538.575,2099.85
538.743,2101.25
538.911,2097.55
539.079,2106.55
539.247,2112.25
539.415,2109.65
539.583,2086.55
539.751,2093.1
539.919,2103.4
540.087,2096.45
540.255,2092.8
540.423,2095.35
540.591,2091.7
540.759,2104.35
540.927,2097.1
541.095,2104.35
541.263,2088.1
541.431,2093.4
541.599,2088.5
541.767,2095.6
541.935,2089.85
542.103,2090.85
542.271,2097.0
542.439,2087.7
542.607,2092.75
542.775,2098.8
542.943,2098.3
543.111,2107.55
543.279,2096.9
543.446,2101.1
543.614,2097.6
543.782,2096.5
543.95,2105.95
544.118,2100.6
544.286,2093.55
544.454,2088.85
544.622,2100.1
544.789,2105.35
544.957,2102.2
545.125,2096.35
545.293,2097.35
545.461,2094.85
545.629,2095.3
545.796,2103.8
545.964,2105.25
546.132,2099.2
546.3,2095.2
546.468,2100.7
546.635,2102.45
546.803,2100.8
546.971,2097.15
547.139,2104.8
547.306,2094.65
547.474,2098.2
547.642,2090.65
547.81,2096.9
547.977,2105.45
548.145,2102.85
548.313,2110.25
548.481,2104.55
548.648,2102.9
548.816,2103.15
548.984,2102.05
549.151,2106.25
549.319,2099.7
549.487,2100.45
549.655,2099.4
549.822,2102.7
549.99,2106.6
550.158,2111.6
550.325,2111.15
550.493,2104.75
550.66,2098.1
550.828,2113.1
550.996,2107.75
551.163,2108.25
551.331,2111.8
551.499,2115.65
551.666,2120.65
551.834,2119.1
552.001,2124.05
552.169,2122.65
552.337,2114.55
552.504,2110.5
552.672,2114.55
552.839,2107.55
553.007,2123.0
553.174,2124.6
553.342,2128.2
553.509,2129.2
553.677,2131.8
553.844,2127.2
554.012,2129.4
554.179,2137.7
554.347,2127.95
554.514,2139.45
554.682,2135.65
554.849,2130.75
555.017,2138.65
555.184,2134.1
555.352,2142.7
555.519,2141.7
555.687,2146.05
555.854,2135.75
556.022,2143.1
556.189,2148.75
556.357,2140.4
556.524,2142.2
556.691,2148.9
556.859,2157.6
557.026,2165.7
557.194,2163.9
557.361,2150.65
557.528,2170.4
557.696,2171.2
557.863,2178.2
558.031,2164.3
558.198,2175.45
558.365,2177.7
558.533,2186.85
558.7,2184.7
558.867,2178.95
559.035,2172.65
559.202,2180.55
559.369,2173.6
559.537,2179.2
559.704,2178.95
559.871,2174.35
560.038,2175.5
560.206,2168.25
560.373,2182.8
560.54,2183.45
560.708,2190.55
560.875,2185.4
561.042,2198.25
561.209,2196.6
561.377,2186.4
561.544,2191.6
561.711,2194.0
561.878,2192.75
562.045,2208.3
562.213,2210.2
562.38,2224.3
562.547,2206.9
562.714,2214.6
562.881,2217.55
563.049,2217.95
563.216,2233.95
563.383,2231.25
563.55,2254.2
563.717,2290.45
563.884,2400.0
564.052,2433.65
564.219,2364.65
564.386,2308.75
564.553,2287.85
564.72,2295.1
564.887,2284.6
565.054,2278.15
565.221,2287.75
565.388,2271.3
565.556,2281.25
565.723,2319.3
565.89,2382.3
566.057,2514.9
566.224,2493.6
566.391,2384.05
566.558,2316.3
566.725,2287.95
566.892,2280.2
567.059,2274.8
567.226,2284.2
567.393,2285.05
567.56,2288.85
567.727,2279.85
567.894,2277.85
568.061,2279.45
568.228,2272.95
568.395,2276.8
568.562,2288.25
568.729,2285.85
568.896,2288.55
569.063,2294.95
569.23,2295.85
569.396,2304.45
569.563,2297.6
569.73,2313.35
569.897,2302.9
570.064,2311.8
570.231,2320.3
570.398,2325.3
570.565,2343.85
570.732,2331.75
570.898,2344.65
571.065,2363.35
571.232,2439.2
571.399,2584.25
571.566,2755.65
571.733,2583.0
571.9,2474.35
572.066,2430.0
572.233,2387.2
572.4,2375.45
572.567,2367.8
572.734,2380.3
572.9,2377.05
573.067,2374.4
573.234,2353.45
573.401,2370.4
573.567,2391.35
573.734,2377.9
573.901,2398.95
574.068,2399.7
574.234,2384.7
574.401,2394.15
574.568,2370.95
574.734,2381.05
574.901,2381.7
575.068,2389.8
575.235,2426.35
575.401,2504.9
575.568,2579.95
575.735,2581.4
575.901,2579.5
576.068,2648.95
576.235,2731.25
576.401,2714.6
576.568,2692.5
576.734,2668.3
576.901,2686.3
577.068,2619.75
577.234,2574.3
577.401,2542.45
577.567,2493.7
577.734,2475.4
577.901,2463.6
578.067,2472.25
578.234,2463.1
578.4,2456.3
578.567,2467.6
578.733,2483.5
578.9,2478.65
579.066,2483.2
579.233,2474.75
579.399,2487.65
579.566,2492.8
579.732,2487.05
579.899,2499.4
580.065,2530.3
580.232,2504.05
580.398,2507.7
580.565,2524.45
580.731,2513.05
580.898,2522.8
581.064,2533.1
581.231,2509.8
581.397,2521.35
581.563,2541.4
581.73,2546.4
581.896,2552.95
582.063,2551.65
582.229,2548.7
582.395,2551.8
582.562,2584.7
582.728,2554.65
582.895,2540.05
583.061,2572.05
583.227,2563.55
583.394,2585.85
583.56,2567.8
583.726,2582.4
583.893,2572.6
584.059,2582.5
584.225,2599.35
584.391,2592.85
584.558,2597.3
584.724,2610.25
584.89,2591.55
585.057,2607.0
585.223,2595.9
585.389,2592.15
585.555,2607.9
585.722,2604.3
585.888,2613.4
586.054,2621.35
586.22,2623.7
586.386,2639.2
586.553,2616.9
586.719,2660.7
586.885,2646.4
587.051,2631.4
587.217,2673.65
587.384,2667.25
587.55,2664.15
587.716,2669.25
587.882,2697.35
588.048,2682.05
588.214,2714.05
588.38,2684.65
588.546,2691.3
588.713,2712.5
588.879,2682.5
589.045,2691.6
589.211,2688.75
589.377,2711.6
589.543,2724.45
589.709,2712.45
589.875,2714.5
590.041,2757.7
590.207,2742.45
590.373,2748.15
590.539,2742.75
590.705,2766.1
590.871,2756.55
591.037,2727.95
591.203,2762.4
591.369,2783.25
591.535,2800.2
591.701,2807.35
591.867,2812.4
592.033,2789.6
592.199,2800.0
592.365,2857.7
592.531,2813.8
592.697,2817.95
592.863,2823.95
593.029,2814.3
593.195,2841.0
593.361,2844.8
593.526,2815.9
593.692,2817.45
593.858,2850.9
594.024,2850.2
594.19,2868.15
594.356,2809.65
594.522,2865.0
594.687,2890.6
594.853,2900.15
595.019,2884.1
595.185,2911.1
595.351,2897.55
595.516,2920.3
595.682,2940.2
595.848,2951.45
596.014,2945.5
596.18,2946.05
596.345,2968.0
596.511,2952.7
596.677,2955.3
596.843,3003.85
597.008,2986.0
597.174,2992.45
597.34,3032.15
597.505,3019.85
597.671,2989.2
597.837,3005.2
598.002,3091.2
598.168,3038.65
598.334,3025.15
598.499,3054.65
598.665,3070.05
598.831,3086.25
598.996,3081.05
599.162,3071.65
599.328,3055.05
599.493,3122.6
599.659,3117.05
599.824,3083.25
599.99,3100.95
600.156,3107.6
600.321,3105.9
600.487,3121.9
600.652,3144.1
600.818,3094.6
600.983,3106.75
601.149,3121.8
601.314,3125.6
601.48,3159.75
601.645,3121.65
601.811,3123.6
601.976,3129.1
602.142,3118.65
602.307,3095.5
602.473,3124.2
602.638,3106.95
602.804,3116.9
602.969,3110.9
603.135,3126.1
603.3,3076.65
603.466,3054.4
603.631,3074.1
603.796,3093.55
603.962,3075.8
604.127,3046.95
604.293,3049.2
604.458,3027.85
604.623,3075.55
604.789,3046.2
604.954,3020.35
605.119,3026.55
605.285,2981.4
605.45,2954.25
605.615,2981.25
605.781,2996.3
605.946,2983.95
606.111,2915.55
606.277,2969.3
606.442,2977.0
606.607,2980.95
606.772,2906.3
606.938,2934.25
607.103,2930.9
607.268,2915.8
607.433,2906.95
607.599,2889.45
607.764,2901.4
607.929,2887.3
608.094,2898.65
608.259,2868.8
608.425,2891.85
608.59,2886.3
608.755,2858.5
608.92,2861.65
609.085,2837.45
609.25,2834.05
609.415,2825.45
609.581,2854.95
609.746,2838.1
609.911,2816.8
610.076,2819.4
610.241,2814.0
610.406,2816.4
610.571,2805.25
610.736,2804.0
610.901,2832.0
611.066,2819.35
611.231,2782.0
611.396,2770.95
611.561,2797.45
611.727,2765.5
611.892,2775.45
612.057,2779.25
612.222,2763.55
612.386,2771.25
612.551,2769.2
612.716,2752.4
612.881,2756.25
613.046,2746.9
613.211,2758.4
613.376,2739.3
613.541,2739.4
613.706,2736.9
613.871,2725.15
614.036,2730.55
614.201,2765.85
614.366,2712.8
614.531,2718.5
614.695,2718.05
614.86,2716.9
615.025,2693.7
615.19,2720.7
615.355,2696.25
615.52,2702.25
615.684,2708.8
615.849,2702.8
616.014,2686.5
616.179,2708.75
616.344,2693.55
616.508,2698.4
616.673,2690.95
616.838,2685.35
617.003,2679.7
617.168,2695.8
617.332,2695.1
617.497,2681.8
617.662,2644.7
617.826,2695.9
617.991,2667.7
618.156,2673.25
618.32,2673.65
618.485,2664.65
618.65,2672.6
618.814,2664.65
618.979,2646.1
619.144,2677.85
619.308,2669.15
619.473,2682.15
619.638,2670.65
619.802,2688.7
619.967,2682.15
620.131,2662.9
620.296,2648.3
620.461,2652.9
620.625,2659.55
620.79,2662.0
620.954,2657.05
621.119,2655.7
621.283,2649.35
621.448,2690.55
621.612,2689.25
621.777,2692.75
621.941,2716.5
622.106,2718.95
622.27,2715.85
622.435,2702.9
622.599,2731.1
622.764,2675.6
622.928,2659.4
623.093,2638.1
623.257,2639.95
623.422,2619.6
623.586,2616.45
623.75,2606.4
623.915,2630.1
624.079,2611.15
624.244,2604.2
624.408,2602.25
624.572,2595.45
624.737,2598.85
624.901,2614.6
625.065,2593.15
625.23,2627.8
625.394,2620.45
625.558,2619.65
625.723,2610.15
625.887,2620.6
626.051,2637.55
626.215,2666.8
626.38,2733.25
626.544,2877.6
626.708,3178.6
626.872,3548.1
627.037,4118.6
627.201,4379.0
627.365,4260.85
627.529,4095.5
627.693,3871.45
627.858,3734.5
628.022,3734.25
628.186,3873.3
628.35,4185.1
628.514,4455.8
628.678,4320.0
628.843,4015.05
629.007,3804.95
629.171,3756.2
629.335,3649.65
629.499,3547.35
629.663,3462.75
629.827,3356.75
629.991,3333.2
630.155,3305.4
630.319,3290.55
630.483,3264.9
630.647,3214.55
630.812,3036.5
630.976,2911.5
631.14,2824.7
631.304,2723.3
631.468,2730.9
631.632,2663.5
631.796,2633.35
631.959,2623.4
632.123,2614.2
632.287,2576.65
632.451,2576.45
632.615,2545.85
632.779,2559.05
632.943,2565.75
633.107,2537.1
633.271,2548.4
633.435,2552.85
633.599,2531.1
633.763,2529.2
633.926,2502.9
634.09,2506.45
634.254,2529.55
634.418,2523.0
634.582,2507.5
634.746,2509.9
634.909,2519.35
635.073,2502.25
635.237,2517.55
635.401,2489.9
635.564,2486.4
635.728,2483.5
635.892,2496.05
636.056,2497.95
636.219,2486.9
636.383,2474.1
636.547,2469.15
636.711,2491.4
636.874,2500.85
637.038,2488.45
637.202,2483.35
637.365,2486.05
637.529,2481.7
637.693,2472.95
637.856,2481.45
638.02,2473.55
638.184,2466.2
638.347,2489.9
638.511,2481.7
638.674,2478.05
638.838,2482.75
639.002,2473.95
639.165,2474.0
639.329,2469.8
639.492,2467.3
639.656,2484.4
639.819,2458.3
639.983,2462.75
640.146,2466.5
640.31,2455.1
640.473,2480.2
640.637,2473.7
640.8,2464.1
640.964,2462.1
641.127,2481.8
641.291,2480.45
641.454,2478.9
641.618,2456.85
641.781,2433.9
641.944,2475.05
642.108,2454.75
642.271,2476.25
642.435,2473.35
642.598,2477.05
642.761,2465.3
642.925,2464.95
643.088,2441.5
643.251,2464.65
643.415,2454.2
643.578,2473.85
643.741,2478.6
643.905,2494.75
644.068,2458.75
644.231,2480.95
644.394,2494.65
644.558,2441.45
644.721,2477.7
644.884,2459.35
645.047,2463.6
645.211,2469.25
645.374,2463.1
645.537,2469.05
645.7,2466.2
645.863,2475.15
646.027,2472.1
646.19,2477.45
646.353,2479.25
646.516,2470.7
646.679,2445.05
646.842,2458.15
647.005,2463.1
647.169,2470.1
647.332,2462.5
647.495,2475.85
647.658,2465.6
647.821,2451.2
647.984,2452.45
648.147,2446.6
648.31,2451.35
648.473,2462.8
648.636,2428.75
648.799,2461.05
648.962,2466.6
649.125,2452.25
649.288,2434.8
649.451,2435.05
649.614,2475.55
649.777,2458.9
649.94,2443.65
650.103,2447.85
650.266,2457.35
650.429,2461.75
650.592,2425.4
650.755,2463.0
650.918,2448.6
651.08,2450.25
651.243,2444.3
651.406,2449.0
651.569,2445.2
651.732,2445.25
651.895,2436.95
652.058,2457.1
652.22,2424.6
652.383,2452.55
652.546,2434.6
652.709,2432.35
652.872,2434.2
653.034,2457.9
653.197,2433.8
653.36,2429.8
653.523,2400.95
653.685,2411.75
653.848,2442.5
654.011,2451.0
654.173,2396.35
654.336,2402.6
654.499,2431.0
654.662,2408.05
654.824,2402.8
654.987,2402.55
655.149,2408.5
655.312,2386.0
655.475,2380.7
655.637,2402.65
655.8,2400.05
655.963,2391.3
656.125,2410.7
656.288,2394.9
656.45,2376.4
656.613,2393.3
656.775,2382.45
656.938,2376.55
657.1,2366.0
657.263,2363.9
657.425,2376.95
657.588,2378.05
657.75,2354.15
657.913,2365.7
658.075,2350.35
658.238,2348.0
658.4,2327.45
658.563,2336.5
658.725,2337.4
658.888,2338.0
659.05,2317.8
659.212,2322.8
659.375,2314.4
659.537,2308.0
659.7,2312.2
659.862,2320.65
660.024,2299.15
660.187,2297.9
660.349,2289.55
660.511,2290.5
660.674,2302.45
660.836,2298.05
660.998,2293.3
661.079,2285.9