File: spectra/VLFR_01-LDPE_bio_Raman_a6618530.csv
nm,Intensity
528.626,1868.5
528.795,1867.5
528.963,1865.1
529.132,1867.1
529.3,1866.5
529.469,1866.9
529.637,1866.6
529.806,1866.8
529.974,1867.3
530.143,1868.3
530.311,1867.1
530.48,1867.9
530.648,1867.5
530.816,1868.0
530.985,1869.4
531.153,1869.1
531.322,1872.4
531.49,1873.8
531.658,1897.9
531.827,2281.2
531.995,3387.2
532.164,3357.2
532.332,2093.5
532.5,1871.9
532.669,1868.3
532.837,1867.9
533.006,1869.1
533.174,1868.2
533.342,1870.8
533.511,1888.4
533.679,2012.0
533.847,2305.0
534.016,2510.5
534.184,2541.8
534.352,2543.7
534.521,2519.3
534.689,2515.0
534.857,2491.0
535.025,2451.7
535.194,2433.8
535.362,2423.2
535.53,2396.2
535.699,2345.2
535.867,2320.4
536.035,2288.9
536.203,2272.2
536.372,2259.0
536.54,2243.4
536.708,2234.6
536.876,2203.7
537.044,2213.9
537.213,2212.5
537.381,2214.6
537.549,2206.9
537.717,2203.3
537.885,2194.1
538.054,2182.7
538.222,2179.4
538.39,2188.3
538.558,2178.9
538.726,2173.7
538.894,2177.8
539.063,2183.0
539.231,2155.9
539.399,2165.1
539.567,2158.9
539.735,2160.3
539.903,2151.5
540.071,2147.2
540.239,2151.0
540.408,2151.6
540.576,2147.2
540.744,2159.1
540.912,2161.9
541.08,2159.0
541.248,2153.8
541.416,2143.2
541.584,2143.7
541.752,2161.1
541.92,2150.6
542.088,2154.8
542.256,2161.9
542.424,2143.0
542.592,2163.3
542.76,2155.2
542.928,2141.5
543.096,2147.5
543.264,2151.2
543.432,2141.1
543.6,2150.8
543.768,2156.9
543.936,2146.5
544.104,2158.9
544.272,2152.1
544.44,2163.0
544.608,2153.0
544.776,2157.6
544.944,2166.1
545.112,2171.0
545.28,2141.1
545.448,2150.0
545.616,2148.4
545.784,2152.6
545.951,2160.7
546.119,2164.7
546.287,2149.1
546.455,2152.4
546.623,2159.5
546.791,2167.2
546.959,2181.4
547.127,2178.8
547.294,2175.7
547.462,2184.9
547.63,2175.0
547.798,2171.4
547.966,2169.1
548.134,2154.4
548.301,2176.9
548.469,2169.6
548.637,2175.6
548.805,2158.1
548.972,2169.5
549.14,2175.7
549.308,2158.6
549.476,2161.3
549.644,2161.1
549.811,2159.2
549.979,2152.3
550.147,2174.5
550.315,2165.7
550.482,2162.2
550.65,2165.5
550.818,2164.9
550.985,2179.0
551.153,2162.9
551.321,2171.8
551.488,2175.2
551.656,2176.8
551.824,2176.1
551.991,2185.5
552.159,2173.3
552.327,2179.8
552.494,2187.4
552.662,2178.0
552.83,2176.3
552.997,2174.3
553.165,2186.4
553.333,2187.3
553.5,2203.8
553.668,2183.7
553.835,2196.6
554.003,2193.1
554.171,2205.4
554.338,2205.9
554.506,2212.1
554.673,2205.3
554.841,2202.7
555.008,2203.9
555.176,2227.7
555.343,2210.9
555.511,2219.2
555.679,2211.9
555.846,2215.9
556.014,2224.3
556.181,2216.4
556.349,2217.8
556.516,2234.0
556.684,2258.8
556.851,2245.3
557.018,2237.7
557.186,2263.4
557.353,2262.0
557.521,2264.0
557.688,2262.2
557.856,2276.0
558.023,2263.2
558.191,2268.1
558.358,2274.9
558.525,2275.7
558.693,2278.4
558.86,2260.9
559.028,2256.0
559.195,2285.6
559.362,2262.0
559.53,2265.9
559.697,2258.7
559.864,2279.6
560.032,2251.8
560.199,2258.5
560.366,2257.4
560.534,2278.3
560.701,2271.6
560.868,2271.7
561.036,2269.9
561.203,2283.6
561.37,2280.8
561.538,2274.3
561.705,2298.3
561.872,2306.1
562.039,2321.5
562.207,2308.9
562.374,2297.9
562.541,2312.4
562.708,2296.4
562.876,2318.6
563.043,2320.1
563.21,2320.6
563.377,2330.8
563.545,2344.2
563.712,2374.8
563.879,2490.7
564.046,2552.1
564.213,2479.7
564.38,2409.0
564.548,2365.1
564.715,2394.4
564.882,2372.6
565.049,2351.2
565.216,2353.4
565.383,2339.6
565.551,2342.1
565.718,2361.6
565.885,2447.4
566.052,2542.0
566.219,2546.1
566.386,2409.7
566.553,2349.0
566.72,2328.8
566.887,2321.0
567.054,2309.5
567.221,2339.0
567.388,2325.1
567.555,2337.5
567.722,2331.9
567.889,2307.7
568.057,2334.7
568.224,2321.1
568.391,2322.9
568.558,2324.4
568.725,2334.9
568.892,2338.2
569.058,2330.0
569.225,2350.8
569.392,2333.7
569.559,2360.1
569.726,2370.5
569.893,2374.4
570.06,2363.7
570.227,2385.2
570.394,2376.0
570.561,2387.1
570.728,2387.2
570.895,2405.8
571.062,2413.8
571.229,2462.1
571.395,2633.9
571.562,2832.4
571.729,2681.3
571.896,2521.3
572.063,2496.4
572.23,2471.5
572.397,2444.9
572.563,2417.3
572.73,2405.0
572.897,2417.9
573.064,2397.9
573.231,2393.5
573.397,2411.0
573.564,2409.2
573.731,2415.0
573.898,2414.1
574.064,2393.5
574.231,2411.4
574.398,2395.3
574.565,2389.4
574.731,2394.8
574.898,2398.0
575.065,2422.4
575.232,2440.2
575.398,2498.3
575.565,2605.5
575.732,2637.4
575.898,2648.6
576.065,2740.2
576.232,2867.3
576.398,2854.4
576.565,2789.7
576.732,2774.2
576.898,2732.9
577.065,2698.2
577.232,2649.8
577.398,2572.4
577.565,2522.8
577.731,2506.7
577.898,2517.7
578.065,2465.2
578.231,2499.0
578.398,2501.7
578.564,2484.6
578.731,2513.1
578.897,2522.9
579.064,2527.5
579.23,2505.6
579.397,2519.0
579.563,2526.8
579.73,2536.6
579.896,2570.2
580.063,2561.0
580.229,2565.5
580.396,2575.9
580.562,2572.8
580.729,2583.9
580.895,2605.0
581.062,2621.7
581.228,2620.3
581.395,2629.9
581.561,2650.1
581.728,2646.7
581.894,2651.0
582.06,2682.7
582.227,2676.9
582.393,2688.9
582.56,2690.0
582.726,2706.9
582.892,2698.2
583.059,2738.2
583.225,2761.5
583.391,2718.8
583.558,2748.0
583.724,2776.7
583.89,2768.3
584.057,2774.0
584.223,2822.7
584.389,2795.5
584.556,2784.9
584.722,2831.4
584.888,2794.6
585.054,2810.6
585.221,2766.5
585.387,2796.9
585.553,2810.6
585.719,2809.7
585.886,2817.1
586.052,2839.6
586.218,2796.7
586.384,2838.5
586.55,2830.3
586.717,2893.1
586.883,2851.2
587.049,2906.6
587.215,2891.8
587.381,2887.8
587.548,2930.4
587.714,2932.6
587.88,2935.6
588.046,2984.2
588.212,2939.7
588.378,2978.3
588.544,2977.3
588.71,2985.4
588.876,2963.7
589.043,2994.6
589.209,2990.0
589.375,3012.7
589.541,3028.5
589.707,3047.9
589.873,3034.3
590.039,3055.8
590.205,3068.5
590.371,3054.4
590.537,3087.1
590.703,3097.2
590.869,3094.2
591.035,3079.5
591.201,3084.1
591.367,3151.3
591.533,3139.4
591.699,3149.0
591.865,3142.3
592.031,3152.8
592.197,3158.1
592.363,3151.3
592.529,3183.1
592.694,3183.7
592.86,3192.3
593.026,3203.7
593.192,3200.4
593.358,3201.2
593.524,3221.5
593.69,3214.3
593.856,3212.2
594.021,3228.9
594.187,3258.1
594.353,3246.5
594.519,3293.8
594.685,3257.4
594.851,3302.2
595.016,3298.5
595.182,3367.8
595.348,3336.7
595.514,3382.3
595.68,3403.2
595.845,3405.3
596.011,3442.6
596.177,3420.9
596.342,3442.6
596.508,3506.3
596.674,3506.8
596.84,3475.1
597.005,3540.5
597.171,3549.5
597.337,3591.5
597.502,3576.7
597.668,3607.8
597.834,3591.1
597.999,3638.2
598.165,3685.4
598.331,3691.5
598.496,3662.2
598.662,3692.2
598.828,3761.7
598.993,3760.3
599.159,3750.8
599.324,3793.2
599.49,3765.5
599.656,3807.7
599.821,3817.4
599.987,3831.2
600.152,3875.8
600.318,3790.8
600.483,3805.8
600.649,3833.8
600.814,3842.8
600.98,3885.4
601.145,3867.6
601.311,3860.4
601.476,3840.5
601.642,3847.6
601.807,3834.6
601.973,3842.5
602.138,3806.5
602.304,3776.2
602.469,3780.0
602.635,3770.3
602.8,3756.6
602.965,3789.1
603.131,3755.1
603.296,3729.0
603.462,3727.6
603.627,3677.1
603.792,3687.2
603.958,3691.6
604.123,3656.7
604.288,3644.5
604.454,3629.0
604.619,3561.5
604.784,3575.9
604.95,3531.0
605.115,3514.4
605.28,3486.2
605.446,3526.9
605.611,3465.2
605.776,3479.0
605.941,3430.9
606.107,3426.7
606.272,3435.7
606.437,3396.1
606.602,3366.4
606.767,3357.2
606.933,3360.4
607.098,3336.9
607.263,3339.8
607.428,3289.8
607.593,3273.9
607.759,3259.8
607.924,3252.9
608.089,3258.5
608.254,3219.2
608.419,3238.6
608.584,3162.9
608.749,3166.7
608.915,3210.2
609.08,3147.3
609.245,3173.3
609.41,3149.9
609.575,3131.0
609.74,3149.1
609.905,3126.8
610.07,3131.9
610.235,3137.8
610.4,3109.0
610.565,3084.3
610.73,3083.8
610.895,3110.4
611.06,3075.6
611.225,3082.5
611.39,3038.3
611.555,3059.1
611.72,3016.3
611.885,3016.2
612.05,3013.1
612.215,2988.0
612.38,2983.1
612.545,3011.0
612.71,2990.3
612.875,3002.0
613.04,3010.2
613.204,2982.6
613.369,2953.9
613.534,2937.6
613.699,2957.6
613.864,2945.2
614.029,2939.1
614.194,2931.1
614.358,2939.6
614.523,2916.6
614.688,2910.5
614.853,2911.0
615.018,2908.0
615.182,2884.7
615.347,2895.2
615.512,2903.6
615.677,2879.2
615.841,2909.9
616.006,2854.4
616.171,2862.4
616.336,2870.2
616.5,2862.1
616.665,2878.6
616.83,2839.0
616.994,2833.7
617.159,2827.1
617.324,2860.0
617.489,2833.1
617.653,2839.8
617.818,2816.8
617.982,2848.1
618.147,2842.9
618.312,2821.8
618.476,2809.2
618.641,2829.4
618.805,2804.6
618.97,2820.4
619.135,2819.2
619.299,2817.7
619.464,2796.9
619.628,2834.6
619.793,2827.6
619.957,2771.1
620.122,2807.5
620.286,2816.3
620.451,2813.6
620.615,2792.5
620.78,2806.3
620.944,2792.0
621.109,2805.6
621.273,2804.1
621.438,2820.7
621.602,2844.9
621.767,2851.2
621.931,2862.8
622.095,2912.3
622.26,2892.4
622.424,2880.5
622.589,2849.8
622.753,2823.2
622.917,2814.7
623.082,2774.0
623.246,2801.8
623.41,2758.1
623.575,2756.8
623.739,2730.1
623.903,2742.2
624.068,2736.7
624.232,2737.2
624.396,2723.3
624.561,2749.5
624.725,2739.5
624.889,2738.4
625.053,2772.9
625.218,2743.3
625.382,2728.0
625.546,2715.6
625.71,2766.4
625.875,2780.6
626.039,2817.9
626.203,2813.7
626.367,2913.6
626.531,3022.9
626.695,3336.6
626.86,3774.6
627.024,4357.6
627.188,4803.9
627.352,4810.2
627.516,4501.1
627.68,4292.8
627.844,4139.3
628.008,4191.3
628.172,4229.3
628.337,4591.9
628.501,4903.8
628.665,4732.0
628.829,4365.3
628.993,4325.1
629.157,4214.2
629.321,4116.1
629.485,3958.5
629.649,3913.6
629.813,3822.9
629.977,3816.4
630.141,3773.8
630.305,3727.4
630.469,3771.7
630.633,3652.5
630.797,3497.7
630.96,3324.5
631.124,3187.9
631.288,3055.2
631.452,3013.0
631.616,2962.0
631.78,2910.7
631.944,2917.1
632.108,2869.7
632.272,2843.5
632.435,2845.6
632.599,2818.8
632.763,2768.9
632.927,2785.3
633.091,2760.5
633.254,2759.7
633.418,2740.6
633.582,2709.9
633.746,2725.0
633.91,2718.8
634.073,2726.4
634.237,2669.9
634.401,2715.1
634.564,2682.9
634.728,2690.1
634.892,2704.2
635.056,2699.2
635.219,2694.4
635.383,2671.4
635.547,2688.8
635.71,2711.4
635.874,2677.1
636.038,2678.6
636.201,2676.3
636.365,2663.8
636.528,2664.4
636.692,2680.1
636.856,2662.8
637.019,2665.0
637.183,2665.3
637.346,2674.4
637.51,2645.9
637.673,2670.9
637.837,2665.0
638.0,2662.3
638.164,2660.9
638.327,2675.9
638.491,2691.7
638.654,2660.4
638.818,2686.3
638.981,2681.5
639.145,2667.9
639.308,2661.2
639.472,2673.0
639.635,2684.2
639.799,2669.7
639.962,2667.8
640.125,2649.5
640.289,2673.9
640.452,2686.4
640.616,2672.8
640.779,2671.0
640.942,2662.2
641.106,2684.1
641.269,2670.1
641.432,2685.0
641.596,2668.6
641.759,2660.6
641.922,2646.8
642.085,2686.3
642.249,2688.3
642.412,2693.6
642.575,2698.0
642.738,2671.1
642.902,2671.2
643.065,2706.8
643.228,2681.3
643.391,2694.0
643.555,2696.4
643.718,2706.1
643.881,2692.7
644.044,2709.0
644.207,2702.4
644.37,2699.2
644.534,2736.1
644.697,2736.0
644.86,2676.7
645.023,2714.7
645.186,2696.8
645.349,2693.6
645.512,2697.3
645.675,2702.8
645.838,2696.9
646.001,2694.6
646.164,2702.8
646.327,2709.7
646.49,2697.6
646.653,2683.9
646.816,2671.8
646.979,2703.0
647.142,2710.0
647.305,2707.4
647.468,2696.9
647.631,2713.3
647.794,2669.9
647.957,2665.4
648.12,2699.0
648.283,2729.0
648.446,2681.6
648.609,2678.1
648.772,2700.2
648.935,2651.8
649.098,2678.5
649.26,2685.0
649.423,2670.3
649.586,2685.8
649.749,2681.2
649.912,2667.6
650.075,2675.6
650.237,2675.9
650.4,2682.8
650.563,2675.7
650.726,2702.5
650.888,2669.7
651.051,2670.2
651.214,2679.5
651.377,2681.4
651.539,2676.2
651.702,2677.5
651.865,2694.1
652.027,2654.3
652.19,2705.3
652.353,2662.6
652.515,2635.8
652.678,2669.0
652.841,2644.0
653.003,2644.1
653.166,2634.6
653.329,2624.4
653.491,2646.5
653.654,2651.6
653.816,2643.2
653.979,2653.1
654.142,2637.7
654.304,2633.3
654.467,2639.0
654.629,2621.4
654.792,2627.0
654.954,2637.4
655.117,2612.8
655.279,2657.8
655.442,2604.2
655.604,2616.5
655.767,2613.3
655.929,2629.0
656.091,2611.8
656.254,2573.7
656.416,2615.5
656.579,2578.9
656.741,2598.3
656.904,2562.6
657.066,2589.3
657.228,2587.6
657.391,2581.8
657.553,2542.4
657.715,2553.1
657.878,2539.9
658.04,2541.9
658.202,2556.7
658.365,2524.4
658.527,2519.4
658.689,2513.5
658.851,2498.5
659.014,2517.2
659.176,2504.6
659.338,2498.4
659.5,2475.0
659.663,2497.5
659.825,2472.2
659.987,2466.9
660.149,2465.2
660.311,2474.9
660.474,2438.9
660.636,2441.1
660.798,2440.1
660.96,2442.1
661.041,2451.3