File: spectra/VLFR_09-PET_bio_Raman_0b2b108d.csv
nm,Intensity
528.637,1852.4
528.806,1852.0
528.974,1852.5
529.143,1849.5
529.311,1854.0
529.48,1851.9
529.648,1853.6
529.816,1852.7
529.985,1854.3
530.153,1853.6
530.322,1851.9
530.49,1855.7
530.659,1853.1
530.827,1853.8
530.995,1855.3
531.164,1859.2
531.332,1862.4
531.5,1864.1
531.669,1909.1
531.837,2479.3
532.006,4342.3
532.174,3625.4
532.342,1981.5
532.511,1860.2
532.679,1862.7
532.847,1861.5
533.016,1868.6
533.184,1871.7
533.352,1913.6
533.521,2252.3
533.689,4141.2
533.857,7504.4
534.025,9376.8
534.194,9857.1
534.362,9486.3
534.53,9094.8
534.699,9492.8
534.867,9317.4
535.035,8797.0
535.203,8818.1
535.372,8832.9
535.54,8630.1
535.708,8414.5
535.876,8316.5
536.045,8045.6
536.213,8013.5
536.381,8192.2
536.549,8124.4
536.717,8320.6
536.886,8129.1
537.054,8149.1
537.222,8283.9
537.39,8233.2
537.558,8347.2
537.726,8426.7
537.895,8299.9
538.063,8394.9
538.231,8385.7
538.399,8311.7
538.567,8527.0
538.735,8635.6
538.903,8748.0
539.072,8741.7
539.24,8884.2
539.408,8913.4
539.576,8982.5
539.744,8991.1
539.912,9144.8
540.08,9285.3
540.248,9162.4
540.416,9155.1
540.584,9229.4
540.752,9127.4
540.92,9359.5
541.088,9379.4
541.256,9342.5
541.425,9446.3
541.593,9299.7
541.761,9577.5
541.929,9407.5
542.097,9327.9
542.265,9655.9
542.433,9589.0
542.601,9820.5
542.769,9650.6
542.937,9766.9
543.104,10079.7
543.272,10007.4
543.44,9854.7
543.608,10160.7
543.776,10169.8
543.944,10250.1
544.112,10099.2
544.28,10312.3
544.448,10007.2
544.616,10148.7
544.784,10456.9
544.952,10169.1
545.12,10351.4
545.288,10440.2
545.455,10756.4
545.623,10569.3
545.791,10453.3
545.959,10720.1
546.127,10784.3
546.295,10795.6
546.463,10949.5
546.63,10865.4
546.798,10838.6
546.966,10769.6
547.134,10955.2
547.302,11174.1
547.47,11233.6
547.637,11147.6
547.805,10938.3
547.973,11406.6
548.141,11540.3
548.308,11437.1
548.476,11489.2
548.644,11512.3
548.812,11678.4
548.98,11575.2
549.147,11611.6
549.315,11400.7
549.483,11639.9
549.65,11734.4
549.818,11774.8
549.986,11647.9
550.154,11777.0
550.321,12158.4
550.489,12724.7
550.657,12822.3
550.824,12503.6
550.992,12237.3
551.16,12277.5
551.327,12276.1
551.495,12231.1
551.663,12584.4
551.83,12371.0
551.998,12285.9
552.166,12428.1
552.333,12680.1
552.501,12453.2
552.668,12726.5
552.836,13069.0
553.004,13017.0
553.171,12516.0
553.339,12496.1
553.506,12829.9
553.674,12985.0
553.842,12769.6
554.009,13029.4
554.177,12893.9
554.344,13235.3
554.512,13292.6
554.679,13042.5
554.847,13229.8
555.014,13834.2
555.182,13220.3
555.349,13710.0
555.517,13681.3
555.684,13493.7
555.852,13776.0
556.019,14203.5
556.187,13992.5
556.354,14066.6
556.522,13990.1
556.689,14221.9
556.857,14195.6
557.024,14272.5
557.192,14758.2
557.359,15279.4
557.526,15620.0
557.694,15589.7
557.861,15010.7
558.029,14618.3
558.196,14548.0
558.363,14912.0
558.531,14850.5
558.698,14616.1
558.866,14815.5
559.033,14623.2
559.2,14601.1
559.368,14868.6
559.535,14733.5
559.702,14823.3
559.87,14726.8
560.037,14673.0
560.204,14764.5
560.372,14997.1
560.539,15068.0
560.706,15095.1
560.873,15163.0
561.041,15331.9
561.208,15109.8
561.375,15628.5
561.543,15631.0
561.71,15924.7
561.877,15571.0
562.044,15935.9
562.211,15925.4
562.379,15806.9
562.546,16059.8
562.713,15759.3
562.88,15746.8
563.048,15820.5
563.215,16035.0
563.382,16111.4
563.549,16161.4
563.716,15792.2
563.883,16044.2
564.051,16025.9
564.218,16210.4
564.385,16550.0
564.552,16507.2
564.719,16805.4
564.886,17040.1
565.053,17324.8
565.221,17461.9
565.388,17353.1
565.555,17301.7
565.722,17423.7
565.889,17848.1
566.056,17362.1
566.223,17198.0
566.39,16707.3
566.557,17142.8
566.724,17228.3
566.891,16746.4
567.058,17181.7
567.225,17061.8
567.392,17134.5
567.559,17251.8
567.726,17270.2
567.893,17158.8
568.06,17622.2
568.227,17805.7
568.394,17417.4
568.561,17688.3
568.728,17369.2
568.895,17035.2
569.062,17448.7
569.229,17431.2
569.396,17725.4
569.563,17752.6
569.73,18014.5
569.897,17768.2
570.064,18074.5
570.231,17985.9
570.398,18058.5
570.564,18233.4
570.731,18713.2
570.898,19556.9
571.065,20182.0
571.232,20246.2
571.399,20291.5
571.566,19760.3
571.732,19535.4
571.899,19383.7
572.066,19175.6
572.233,18616.6
572.4,19136.0
572.566,18329.6
572.733,18478.2
572.9,18506.9
573.067,18792.0
573.234,18686.5
573.4,18286.0
573.567,18495.3
573.734,18381.7
573.901,18661.9
574.067,18248.6
574.234,18919.4
574.401,18830.9
574.568,18897.7
574.734,18699.9
574.901,18460.6
575.068,18759.0
575.234,19331.6
575.401,19283.1
575.568,19321.7
575.734,19100.9
575.901,19183.2
576.068,19459.7
576.234,19170.0
576.401,19872.8
576.568,19272.8
576.734,19220.9
576.901,19500.3
577.067,19237.6
577.234,19162.9
577.401,19436.5
577.567,19392.5
577.734,19379.9
577.9,19359.2
578.067,19055.4
578.233,18897.3
578.4,19258.8
578.567,19131.3
578.733,19482.4
578.9,19101.6
579.066,19159.2
579.233,19566.2
579.399,19694.4
579.566,19278.6
579.732,19487.5
579.899,20025.2
580.065,19745.6
580.231,19455.4
580.398,19955.4
580.564,19423.6
580.731,19845.3
580.897,20166.0
581.064,20027.5
581.23,19805.6
581.397,20161.9
581.563,20793.5
581.729,21475.7
581.896,24619.5
582.062,27935.5
582.228,27279.4
582.395,23329.4
582.561,21271.1
582.728,19902.6
582.894,20041.5
583.06,19925.8
583.227,20260.0
583.393,19683.2
583.559,20079.7
583.726,20254.8
583.892,20080.1
584.058,20049.5
584.224,20269.8
584.391,19739.1
584.557,19749.7
584.723,20550.0
584.889,20337.4
585.056,20639.4
585.222,20456.5
585.388,20928.2
585.554,21850.1
585.721,23513.2
585.887,24203.6
586.053,24379.8
586.219,23747.2
586.385,22778.6
586.552,21713.1
586.718,21172.5
586.884,20430.0
587.05,20807.0
587.216,20489.4
587.382,20629.9
587.549,20571.8
587.715,20212.3
587.881,20489.8
588.047,20599.5
588.213,20702.4
588.379,20692.4
588.545,20199.4
588.711,20575.2
588.877,20655.6
589.043,20220.3
589.209,20466.0
589.375,20291.6
589.542,20394.9
589.708,20422.8
589.874,20300.2
590.04,20320.5
590.206,20654.3
590.372,20718.9
590.538,19860.2
590.704,20738.6
590.87,20571.9
591.036,20450.7
591.201,20433.1
591.367,21008.9
591.533,20848.4
591.699,20574.2
591.865,20695.1
592.031,20945.7
592.197,20823.5
592.363,20415.4
592.529,21273.9
592.695,21112.0
592.861,20772.9
593.027,20450.3
593.192,20371.2
593.358,21344.0
593.524,20933.1
593.69,20298.2
593.856,20783.5
594.022,20957.5
594.187,20804.8
594.353,20729.9
594.519,20926.6
594.685,20817.3
594.851,20598.1
595.016,21252.2
595.182,21063.0
595.348,20901.9
595.514,20790.0
595.679,21367.6
595.845,21392.8
596.011,21742.8
596.177,21077.7
596.342,21542.4
596.508,20681.9
596.674,21792.3
596.84,21735.9
597.005,21491.4
597.171,21077.8
597.337,21759.1
597.502,21280.9
597.668,21608.5
597.833,21473.7
597.999,21383.1
598.165,21358.2
598.33,21235.1
598.496,21630.5
598.662,21658.7
598.827,21715.3
598.993,22043.0
599.158,21963.8
599.324,21327.9
599.489,21766.4
599.655,21710.9
599.821,21847.2
599.986,22426.3
600.152,21641.8
600.317,21786.4
600.483,21927.2
600.648,21810.1
600.814,22297.6
600.979,21978.8
601.145,21739.6
601.31,22250.8
601.476,22319.3
601.641,22419.8
601.807,22066.3
601.972,21806.6
602.137,22447.1
602.303,22363.4
602.468,21983.6
602.634,22059.7
602.799,22637.1
602.964,22699.0
603.13,22562.9
603.295,22177.4
603.461,22680.2
603.626,21779.4
603.791,22939.7
603.957,22434.5
604.122,22259.7
604.287,22653.0
604.453,22285.3
604.618,23257.2
604.783,22680.2
604.949,22944.8
605.114,22022.0
605.279,22348.1
605.444,22820.1
605.61,23248.3
605.775,23252.5
605.94,23002.6
606.105,23228.3
606.271,23060.5
606.436,23076.8
606.601,22920.0
606.766,23240.7
606.931,23376.8
607.097,23185.0
607.262,23374.8
607.427,23043.2
607.592,23305.5
607.757,24163.5
607.922,23015.6
608.088,23338.2
608.253,23828.2
608.418,23677.2
608.583,23869.9
608.748,23821.0
608.913,23818.0
609.078,23581.0
609.243,24067.9
609.408,23518.8
609.573,24242.8
609.738,24343.3
609.903,23801.4
610.068,23981.4
610.233,24535.4
610.399,24942.6
610.564,24576.8
610.729,24094.8
610.894,24313.7
611.058,24722.2
611.223,24825.2
611.388,24708.6
611.553,24504.1
611.718,25206.3
611.883,25218.0
612.048,24589.8
612.213,25348.8
612.378,25182.5
612.543,24637.8
612.708,25059.7
612.873,24909.6
613.038,24400.3
613.202,25537.1
613.367,25484.4
613.532,25447.7
613.697,25699.8
613.862,25489.1
614.027,25311.1
614.192,25776.8
614.356,26005.7
614.521,25976.1
614.686,26362.2
614.851,26101.5
615.016,26229.3
615.18,26280.1
615.345,25948.9
615.51,25816.2
615.675,26748.5
615.839,26623.0
616.004,27090.3
616.169,27086.0
616.333,26143.7
616.498,26306.2
616.663,27221.6
616.827,26525.1
616.992,26559.1
617.157,27533.3
617.321,27109.6
617.486,27335.6
617.651,27751.8
617.815,27573.7
617.98,27003.4
618.145,26775.7
618.309,27408.9
618.474,27418.5
618.638,28310.8
618.803,27937.9
618.968,27769.1
619.132,28254.3
619.297,27407.3
619.461,28625.9
619.626,28623.6
619.79,28014.4
619.955,28629.7
620.119,29025.5
620.284,28740.2
620.448,28679.5
620.613,28308.1
620.777,28652.8
620.942,28382.3
621.106,29104.7
621.271,29056.8
621.435,28790.7
621.599,29075.7
621.764,28996.8
621.928,28577.0
622.093,29385.3
622.257,30222.8
622.421,29160.2
622.586,28960.1
622.75,30036.9
622.915,29179.0
623.079,29896.0
623.243,29725.0
623.408,29528.4
623.572,30117.2
623.736,29669.7
623.9,29958.8
624.065,30380.5
624.229,30328.8
624.393,30129.0
624.558,30804.0
624.722,30384.5
624.886,30331.4
625.05,31033.1
625.215,30390.2
625.379,29618.2
625.543,31133.7
625.707,30517.7
625.871,30852.0
626.036,30515.2
626.2,31192.0
626.364,30594.9
626.528,30291.8
626.692,31009.8
626.856,30399.6
627.02,30831.4
627.185,31671.0
627.349,31056.1
627.513,31107.5
627.677,31290.1
627.841,30824.5
628.005,32391.4
628.169,31525.6
628.333,31671.1
628.497,31643.7
628.661,32035.7
628.825,32496.5
628.989,31457.2
629.153,31537.9
629.317,31957.9
629.481,32174.9
629.645,32147.1
629.809,32769.8
629.973,32113.3
630.137,31741.4
630.301,31681.1
630.465,32617.7
630.629,31786.7
630.793,31968.9
630.957,32451.2
631.121,32430.8
631.285,33518.7
631.449,33175.4
631.612,33513.1
631.776,33517.3
631.94,33364.6
632.104,32801.9
632.268,33544.3
632.432,32482.7
632.596,33524.4
632.759,33070.8
632.923,32285.6
633.087,33712.8
633.251,32994.3
633.414,33854.0
633.578,33667.6
633.742,32549.0
633.906,32436.4
634.069,32715.5
634.233,33968.9
634.397,33008.2
634.561,32835.3
634.724,33420.5
634.888,32726.4
635.052,33098.0
635.215,32244.6
635.379,32019.4
635.543,33253.7
635.706,33024.6
635.87,32840.8
636.034,32975.0
636.197,34906.6
636.361,33630.0
636.524,34591.9
636.688,34243.7
636.852,33203.2
637.015,33610.8
637.179,33312.7
637.342,33029.4
637.506,32909.5
637.669,32415.3
637.833,32882.2
637.996,33307.0
638.16,32931.4
638.323,32901.0
638.487,33522.9
638.65,31741.1
638.814,33026.6
638.977,32812.1
639.141,32509.6
639.304,33348.8
639.468,33317.5
639.631,31930.1
639.794,31960.4
639.958,32418.1
640.121,33251.1
640.285,32776.7
640.448,31631.5
640.611,32547.3
640.775,33683.7
640.938,31987.4
641.101,32012.2
641.265,32856.3
641.428,32884.3
641.591,32063.6
641.755,31621.4
641.918,32108.1
642.081,32287.7
642.244,32729.3
642.408,32665.5
642.571,32289.1
642.734,32140.7
642.897,31738.0
643.061,31971.5
643.224,32017.3
643.387,32208.6
643.55,32543.2
643.713,31673.9
643.876,32623.5
644.04,31597.1
644.203,31871.7
644.366,31392.0
644.529,31817.6
644.692,31162.5
644.855,32213.9
645.018,31570.7
645.181,32612.4
645.345,31923.2
645.508,31700.8
645.671,31885.2
645.834,31774.2
645.997,31772.3
646.16,32011.0
646.323,31393.0
646.486,31368.9
646.649,31151.7
646.812,31461.9
646.975,31287.3
647.138,30900.1
647.301,31722.6
647.464,31442.6
647.627,30411.5
647.79,30381.7
647.953,31131.2
648.115,30357.6
648.278,31535.9
648.441,30767.4
648.604,30810.6
648.767,30496.5
648.93,30029.9
649.093,29810.3
649.256,29819.8
649.418,29986.8
649.581,30044.6
649.744,30581.5
649.907,29526.8
650.07,30162.8
650.233,30154.2
650.395,29678.8
650.558,29464.7
650.721,29243.4
650.884,29546.7
651.046,30441.9
651.209,29523.6
651.372,29579.7
651.534,30423.9
651.697,28780.5
651.86,29105.2
652.023,30122.6
652.185,30131.2
652.348,28743.9
652.511,28858.0
652.673,28233.6
652.836,29503.6
652.998,29283.9
653.161,28436.7
653.324,28224.7
653.486,27714.5
653.649,28338.8
653.811,28243.0
653.974,27444.5
654.137,28596.6
654.299,27766.9
654.462,27421.9
654.624,27613.4
654.787,27094.6
654.949,27682.7
655.112,26647.6
655.274,27812.4
655.437,27321.2
655.599,27396.9
655.761,27055.5
655.924,26950.7
656.086,27869.1
656.249,26330.8
656.411,27441.9
656.574,26562.2
656.736,26878.6
656.898,26515.4
657.061,25861.8
657.223,26482.5
657.385,26472.1
657.548,25156.2
657.71,26743.0
657.872,25918.7
658.035,25846.9
658.197,25785.4
658.359,25165.4
658.522,25316.5
658.684,25079.4
658.846,24715.2
659.008,24985.6
659.171,23976.9
659.333,24523.0
659.495,25402.7
659.657,24142.0
659.82,23537.8
659.982,25273.2
660.144,24900.1
660.306,24541.2
660.468,24016.4
660.63,24613.8
660.793,23478.1
660.955,24197.8
661.036,24411.1