File: spectra/VLFR_02-HDPE_nobio_Raman_c4353920.csv
cm-1,Intensity
-123.878,1851.85
-117.855,1853.05
-111.836,1852.6
-105.821,1852.95
-99.8104,1852.5
-93.8036,1851.65
-87.8007,1853.35
-81.8019,1853.5
-75.807,1851.3
-69.8161,1852.95
-63.8293,1852.9
-57.8464,1854.0
-51.8675,1852.55
-45.8926,1853.3
-39.9216,1853.9
-33.9547,1854.15
-27.9917,1856.9
-22.0326,1859.0
-16.0776,1880.55
-10.1265,2238.75
-4.17932,3637.75
1.76388,3389.1
7.70313,1992.25
13.6384,1855.35
19.5698,1853.7
25.4972,1852.7
31.4207,1852.9
37.3403,1853.55
43.256,1853.25
49.1677,1858.8
55.0755,1891.65
60.9794,1947.85
66.8794,1979.2
72.7754,1985.8
78.6676,1982.9
84.5559,1986.65
90.4402,1992.0
96.3207,1992.15
102.197,1986.15
108.07,1991.05
113.939,1988.2
119.804,1991.15
125.665,1990.35
131.522,1980.15
137.375,1981.15
143.225,1979.2
149.07,1977.8
154.912,1980.35
160.75,1980.2
166.584,1979.0
172.414,1972.25
178.241,1975.45
184.063,1985.4
189.882,1982.8
195.697,1984.15
201.508,1985.0
207.315,1981.85
213.119,1979.35
218.918,1979.45
224.714,1976.15
230.506,1970.4
236.294,1978.85
242.078,1978.65
247.859,1979.6
253.636,1975.55
259.409,1979.2
265.178,1974.25
270.943,1976.85
276.705,1973.95
282.463,1973.05
288.217,1977.4
293.967,1982.3
299.713,1978.95
305.456,1980.9
311.195,1977.55
316.93,1977.6
322.662,1976.75
328.389,1980.4
334.113,1975.2
339.834,1980.05
345.55,1980.65
351.263,1984.55
356.972,1980.45
362.677,1983.9
368.379,1985.1
374.077,1983.85
379.771,1982.1
385.461,1981.7
391.148,1981.6
396.831,1979.05
402.51,1988.1
408.186,1987.9
413.858,1992.45
419.526,1983.5
425.19,1983.2
430.851,1985.4
436.508,1987.8
442.162,1990.35
447.811,1989.85
453.458,1988.4
459.1,1991.7
464.739,1984.35
470.374,1991.65
476.005,1991.7
481.633,1991.8
487.257,1991.1
492.878,1985.75
498.494,1993.75
504.107,1989.55
509.717,1989.45
515.323,1991.2
520.925,1994.4
526.524,1990.25
532.119,1989.85
537.71,1994.8
543.298,1987.8
548.882,1993.4
554.462,1997.55
560.039,1998.85
565.613,1992.6
571.182,1995.2
576.748,1996.85
582.311,1992.55
587.87,1993.35
593.425,1996.5
598.977,1991.35
604.525,1995.7
610.069,2000.45
615.61,1994.85
621.148,2000.9
626.682,1995.45
632.212,2000.05
637.739,1997.7
643.262,1999.15
648.781,1998.55
654.297,1993.85
659.81,2000.2
665.319,1996.65
670.824,1999.4
676.326,2006.7
681.824,2000.45
687.319,2002.5
692.81,1996.9
698.298,1991.75
703.782,2004.4
709.262,2002.95
714.739,2000.4
720.213,2007.6
725.683,2008.8
731.15,2004.05
736.613,2002.75
742.072,2009.0
747.528,2007.5
752.981,2002.5
758.43,2010.3
763.875,2008.2
769.317,2018.0
774.756,2009.3
780.191,2006.65
785.623,2002.2
791.051,2010.55
796.475,2011.75
801.897,2014.55
807.314,2014.65
812.729,2012.25
818.139,2013.55
823.547,2011.65
828.951,2014.4
834.351,2023.0
839.748,2014.5
845.142,2012.15
850.532,2007.65
855.918,2018.6
861.302,2020.65
866.681,2019.25
872.058,2024.3
877.431,2027.75
882.8,2027.2
888.166,2023.6
893.529,2026.2
898.888,2023.55
904.244,2024.7
909.596,2024.25
914.945,2023.65
920.291,2023.2
925.633,2023.45
930.972,2026.25
936.308,2022.75
941.64,2014.85
946.968,2026.9
952.294,2036.65
957.615,2033.4
962.934,2025.4
968.249,2033.95
973.561,2040.75
978.869,2026.9
984.174,2029.4
989.476,2040.75
994.774,2039.35
1000.07,2038.7
1005.36,2039.9
1010.65,2042.1
1015.93,2036.55
1021.22,2042.05
1026.49,2044.25
1031.77,2041.95
1037.04,2048.2
1042.31,2052.7
1047.57,2051.85
1052.83,2081.8
1058.09,2133.55
1063.35,2158.2
1068.6,2109.45
1073.85,2071.35
1079.09,2071.4
1084.33,2074.35
1089.57,2084.4
1094.81,2070.05
1100.04,2065.55
1105.27,2070.85
1110.49,2065.6
1115.71,2089.6
1120.93,2138.1
1126.15,2217.7
1131.36,2232.15
1136.57,2135.8
1141.77,2091.55
1146.98,2068.9
1152.18,2073.25
1157.37,2078.2
1162.56,2074.8
1167.75,2076.5
1172.94,2078.9
1178.12,2075.5
1183.3,2063.55
1188.48,2080.6
1193.65,2063.0
1198.82,2071.6
1203.99,2069.55
1209.15,2073.3
1214.31,2072.75
1219.46,2080.3
1224.62,2076.6
1229.77,2079.4
1234.92,2074.5
1240.06,2078.35
1245.2,2083.85
1250.34,2084.4
1255.47,2088.3
1260.6,2087.4
1265.73,2091.75
1270.85,2094.6
1275.97,2101.35
1281.09,2105.35
1286.21,2141.35
1291.32,2242.2
1296.43,2300.2
1301.53,2205.4
1306.63,2129.9
1311.73,2125.2
1316.83,2128.2
1321.92,2123.0
1327.01,2107.85
1332.1,2108.8
1337.18,2107.7
1342.26,2103.65
1347.34,2105.0
1352.41,2115.1
1357.48,2110.5
1362.55,2115.95
1367.61,2120.9
1372.67,2131.3
1377.73,2121.45
1382.78,2116.6
1387.84,2125.4
1392.88,2124.55
1397.93,2126.95
1402.97,2141.15
1408.01,2149.05
1413.05,2198.4
1418.08,2236.0
1423.11,2222.45
1428.14,2213.65
1433.16,2243.85
1438.18,2287.65
1443.2,2278.2
1448.21,2264.85
1453.22,2247.8
1458.23,2235.8
1463.23,2250.45
1468.23,2220.75
1473.23,2222.3
1478.23,2195.45
1483.22,2197.3
1488.21,2200.6
1493.2,2193.35
1498.18,2202.4
1503.16,2189.65
1508.14,2205.1
1513.11,2202.7
1518.08,2208.85
1523.05,2222.2
1528.01,2224.75
1532.97,2234.8
1537.93,2232.8
1542.89,2238.95
1547.84,2234.4
1552.79,2247.8
1557.73,2256.3
1562.68,2259.45
1567.62,2256.55
1572.56,2263.4
1577.49,2280.8
1582.42,2255.85
1587.35,2289.0
1592.27,2276.15
1597.19,2293.6
1602.11,2296.0
1607.03,2293.75
1611.94,2295.9
1616.85,2313.0
1621.76,2324.3
1626.66,2326.3
1631.56,2324.6
1636.46,2314.65
1641.36,2337.2
1646.25,2346.8
1651.14,2360.4
1656.02,2373.35
1660.9,2364.4
1665.78,2382.7
1670.66,2379.35
1675.54,2380.45
1680.41,2381.2
1685.27,2419.4
1690.14,2413.0
1695.0,2406.8
1699.86,2412.95
1704.71,2406.55
1709.57,2433.65
1714.42,2449.45
1719.26,2429.75
1724.11,2469.0
1728.95,2456.8
1733.79,2444.55
1738.62,2478.75
1743.46,2510.55
1748.28,2491.8
1753.11,2504.05
1757.93,2508.3
1762.75,2528.25
1767.57,2539.6
1772.39,2525.4
1777.2,2537.15
1782.01,2561.35
1786.81,2596.8
1791.62,2583.65
1796.41,2605.2
1801.21,2576.25
1806.01,2613.2
1810.8,2611.6
1815.59,2622.35
1820.37,2636.3
1825.15,2619.05
1829.93,2644.5
1834.71,2667.4
1839.48,2670.4
1844.25,2682.85
1849.02,2682.85
1853.79,2695.5
1858.55,2725.2
1863.31,2696.75
1868.06,2740.8
1872.82,2749.8
1877.57,2762.75
1882.31,2766.25
1887.06,2749.1
1891.8,2766.55
1896.54,2794.7
1901.28,2839.25
1906.01,2811.5
1910.74,2787.75
1915.47,2842.8
1920.19,2846.05
1924.91,2859.45
1929.63,2836.35
1934.35,2877.65
1939.06,2897.0
1943.77,2883.65
1948.48,2912.7
1953.19,2936.65
1957.89,2905.05
1962.59,2899.3
1967.28,2933.75
1971.98,2964.15
1976.67,3003.3
1981.35,2974.8
1986.04,2995.7
1990.72,3013.45
1995.4,3034.1
2000.08,3019.25
2004.75,3058.35
2009.42,3056.25
2014.09,3091.45
2018.75,3086.4
2023.42,3168.75
2028.08,3137.25
2032.73,3157.05
2037.39,3131.0
2042.04,3165.35
2046.69,3159.95
2051.33,3228.2
2055.97,3215.4
2060.61,3254.0
2065.25,3214.85
2069.88,3242.9
2074.52,3256.35
2079.15,3286.25
2083.77,3298.05
2088.39,3312.1
2093.01,3313.85
2097.63,3311.8
2102.25,3365.0
2106.86,3367.05
2111.47,3364.15
2116.08,3394.35
2120.68,3389.2
2125.28,3438.55
2129.88,3425.45
2134.47,3406.6
2139.07,3435.95
2143.66,3458.2
2148.24,3408.0
2152.83,3469.45
2157.41,3458.5
2161.99,3437.6
2166.57,3491.4
2171.14,3436.4
2175.71,3433.7
2180.28,3486.85
2184.84,3459.3
2189.41,3448.25
2193.97,3468.05
2198.52,3422.2
2203.08,3470.8
2207.63,3475.4
2212.18,3477.0
2216.73,3420.3
2221.27,3399.3
2225.81,3425.05
2230.35,3430.05
2234.89,3419.25
2239.42,3406.55
2243.95,3382.65
2248.48,3431.55
2253.0,3384.35
2257.52,3404.1
2262.04,3378.75
2266.56,3344.75
2271.07,3330.95
2275.58,3316.85
2280.09,3359.7
2284.6,3329.1
2289.1,3287.65
2293.6,3355.05
2298.1,3301.25
2302.6,3274.9
2307.09,3238.0
2311.58,3246.75
2316.07,3249.05
2320.55,3254.2
2325.03,3251.45
2329.51,3209.35
2333.99,3210.65
2338.46,3198.5
2342.93,3193.45
2347.4,3171.85
2351.87,3161.8
2356.33,3189.2
2360.79,3146.65
2365.25,3159.3
2369.71,3130.35
2374.16,3142.35
2378.61,3123.25
2383.06,3120.35
2387.5,3115.15
2391.94,3091.75
2396.38,3079.25
2400.82,3104.15
2405.26,3091.55
2409.69,3078.2
2414.12,3052.6
2418.54,3048.0
2422.97,3059.7
2427.39,3051.55
2431.81,3047.3
2436.22,3026.35
2440.64,3004.4
2445.05,3028.85
2449.46,3008.75
2453.86,2995.4
2458.27,2991.45
2462.67,3011.15
2467.06,2973.05
2471.46,2942.4
2475.85,2929.9
2480.24,2997.5
2484.63,2962.65
2489.02,2935.1
2493.4,2927.6
2497.78,2913.1
2502.16,2919.7
2506.53,2903.25
2510.9,2946.9
2515.27,2918.05
2519.64,2885.6
2524.0,2898.0
2528.37,2886.15
2532.73,2891.75
2537.08,2866.6
2541.44,2875.45
2545.79,2882.3
2550.14,2863.8
2554.48,2820.1
2558.83,2847.95
2563.17,2847.1
2567.51,2846.95
2571.85,2788.4
2576.18,2819.95
2580.51,2794.95
2584.84,2804.3
2589.17,2804.2
2593.49,2812.15
2597.81,2813.3
2602.13,2787.2
2606.45,2786.65
2610.76,2777.15
2615.07,2789.05
2619.38,2778.75
2623.69,2784.05
2627.99,2760.3
2632.29,2781.8
2636.59,2769.7
2640.89,2751.95
2645.18,2756.05
2649.47,2765.45
2653.76,2760.1
2658.05,2768.2
2662.33,2737.9
2666.61,2730.5
2670.89,2757.35
2675.17,2742.45
2679.44,2714.2
2683.71,2715.1
2687.98,2727.2
2692.25,2733.6
2696.51,2729.9
2700.77,2737.05
2705.03,2728.5
2709.29,2730.75
2713.54,2729.8
2717.79,2740.75
2722.04,2745.85
2726.29,2726.35
2730.53,2710.75
2734.77,2718.85
2739.01,2696.75
2743.25,2681.1
2747.48,2651.8
2751.71,2675.2
2755.94,2683.05
2760.17,2633.65
2764.39,2669.95
2768.61,2647.9
2772.83,2643.9
2777.05,2644.85
2781.27,2623.1
2785.48,2657.45
2789.69,2643.85
2793.89,2640.25
2798.1,2632.8
2802.3,2627.8
2806.5,2653.7
2810.7,2620.0
2814.89,2624.55
2819.09,2637.7
2823.28,2699.35
2827.46,2709.35
2831.65,2772.35
2835.83,2949.6
2840.01,3186.25
2844.19,3419.4
2848.37,3591.65
2852.54,3494.9
2856.71,3393.95
2860.88,3246.2
2865.05,3148.1
2869.21,3138.25
2873.37,3231.45
2877.53,3393.0
2881.69,3533.3
2885.84,3482.3
2889.99,3235.55
2894.14,3176.2
2898.29,3107.3
2902.43,3089.95
2906.58,3012.75
2910.72,2966.1
2914.85,2908.35
2918.99,2889.35
2923.12,2909.7
2927.25,2842.8
2931.38,2871.1
2935.5,2818.2
2939.63,2781.65
2943.75,2705.9
2947.87,2676.35
2951.98,2631.15
2956.1,2632.65
2960.21,2591.1
2964.32,2559.75
2968.42,2588.8
2972.53,2589.55
2976.63,2580.5
2980.73,2602.75
2984.83,2572.05
2988.92,2585.75
2993.01,2578.9
2997.1,2571.2
3001.19,2575.8
3005.28,2596.05
3009.36,2572.2
3013.44,2557.25
3017.52,2572.5
3021.6,2586.85
3025.67,2586.4
3029.74,2561.25
3033.81,2560.95
3037.88,2587.55
3041.94,2580.95
3046.01,2582.25
3050.07,2576.1
3054.12,2575.3
3058.18,2569.1
3062.23,2581.5
3066.28,2530.9
3070.33,2575.4
3074.38,2591.35
3078.42,2596.55
3082.46,2588.1
3086.5,2575.4
3090.54,2557.8
3094.57,2567.15
3098.6,2575.75
3102.63,2605.6
3106.66,2606.75
3110.69,2567.25
3114.71,2558.0
3118.73,2574.45
3122.75,2596.55
3126.77,2591.05
3130.78,2583.95
3134.79,2608.2
3138.8,2576.6
3142.81,2580.75
3146.81,2618.35
3150.82,2611.7
3154.82,2585.7
3158.81,2612.9
3162.81,2635.35
3166.8,2618.4
3170.79,2602.65
3174.78,2581.6
3178.77,2622.6
3182.75,2633.65
3186.74,2601.15
3190.72,2599.5
3194.69,2600.6
3198.67,2596.9
3202.64,2613.7
3206.61,2620.8
3210.58,2617.1
3214.55,2663.9
3218.51,2629.1
3222.47,2646.45
3226.43,2640.2
3230.39,2648.4
3234.35,2632.55
3238.3,2617.65
3242.25,2613.55
3246.2,2642.1
3250.15,2629.75
3254.09,2649.4
3258.03,2673.65
3261.97,2626.5
3265.91,2646.9
3269.84,2632.95
3273.78,2645.5
3277.71,2643.6
3281.64,2629.0
3285.56,2680.3
3289.49,2655.45
3293.41,2660.75
3297.33,2660.8
3301.25,2670.25
3305.16,2674.65
3309.07,2670.25
3312.99,2649.1
3316.89,2696.7
3320.8,2642.8
3324.7,2645.9
3328.61,2669.5
3332.51,2645.45
3336.4,2675.6
3340.3,2655.0
3344.19,2663.25
3348.08,2678.45
3351.97,2686.55
3355.86,2652.55
3359.74,2661.75
3363.63,2669.05
3367.51,2636.95
3371.39,2631.9
3375.26,2673.3
3379.13,2675.25
3383.01,2679.1
3386.88,2652.45
3390.74,2661.65
3394.61,2651.05
3398.47,2651.75
3402.33,2684.1
3406.19,2650.35
3410.05,2628.15
3413.9,2663.55
3417.75,2666.1
3421.6,2685.45
3425.45,2676.4
3429.3,2664.95
3433.14,2685.1
3436.98,2697.0
3440.82,2672.3
3444.66,2662.15
3448.49,2650.15
3452.32,2657.8
3456.15,2691.25
3459.98,2691.4
3463.81,2675.5
3467.63,2657.8
3471.46,2657.2
3475.28,2672.55
3479.09,2681.45
3482.91,2655.3
3486.72,2635.2
3490.53,2611.35
3494.34,2636.55
3498.15,2658.5
3501.96,2692.85
3505.76,2636.4
3509.56,2657.15
3513.36,2639.85
3517.15,2616.5
3520.95,2626.6
3524.74,2624.35
3528.53,2611.8
3532.32,2615.75
3536.11,2634.55
3539.89,2610.9
3543.67,2626.7
3547.45,2607.55
3551.23,2613.9
3555.0,2563.6
3558.78,2591.3
3562.55,2621.8
3566.32,2594.55
3570.09,2589.4
3573.85,2578.75
3577.61,2560.7
3581.37,2575.9
3585.13,2557.65
3588.89,2561.15
3592.64,2576.5
3596.4,2545.75
3600.15,2526.5
3603.9,2556.5
3607.64,2525.45
3611.39,2516.05
3615.13,2530.05
3618.87,2529.75
3622.61,2470.5
3626.34,2506.6
3630.08,2520.8
3633.81,2483.7
3637.54,2491.95
3641.27,2458.9
3644.99,2473.75
3648.72,2514.05
3652.44,2460.05
3656.16,2493.55
3659.87,2465.4
3663.59,2478.35
3665.45,2461.95