File: spectra/VLFR_02-HDPE_nobio_Raman_2b3cf964.csv
nm,Intensity
526.5,828.7
526.637,828.8
526.774,829.1
526.91,829.6
527.047,829.6
527.184,830.0
527.32,829.8
527.457,829.9
527.594,829.0
527.73,828.9
527.867,827.9
528.004,830.5
528.14,829.5
528.277,829.8
528.414,828.7
528.55,829.5
528.687,829.5
528.823,831.3
528.96,828.7
529.096,829.2
529.233,829.2
529.37,828.2
529.506,828.8
529.643,829.7
529.779,829.0
529.916,829.2
530.052,828.6
530.189,829.0
530.325,829.7
530.462,828.8
530.598,828.5
530.735,830.9
530.871,828.2
531.008,830.7
531.144,828.2
531.28,829.5
531.417,830.5
531.553,828.9
531.69,828.6
531.826,829.5
531.962,831.4
532.099,850.6
532.235,855.3
532.372,837.2
532.508,829.4
532.644,828.9
532.781,829.1
532.917,828.6
533.053,830.0
533.19,829.3
533.326,829.6
533.462,829.7
533.599,828.8
533.735,834.4
533.871,850.2
534.007,878.1
534.144,889.1
534.28,887.3
534.416,882.2
534.552,880.3
534.689,876.4
534.825,877.9
534.961,872.4
535.097,869.3
535.234,866.1
535.37,865.6
535.506,861.7
535.642,860.3
535.778,857.5
535.914,854.8
536.051,854.5
536.187,851.3
536.323,854.0
536.459,850.2
536.595,850.0
536.731,850.4
536.867,850.9
537.003,847.7
537.14,848.9
537.276,849.7
537.412,848.4
537.548,847.3
537.684,848.7
537.82,850.2
537.956,847.4
538.092,848.7
538.228,847.9
538.364,847.4
538.5,846.8
538.636,846.6
538.772,847.5
538.908,845.1
539.044,844.3
539.18,842.4
539.316,843.4
539.452,845.0
539.588,843.1
539.724,843.4
539.86,842.4
539.996,841.8
540.132,841.1
540.268,841.1
540.403,841.8
540.539,841.5
540.675,841.7
540.811,842.6
540.947,841.2
541.083,840.1
541.219,842.0
541.355,840.0
541.49,842.0
541.626,841.4
541.762,841.8
541.898,842.4
542.034,841.2
542.17,841.1
542.305,840.5
542.441,841.1
542.577,840.3
542.713,843.0
542.848,840.8
542.984,839.0
543.12,838.9
543.256,839.7
543.391,842.3
543.527,839.1
543.663,841.6
543.799,840.7
543.934,843.0
544.07,839.7
544.206,838.7
544.341,840.7
544.477,839.7
544.613,839.5
544.748,840.8
544.884,839.8
545.02,840.8
545.155,840.9
545.291,842.4
545.427,839.0
545.562,839.8
545.698,839.3
545.833,840.0
545.969,840.5
546.105,838.8
546.24,840.7
546.376,840.9
546.511,839.9
546.647,840.3
546.782,836.1
546.918,840.5
547.053,839.0
547.189,838.4
547.325,841.2
547.46,840.4
547.596,840.3
547.731,840.8
547.867,839.9
548.002,839.8
548.137,839.8
548.273,840.6
548.408,841.8
548.544,839.8
548.679,837.3
548.815,841.1
548.95,839.9
549.086,840.7
549.221,839.0
549.356,840.7
549.492,839.9
549.627,840.5
549.763,841.0
549.898,838.3
550.033,838.5
550.169,841.1
550.304,839.3
550.439,839.8
550.575,839.3
550.71,840.4
550.845,839.2
550.981,839.7
551.116,840.1
551.251,839.3
551.387,840.6
551.522,839.8
551.657,840.9
551.793,841.2
551.928,841.7
552.063,841.3
552.198,841.1
552.334,841.8
552.469,839.6
552.604,840.1
552.739,839.8
552.874,839.6
553.01,840.4
553.145,841.1
553.28,841.9
553.415,842.5
553.55,843.8
553.686,843.7
553.821,844.1
553.956,843.3
554.091,841.6
554.226,842.8
554.361,844.6
554.497,842.1
554.632,842.2
554.767,843.3
554.902,843.4
555.037,844.0
555.172,841.8
555.307,840.3
555.442,845.4
555.577,844.9
555.712,843.4
555.848,844.2
555.983,843.6
556.118,845.8
556.253,845.1
556.388,845.2
556.523,844.6
556.658,846.4
556.793,846.1
556.928,846.9
557.063,847.2
557.198,845.1
557.333,848.6
557.468,848.4
557.603,848.5
557.738,849.0
557.873,849.1
558.008,850.3
558.142,848.8
558.277,851.8
558.412,852.2
558.547,853.5
558.682,852.1
558.817,848.5
558.952,850.8
559.087,849.2
559.222,851.1
559.357,848.9
559.492,848.4
559.626,849.0
559.761,849.7
559.896,847.4
560.031,847.8
560.166,849.0
560.301,848.5
560.435,847.7
560.57,846.5
560.705,847.2
560.84,849.7
560.975,846.3
561.109,846.6
561.244,849.2
561.379,846.9
561.514,846.3
561.649,848.4
561.783,845.5
561.918,851.6
562.053,848.1
562.188,849.6
562.322,849.1
562.457,851.4
562.592,850.1
562.726,851.3
562.861,851.8
562.996,852.4
563.131,853.3
563.265,852.2
563.4,855.5
563.535,859.8
563.669,861.1
563.804,876.0
563.939,936.3
564.073,994.1
564.208,943.3
564.342,885.0
564.477,872.8
564.612,871.7
564.746,868.3
564.881,867.3
565.015,866.9
565.15,865.1
565.285,861.6
565.419,861.8
565.554,863.2
565.688,869.6
565.823,877.9
565.957,912.9
566.092,1002.7
566.227,1110.2
566.361,1002.4
566.496,896.0
566.63,868.3
566.765,859.3
566.899,858.7
567.034,857.6
567.168,854.6
567.303,854.8
567.437,861.8
567.572,860.3
567.706,854.8
567.84,850.7
567.975,853.2
568.109,851.4
568.244,850.9
568.378,850.8
568.513,851.4
568.647,851.1
568.781,851.0
568.916,852.0
569.05,852.3
569.185,851.9
569.319,854.2
569.453,853.4
569.588,854.6
569.722,851.8
569.857,851.2
569.991,853.9
570.125,852.0
570.26,854.0
570.394,855.6
570.528,859.2
570.663,859.7
570.797,860.2
570.931,862.7
571.065,863.2
571.2,866.5
571.334,884.7
571.468,983.6
571.603,1111.8
571.737,986.0
571.871,894.7
572.005,877.3
572.14,870.4
572.274,866.2
572.408,862.7
572.542,858.0
572.677,853.5
572.811,852.4
572.945,853.3
573.079,853.6
573.213,855.3
573.348,851.8
573.482,853.4
573.616,854.7
573.75,855.6
573.884,862.4
574.018,865.6
574.153,862.1
574.287,853.7
574.421,852.4
574.555,850.6
574.689,851.7
574.823,850.9
574.957,851.3
575.092,854.0
575.226,860.2
575.36,882.1
575.494,967.1
575.628,1013.1
575.762,939.5
575.896,906.9
576.03,904.7
576.164,922.2
576.298,944.0
576.432,940.9
576.566,922.1
576.7,911.2
576.834,911.4
576.968,908.1
577.103,907.2
577.237,898.0
577.371,888.0
577.505,873.4
577.639,866.9
577.773,861.6
577.907,859.5
578.04,854.0
578.174,853.4
578.308,856.4
578.442,854.9
578.576,853.8
578.71,852.3
578.844,852.0
578.978,852.0
579.112,853.7
579.246,853.2
579.38,854.0
579.514,852.4
579.648,853.0
579.782,851.8
579.916,854.9
580.049,853.6
580.183,852.5
580.317,851.6
580.451,852.7
580.585,852.8
580.719,852.6
580.853,854.4
580.986,853.7
581.12,854.9
581.254,852.8
581.388,855.9
581.522,854.2
581.656,852.9
581.789,857.3
581.923,853.2
582.057,854.5
582.191,852.8
582.325,856.2
582.458,852.9
582.592,854.8
582.726,854.7
582.86,856.3
582.993,858.3
583.127,857.0
583.261,855.7
583.395,857.2
583.528,857.3
583.662,856.3
583.796,857.2
583.93,859.1
584.063,858.7
584.197,860.0
584.331,858.5
584.464,857.6
584.598,858.3
584.732,860.2
584.865,862.0
584.999,862.5
585.133,863.1
585.266,864.2
585.4,864.7
585.534,867.1
585.667,865.0
585.801,868.0
585.935,868.9
586.068,868.2
586.202,869.1
586.336,869.8
586.469,872.8
586.603,871.4
586.736,873.1
586.87,871.6
587.004,873.9
587.137,872.4
587.271,875.4
587.404,875.8
587.538,878.4
587.671,881.2
587.805,881.8
587.938,880.3
588.072,878.1
588.206,883.9
588.339,885.2
588.473,887.6
588.606,885.9
588.74,886.7
588.873,890.3
589.007,889.5
589.14,890.0
589.274,888.7
589.407,890.0
589.541,890.8
589.674,891.3
589.808,891.5
589.941,893.0
590.074,895.5
590.208,898.3
590.341,895.0
590.475,896.8
590.608,892.7
590.742,899.7
590.875,897.4
591.009,900.5
591.142,899.0
591.275,903.6
591.409,903.3
591.542,900.4
591.676,899.9
591.809,902.6
591.942,905.2
592.076,903.2
592.209,901.7
592.342,902.4
592.476,905.5
592.609,902.0
592.743,904.2
592.876,901.3
593.009,903.9
593.143,902.4
593.276,901.0
593.409,903.2
593.543,900.0
593.676,900.0
593.809,900.1
593.942,898.7
594.076,904.5
594.209,899.3
594.342,903.4
594.476,896.7
594.609,901.2
594.742,896.5
594.875,902.4
595.009,897.4
595.142,898.4
595.275,898.0
595.408,897.4
595.542,894.4
595.675,898.4
595.808,898.3
595.941,892.7
596.075,894.5
596.208,895.7
596.341,896.7
596.474,893.3
596.607,893.1
596.741,893.6
596.874,891.1
597.007,894.0
597.14,892.0
597.273,895.6
597.406,892.2
597.54,889.3
597.673,890.6
597.806,888.8
597.939,890.3
598.072,892.4
598.205,893.3
598.338,889.7
598.472,890.0
598.605,892.2
598.738,890.2
598.871,890.5
599.004,892.6
599.137,891.6
599.27,890.6
599.403,890.4
599.536,891.8
599.67,895.8
599.803,894.3
599.936,892.8
600.069,890.0
600.202,890.5
600.335,889.0
600.468,889.3
600.601,889.0
600.734,892.1
600.867,886.0
601.0,889.3
601.133,891.1
601.266,888.9
601.399,892.6
601.532,888.0
601.665,888.9
601.798,888.3
601.931,893.0
602.064,892.7
602.197,889.9
602.33,887.0
602.463,889.2
602.596,887.5
602.729,888.3
602.862,890.8
602.995,889.5
603.128,887.2
603.261,887.3
603.394,890.4
603.527,888.8
603.66,887.3
603.793,886.5
603.925,884.6
604.058,886.7
604.191,889.9
604.324,885.5
604.457,888.4
604.59,885.7
604.723,885.5
604.856,886.5
604.989,883.5
605.122,885.2
605.254,883.1
605.387,883.7
605.52,882.1
605.653,881.5
605.786,887.0
605.919,880.7
606.052,883.3
606.184,881.4
606.317,883.1
606.45,882.0
606.583,879.3
606.716,881.6
606.849,881.9
606.981,879.0
607.114,877.6
607.247,878.0
607.38,879.4
607.513,880.2
607.645,879.0
607.778,881.5
607.911,879.8
608.044,878.5
608.177,881.6
608.309,879.4
608.442,878.2
608.575,877.2
608.708,880.6
608.84,875.7
608.973,876.2
609.106,879.0
609.239,879.5
609.371,879.0
609.504,876.8
609.637,879.7
609.769,876.6
609.902,877.3
610.035,878.4
610.168,877.9
610.3,875.1
610.433,877.3
610.566,879.2
610.698,879.5
610.831,881.3
610.964,879.3
611.096,879.9
611.229,879.9
611.362,881.0
611.494,880.7
611.627,879.9
611.76,874.3
611.892,875.1
612.025,874.6
612.158,874.6
612.29,877.2
612.423,877.5
612.556,873.4
612.688,875.3
612.821,875.2
612.953,875.0
613.086,873.9
613.219,875.7
613.351,871.1
613.484,874.2
613.616,870.9
613.749,872.9
613.882,873.3
614.014,872.5
614.147,873.5
614.279,871.0
614.412,872.8
614.544,873.2
614.677,871.9
614.809,872.2
614.942,870.9
615.075,872.8
615.207,873.4
615.34,872.8
615.472,873.6
615.605,869.6
615.737,870.8
615.87,869.2
616.002,872.1
616.135,873.1
616.267,873.1
616.4,874.6
616.532,872.5
616.665,872.3
616.797,871.5
616.93,875.6
617.062,873.1
617.195,873.8
617.327,878.1
617.46,875.1
617.592,876.2
617.725,871.3
617.857,872.1
617.989,875.3
618.122,873.8
618.254,874.0
618.387,873.1
618.519,874.5
618.652,873.4
618.784,873.1
618.917,871.6
619.049,873.0
619.181,875.5
619.314,874.3
619.446,875.3
619.579,876.3
619.711,874.9
619.843,875.9
619.976,874.1
620.108,873.2
620.241,876.3
620.373,873.1
620.505,873.8
620.638,874.2
620.77,875.8
620.902,874.0
621.035,877.2
621.167,877.2
621.299,878.3
621.432,881.8
621.564,880.2
621.696,886.4
621.829,888.3
621.961,893.1
622.093,894.6
622.226,898.7
622.358,899.5
622.49,898.7
622.623,895.1
622.755,888.0
622.887,883.1
623.02,875.4
623.152,875.9
623.284,875.2
623.416,876.9
623.549,873.5
623.681,876.0
623.813,874.7
623.946,873.3
624.078,874.0
624.21,870.9
624.342,871.1
624.475,873.3
624.607,873.8
624.739,874.2
624.871,871.8
625.004,874.5
625.136,875.8
625.268,876.2
625.4,876.6
625.533,877.6
625.665,881.0
625.797,880.3
625.929,886.1
626.061,886.4
626.194,892.6
626.326,898.2
626.458,912.3
626.59,934.4
626.722,980.0
626.855,1062.1
626.987,1176.8
627.119,1327.7
627.251,1426.6
627.383,1404.9
627.516,1330.1
627.648,1261.4
627.78,1213.2
627.912,1178.9
628.044,1157.3
628.176,1159.9
628.308,1186.9
628.441,1288.7
628.573,1438.5
628.705,1400.0
628.837,1272.3
628.969,1215.0
629.101,1196.3
629.233,1186.7
629.366,1163.2
629.498,1144.6
629.63,1116.9
629.762,1095.3
629.894,1070.6
630.026,1066.6
630.158,1057.5
630.29,1059.9
630.422,1059.4
630.554,1048.2
630.687,1029.8
630.819,1011.2
630.951,979.7
631.083,947.9
631.215,927.6
631.347,911.9
631.479,900.8
631.611,895.7
631.743,892.2
631.875,891.8
632.007,887.3
632.139,882.5
632.271,880.8
632.403,881.0
632.535,878.5
632.667,880.6
632.799,873.6
632.931,876.0
633.063,877.8
633.195,873.9
633.328,873.6
633.46,873.1
633.592,872.5
633.724,873.7
633.856,871.6
633.988,871.1
634.12,869.5
634.252,870.8
634.384,868.1
634.516,867.6
634.647,873.2
634.779,869.3
634.911,870.4
635.043,868.1
635.175,869.1
635.307,868.0
635.439,870.8
635.571,865.6
635.703,867.1
635.835,869.7
635.967,869.9
636.099,866.3
636.231,868.8
636.363,869.6
636.495,872.0
636.627,870.1
636.759,870.1
636.891,867.7
637.023,866.9
637.155,865.3
637.286,868.6
637.418,868.4
637.55,868.3
637.682,868.0
637.814,870.5
637.946,870.1
638.078,866.7
638.21,867.2
638.342,868.5
638.474,868.8
638.605,866.0
638.737,868.6
638.869,870.0
639.001,867.6
639.133,867.7
639.265,868.4
639.397,871.0
639.529,867.7
639.66,871.4
639.792,867.4
639.924,868.9
640.056,869.3
640.188,867.6
640.32,870.5
640.452,872.2
640.583,870.6
640.715,871.9
640.847,872.2
640.979,872.0
641.111,873.1
641.243,871.3
641.374,871.4
641.506,872.3
641.638,872.1
641.77,872.4
641.902,873.2
642.033,873.5
642.165,873.8
642.297,870.1
642.429,873.5
642.561,871.7
642.692,876.1
642.824,872.8
642.956,870.9
643.088,872.9
643.22,875.4
643.351,870.6
643.483,874.5
643.615,872.0
643.747,874.6
643.878,870.3
644.01,872.9
644.142,872.4
644.274,873.2
644.405,870.5
644.537,873.2
644.669,872.7
644.801,872.9
644.932,874.1
645.064,871.4
645.196,873.6
645.328,872.0
645.459,869.4
645.591,874.7
645.723,874.3
645.854,874.5
645.986,871.6
646.118,871.7
646.25,871.1
646.381,872.4
646.513,872.4
646.645,873.9
646.776,869.6
646.908,873.6
647.04,871.7
647.172,870.6
647.303,870.1
647.435,868.7
647.567,869.0
647.698,869.2
647.83,869.6
647.962,871.0
648.093,867.7
648.225,870.0
648.357,869.5
648.488,869.7
648.62,870.4
648.752,871.6
648.883,869.2
649.015,869.8
649.147,869.9
649.278,871.2
649.41,870.3
649.542,868.9
649.673,870.7
649.805,869.1
649.937,869.1
650.068,866.7
650.2,868.0
650.331,869.6
650.463,868.0
650.595,870.7
650.726,867.0
650.858,867.0
650.99,868.9
651.121,865.7
651.253,867.6
651.384,867.0
651.516,866.2
651.648,869.1
651.779,865.8
651.911,864.6
652.042,867.6
652.174,866.9
652.306,865.8
652.437,864.9
652.569,865.2
652.7,866.1
652.832,867.5
652.963,866.5
653.095,866.2
653.227,865.6
653.358,864.6
653.49,863.6
653.621,865.5
653.753,862.9
653.884,863.0
654.016,865.0
654.148,863.4
654.279,862.6
654.411,868.3
654.542,862.4
654.674,863.4
654.805,863.9
654.937,864.9
655.068,865.7
655.2,863.1
655.331,862.6
655.463,865.1
655.595,864.0
655.726,864.1
655.858,862.8
655.989,864.5
656.121,864.3
656.252,861.3
656.384,862.6
656.515,864.1
656.647,859.0
656.778,862.5
656.91,862.4
657.041,863.6
657.173,864.7
657.304,862.9
657.436,864.0
657.567,862.4
657.699,861.1
657.83,863.6
657.962,862.9
658.093,860.5
658.225,864.1
658.356,863.2
658.488,862.3
658.619,863.1
658.751,861.6
658.882,862.1
659.013,862.6
659.145,863.6
659.276,862.1
659.408,861.0
659.539,860.6
659.671,863.9
659.802,862.9
659.934,861.1
660.065,862.6
660.197,862.7
660.328,863.1
660.459,860.9
660.591,862.3
660.722,863.2
660.854,859.5
660.985,859.4
661.117,859.4
661.248,859.2
661.38,860.9
661.511,859.3
661.642,858.7
661.774,856.6
661.905,857.7
662.037,857.7
662.168,856.7
662.299,859.9
662.431,856.8
662.562,856.6
662.694,859.6
662.825,857.4
662.957,855.1
663.088,855.7