File: spectra/VLFR_08-PLA_nobio_Raman_d7121a8d.csv
cm-1,Intensity
-123.878,1861.25
-117.855,1860.45
-111.836,1860.45
-105.821,1862.1
-99.8104,1861.6
-93.8036,1860.6
-87.8007,1861.05
-81.8019,1862.4
-75.807,1860.55
-69.8161,1859.2
-63.8293,1861.55
-57.8464,1861.0
-51.8675,1862.85
-45.8926,1863.1
-39.9216,1862.1
-33.9547,1864.95
-27.9917,1865.05
-22.0326,1866.25
-16.0776,1891.2
-10.1265,2253.1
-4.17932,3225.5
1.76388,3241.6
7.70313,1960.6
13.6384,1866.65
19.5698,1865.85
25.4972,1866.0
31.4207,1867.45
37.3403,1871.7
43.256,1883.25
49.1677,2014.7
55.0755,2715.75
60.9794,4119.15
66.8794,5073.45
72.7754,5429.65
78.6676,5483.9
84.5559,5499.65
90.4402,5673.55
96.3207,5843.7
102.197,5796.2
108.07,5924.6
113.939,6084.65
119.804,6145.3
125.665,6049.0
131.522,6043.9
137.375,5985.6
143.225,6130.5
149.07,6107.9
154.912,6111.45
160.75,6109.55
166.584,6202.9
172.414,6227.05
178.241,6160.75
184.063,6391.85
189.882,6382.65
195.697,6408.4
201.508,6442.75
207.315,6401.5
213.119,6485.8
218.918,6496.9
224.714,6446.65
230.506,6548.2
236.294,6573.4
242.078,6674.45
247.859,6661.1
253.636,6614.5
259.409,6657.15
265.178,6792.5
270.943,6760.5
276.705,6773.35
282.463,6847.45
288.217,6891.4
293.967,7041.7
299.713,6825.25
305.456,6951.4
311.195,6946.45
316.93,6956.15
322.662,7071.9
328.389,7091.6
334.113,7042.6
339.834,7113.6
345.55,7123.15
351.263,7173.4
356.972,7273.0
362.677,7308.95
368.379,7268.4
374.077,7337.4
379.771,7369.7
385.461,7407.15
391.148,7450.15
396.831,7455.65
402.51,7478.0
408.186,7552.25
413.858,7525.2
419.526,7406.4
425.19,7687.9
430.851,7708.95
436.508,7706.65
442.162,7854.85
447.811,7693.0
453.458,7783.85
459.1,7861.25
464.739,7976.1
470.374,7998.0
476.005,7985.9
481.633,8021.7
487.257,8063.55
492.878,8068.6
498.494,8067.3
504.107,8266.35
509.717,8217.35
515.323,8182.45
520.925,8229.05
526.524,8226.4
532.119,8337.25
537.71,8350.95
543.298,8310.65
548.882,8431.5
554.462,8614.75
560.039,8459.65
565.613,8510.85
571.182,8753.7
576.748,8571.35
582.311,8504.15
587.87,8548.65
593.425,8636.4
598.977,8656.6
604.525,8718.65
610.069,8667.2
615.61,8826.05
621.148,8643.0
626.682,8809.75
632.212,9051.7
637.739,9080.5
643.262,8921.0
648.781,9150.05
654.297,9083.75
659.81,9195.95
665.319,9137.6
670.824,9143.0
676.326,9264.5
681.824,9261.65
687.319,9286.5
692.81,9200.8
698.298,9291.3
703.782,9214.7
709.262,9231.15
714.739,9293.2
720.213,9376.15
725.683,9330.05
731.15,9504.6
736.613,9350.85
742.072,9336.6
747.528,9549.0
752.981,9447.05
758.43,9769.65
763.875,9686.85
769.317,9786.55
774.756,9843.7
780.191,9664.25
785.623,9769.2
791.051,9834.15
796.475,9802.5
801.897,9736.85
807.314,9980.05
812.729,9886.8
818.139,9857.85
823.547,9909.25
828.951,9972.2
834.351,9987.0
839.748,10089.3
845.142,10006.0
850.532,9862.75
855.918,10067.7
861.302,10154.0
866.681,10216.5
872.058,10264.6
877.431,10140.4
882.8,10418.9
888.166,10453.2
893.529,10231.5
898.888,10521.0
904.244,10525.5
909.596,10467.8
914.945,10677.0
920.291,10687.8
925.633,10462.7
930.972,10574.5
936.308,10675.3
941.64,10461.2
946.968,10769.2
952.294,10568.6
957.615,11091.8
962.934,10839.5
968.249,10946.8
973.561,10683.8
978.869,10941.4
984.174,10891.4
989.476,11112.2
994.774,11074.4
1000.07,11182.5
1005.36,11320.3
1010.65,11331.3
1015.93,11126.0
1021.22,11237.4
1026.49,11609.8
1031.77,11473.5
1037.04,11430.8
1042.31,11393.0
1047.57,11578.7
1052.83,11328.8
1058.09,11304.0
1063.35,11519.9
1068.6,11567.9
1073.85,11479.8
1079.09,11597.0
1084.33,11750.5
1089.57,12022.2
1094.81,12120.8
1100.04,11886.2
1105.27,12037.5
1110.49,12100.6
1115.71,12086.1
1120.93,12333.0
1126.15,12333.2
1131.36,12062.0
1136.57,12313.9
1141.77,12447.2
1146.98,12356.1
1152.18,12287.3
1157.37,12340.2
1162.56,12148.2
1167.75,12236.2
1172.94,12437.5
1178.12,12449.1
1183.3,12473.0
1188.48,12469.2
1193.65,12567.5
1198.82,12731.8
1203.99,12564.7
1209.15,12764.5
1214.31,12930.1
1219.46,12880.7
1224.62,13017.2
1229.77,12920.6
1234.92,12850.2
1240.06,13307.8
1245.2,13080.0
1250.34,12950.1
1255.47,13222.2
1260.6,13183.5
1265.73,13357.5
1270.85,13196.7
1275.97,13126.5
1281.09,13367.0
1286.21,13558.3
1291.32,13644.3
1296.43,13730.5
1301.53,13664.6
1306.63,13855.4
1311.73,13697.2
1316.83,13682.2
1321.92,13781.4
1327.01,13708.3
1332.1,13940.2
1337.18,13821.5
1342.26,14132.0
1347.34,14110.4
1352.41,13892.4
1357.48,13853.5
1362.55,14083.8
1367.61,13958.5
1372.67,13987.3
1377.73,13823.8
1382.78,13842.5
1387.84,14152.0
1392.88,13925.2
1397.93,14095.8
1402.97,13920.0
1408.01,14370.8
1413.05,14229.8
1418.08,13857.7
1423.11,14148.8
1428.14,14392.1
1433.16,13855.3
1438.18,14064.9
1443.2,14268.3
1448.21,14030.1
1453.22,14019.2
1458.23,13824.3
1463.23,13856.5
1468.23,14166.0
1473.23,14195.3
1478.23,13935.5
1483.22,14124.3
1488.21,14236.3
1493.2,13910.8
1498.18,13997.6
1503.16,14084.5
1508.14,14070.3
1513.11,13899.9
1518.08,14244.1
1523.05,14347.5
1528.01,13765.9
1532.97,14359.5
1537.93,14353.3
1542.89,14393.3
1547.84,14446.8
1552.79,14508.7
1557.73,14712.8
1562.68,14876.5
1567.62,14725.7
1572.56,14857.5
1577.49,14892.3
1582.42,14853.3
1587.35,14876.8
1592.27,14764.3
1597.19,14831.8
1602.11,14846.5
1607.03,14602.3
1611.94,14319.3
1616.85,14235.0
1621.76,14623.0
1626.66,14351.7
1631.56,14559.2
1636.46,14231.6
1641.36,14359.5
1646.25,14431.3
1651.14,14308.9
1656.02,14466.6
1660.9,14495.9
1665.78,14423.0
1670.66,14397.3
1675.54,14488.1
1680.41,14435.8
1685.27,14526.6
1690.14,14479.0
1695.0,14420.3
1699.86,14375.5
1704.71,14497.9
1709.57,14316.8
1714.42,14470.8
1719.26,14605.2
1724.11,14339.0
1728.95,14265.2
1733.79,14616.7
1738.62,14620.2
1743.46,14572.5
1748.28,14608.8
1753.11,14598.2
1757.93,14678.2
1762.75,14780.2
1767.57,14623.2
1772.39,14506.8
1777.2,14854.9
1782.01,15017.3
1786.81,14901.5
1791.62,14972.9
1796.41,14801.4
1801.21,14802.3
1806.01,14931.7
1810.8,14989.2
1815.59,14895.6
1820.37,14921.7
1825.15,14581.8
1829.93,14540.7
1834.71,14894.3
1839.48,15033.3
1844.25,14948.4
1849.02,14873.8
1853.79,14808.9
1858.55,14701.3
1863.31,14977.8
1868.06,15100.8
1872.82,15369.5
1877.57,15129.8
1882.31,15134.3
1887.06,15133.2
1891.8,15067.3
1896.54,15149.3
1901.28,15360.6
1906.01,15260.3
1910.74,15603.0
1915.47,15413.0
1920.19,15038.1
1924.91,15168.2
1929.63,15452.7
1934.35,15171.6
1939.06,15166.5
1943.77,15163.0
1948.48,15495.7
1953.19,15183.6
1957.89,15118.2
1962.59,15577.5
1967.28,15430.8
1971.98,15243.8
1976.67,15414.5
1981.35,15536.3
1986.04,15677.9
1990.72,15633.7
1995.4,15680.0
2000.08,15567.2
2004.75,15736.8
2009.42,15856.5
2014.09,15650.3
2018.75,15694.7
2023.42,16042.6
2028.08,15871.0
2032.73,15759.0
2037.39,15690.3
2042.04,15894.7
2046.69,15562.0
2051.33,15811.2
2055.97,16077.5
2060.61,15999.5
2065.25,15856.3
2069.88,15911.3
2074.52,15784.8
2079.15,15976.5
2083.77,15841.5
2088.39,16092.5
2093.01,15991.2
2097.63,15894.5
2102.25,16047.4
2106.86,16209.8
2111.47,16021.2
2116.08,16054.7
2120.68,16534.5
2125.28,16316.0
2129.88,15831.9
2134.47,16416.0
2139.07,16250.5
2143.66,16417.8
2148.24,16059.0
2152.83,16566.7
2157.41,16502.9
2161.99,16366.9
2166.57,16451.7
2171.14,16285.2
2175.71,16445.5
2180.28,16322.4
2184.84,16467.3
2189.41,16695.8
2193.97,16567.0
2198.52,16262.1
2203.08,16598.2
2207.63,16777.7
2212.18,16802.7
2216.73,16816.9
2221.27,16601.7
2225.81,16477.1
2230.35,16491.7
2234.89,16761.2
2239.42,16672.7
2243.95,16772.0
2248.48,16488.9
2253.0,16695.2
2257.52,16979.3
2262.04,16948.1
2266.56,16850.8
2271.07,16672.3
2275.58,16891.2
2280.09,16562.8
2284.6,16986.6
2289.1,16875.1
2293.6,16830.2
2298.1,17020.2
2302.6,17030.2
2307.09,16671.7
2311.58,17131.3
2316.07,17243.7
2320.55,17217.6
2325.03,16973.8
2329.51,17363.8
2333.99,16980.8
2338.46,17120.2
2342.93,17341.9
2347.4,17259.8
2351.87,17295.7
2356.33,17215.9
2360.79,17214.6
2365.25,17409.7
2369.71,16953.3
2374.16,17187.4
2378.61,17276.6
2383.06,17280.1
2387.5,17625.9
2391.94,17299.3
2396.38,17421.8
2400.82,17319.8
2405.26,17707.1
2409.69,17523.3
2414.12,17357.4
2418.54,17652.7
2422.97,17673.1
2427.39,17599.3
2431.81,18006.1
2436.22,17796.4
2440.64,17816.6
2445.05,17618.3
2449.46,17509.9
2453.86,17550.9
2458.27,17822.1
2462.67,18047.2
2467.06,17716.6
2471.46,18052.9
2475.85,17601.8
2480.24,17641.8
2484.63,17894.3
2489.02,18066.0
2493.4,17976.2
2497.78,17535.6
2502.16,18316.4
2506.53,17774.8
2510.9,18221.3
2515.27,17920.0
2519.64,17929.9
2524.0,17996.7
2528.37,18088.8
2532.73,18089.9
2537.08,18028.6
2541.44,18185.8
2545.79,18096.6
2550.14,18073.8
2554.48,18260.2
2558.83,18422.2
2563.17,17993.3
2567.51,18543.3
2571.85,18163.2
2576.18,18191.1
2580.51,18133.2
2584.84,18317.2
2589.17,18205.1
2593.49,18499.6
2597.81,18152.7
2602.13,18406.1
2606.45,18645.8
2610.76,18270.1
2615.07,18347.8
2619.38,18549.5
2623.69,18548.6
2627.99,18567.5
2632.29,18403.3
2636.59,18272.1
2640.89,18810.1
2645.18,18630.3
2649.47,18843.8
2653.76,18673.6
2658.05,18891.9
2662.33,18905.9
2666.61,18491.6
2670.89,18659.8
2675.17,18860.2
2679.44,18620.9
2683.71,18777.3
2687.98,18770.9
2692.25,18926.0
2696.51,18821.2
2700.77,18701.3
2705.03,19154.7
2709.29,18716.6
2713.54,19100.1
2717.79,18649.9
2722.04,18540.3
2726.29,18843.6
2730.53,19229.7
2734.77,19207.8
2739.01,19130.3
2743.25,18816.7
2747.48,18775.1
2751.71,19371.6
2755.94,18960.5
2760.17,18987.2
2764.39,19189.9
2768.61,19119.5
2772.83,19128.7
2777.05,19070.8
2781.27,19085.0
2785.48,19156.6
2789.69,18868.6
2793.89,18925.3
2798.1,19093.3
2802.3,19452.1
2806.5,19197.3
2810.7,19243.5
2814.89,19094.8
2819.09,19175.9
2823.28,19469.8
2827.46,19206.8
2831.65,19199.2
2835.83,19127.7
2840.01,18982.6
2844.19,19190.7
2848.37,19075.2
2852.54,19412.3
2856.71,19507.2
2860.88,19261.1
2865.05,19346.4
2869.21,19288.1
2873.37,19605.8
2877.53,20003.8
2881.69,18994.8
2885.84,19383.4
2889.99,19585.8
2894.14,19348.9
2898.29,19610.0
2902.43,19671.0
2906.58,19457.9
2910.72,20096.4
2914.85,19931.7
2918.99,19742.4
2923.12,19259.8
2927.25,19414.7
2931.38,19812.2
2935.5,19619.8
2939.63,19518.2
2943.75,19605.0
2947.87,19625.1
2951.98,19522.8
2956.1,19933.1
2960.21,19941.7
2964.32,19408.3
2968.42,19643.3
2972.53,19629.4
2976.63,19602.3
2980.73,19288.8
2984.83,19929.3
2988.92,19946.2
2993.01,19657.7
2997.1,19850.7
3001.19,20307.2
3005.28,20084.2
3009.36,19902.7
3013.44,19804.1
3017.52,19895.4
3021.6,20097.9
3025.67,19633.9
3029.74,19977.5
3033.81,19694.7
3037.88,19525.6
3041.94,19869.8
3046.01,20247.1
3050.07,19790.2
3054.12,19418.7
3058.18,19698.1
3062.23,19482.1
3066.28,19493.4
3070.33,20033.3
3074.38,19946.6
3078.42,20090.1
3082.46,19630.9
3086.5,19757.4
3090.54,19796.1
3094.57,19766.3
3098.6,19815.7
3102.63,19553.5
3106.66,19974.3
3110.69,19876.6
3114.71,20015.8
3118.73,20079.3
3122.75,19841.6
3126.77,19679.8
3130.78,19846.6
3134.79,20239.3
3138.8,19713.8
3142.81,19872.1
3146.81,19803.2
3150.82,19939.7
3154.82,19739.9
3158.81,19982.9
3162.81,19953.6
3166.8,20001.8
3170.79,20177.2
3174.78,20202.3
3178.77,19511.7
3182.75,19501.1
3186.74,19578.9
3190.72,19354.8
3194.69,19842.7
3198.67,19939.4
3202.64,19503.7
3206.61,19705.2
3210.58,19669.6
3214.55,19677.8
3218.51,19832.8
3222.47,19994.9
3226.43,20142.8
3230.39,19529.2
3234.35,19749.2
3238.3,19830.6
3242.25,19971.1
3246.2,19709.2
3250.15,19495.6
3254.09,19683.6
3258.03,20040.3
3261.97,20133.3
3265.91,19475.1
3269.84,19385.5
3273.78,19873.3
3277.71,19520.2
3281.64,19763.3
3285.56,20033.3
3289.49,20010.9
3293.41,19544.9
3297.33,20166.2
3301.25,19511.3
3305.16,19912.0
3309.07,19335.2
3312.99,20034.1
3316.89,19577.2
3320.8,20145.7
3324.7,19593.3
3328.61,19477.3
3332.51,19508.3
3336.4,19377.3
3340.3,19880.6
3344.19,19758.2
3348.08,19487.1
3351.97,19871.8
3355.86,19794.3
3359.74,19474.2
3363.63,20016.8
3367.51,19669.8
3371.39,18733.1
3375.26,19389.7
3379.13,19761.6
3383.01,19383.4
3386.88,19704.6
3390.74,19092.6
3394.61,18885.6
3398.47,19335.2
3402.33,19451.8
3406.19,19278.8
3410.05,19508.3
3413.9,19187.9
3417.75,19145.4
3421.6,19128.2
3425.45,19484.4
3429.3,19682.8
3433.14,19162.4
3436.98,19320.9
3440.82,19223.3
3444.66,19520.6
3448.49,19220.9
3452.32,18880.1
3456.15,19300.3
3459.98,19778.7
3463.81,19406.2
3467.63,18858.2
3471.46,18765.4
3475.28,18991.8
3479.09,19189.5
3482.91,19299.0
3486.72,18811.8
3490.53,18911.8
3494.34,18670.8
3498.15,19312.3
3501.96,18953.3
3505.76,18754.4
3509.56,18335.9
3513.36,18840.3
3517.15,18512.7
3520.95,18253.9
3524.74,19053.3
3528.53,18443.2
3532.32,19023.5
3536.11,18351.3
3539.89,18684.8
3543.67,18801.8
3547.45,18830.7
3551.23,18190.1
3555.0,18294.4
3558.78,18746.7
3562.55,18768.1
3566.32,18252.9
3570.09,18217.2
3573.85,18012.8
3577.61,18206.1
3581.37,18799.4
3585.13,18408.9
3588.89,18417.8
3592.64,18375.9
3596.4,18156.1
3600.15,17958.9
3603.9,17988.5
3607.64,18030.1
3611.39,17658.8
3615.13,17712.8
3618.87,17776.9
3622.61,17850.1
3626.34,17285.5
3630.08,17823.8
3633.81,18038.4
3637.54,17540.7
3641.27,17550.4
3644.99,16942.6
3648.72,18048.9
3652.44,18267.9
3656.16,17674.2
3659.87,17246.5
3663.59,17676.0
3665.45,17979.2