File: spectra/VLFR_08-PLA_nobio_Raman_48b87dbb.csv
cm-1,Intensity
-123.878,1851.15
-117.855,1852.85
-111.836,1851.4
-105.821,1851.1
-99.8104,1852.8
-93.8036,1852.5
-87.8007,1853.15
-81.8019,1852.6
-75.807,1852.4
-69.8161,1852.45
-63.8293,1852.9
-57.8464,1852.9
-51.8675,1853.75
-45.8926,1853.35
-39.9216,1853.2
-33.9547,1853.8
-27.9917,1855.95
-22.0326,1858.55
-16.0776,1883.55
-10.1265,2173.7
-4.17932,3171.4
1.76388,3006.45
7.70313,1936.0
13.6384,1854.95
19.5698,1853.85
25.4972,1854.3
31.4207,1854.45
37.3403,1855.35
43.256,1856.15
49.1677,1879.05
55.0755,2031.45
60.9794,2306.75
66.8794,2483.6
72.7754,2495.85
78.6676,2467.7
84.5559,2443.4
90.4402,2434.4
96.3207,2419.7
102.197,2403.1
108.07,2383.95
113.939,2397.35
119.804,2364.3
125.665,2360.2
131.522,2340.45
137.375,2327.7
143.225,2344.05
149.07,2360.5
154.912,2359.3
160.75,2375.15
166.584,2328.25
172.414,2352.65
178.241,2350.3
184.063,2363.7
189.882,2356.8
195.697,2358.35
201.508,2348.8
207.315,2333.95
213.119,2333.55
218.918,2328.35
224.714,2338.8
230.506,2328.7
236.294,2329.1
242.078,2341.75
247.859,2345.2
253.636,2328.45
259.409,2318.2
265.178,2339.55
270.943,2313.75
276.705,2320.55
282.463,2348.8
288.217,2370.95
293.967,2367.45
299.713,2383.7
305.456,2383.8
311.195,2372.25
316.93,2373.4
322.662,2386.25
328.389,2349.15
334.113,2364.25
339.834,2353.05
345.55,2355.2
351.263,2360.9
356.972,2368.45
362.677,2362.65
368.379,2378.85
374.077,2398.0
379.771,2411.55
385.461,2419.9
391.148,2461.4
396.831,2483.5
402.51,2482.6
408.186,2488.45
413.858,2477.6
419.526,2428.75
425.19,2440.4
430.851,2417.65
436.508,2411.4
442.162,2420.95
447.811,2395.7
453.458,2376.5
459.1,2418.15
464.739,2395.75
470.374,2414.35
476.005,2413.9
481.633,2407.8
487.257,2406.1
492.878,2409.0
498.494,2411.3
504.107,2423.1
509.717,2423.25
515.323,2421.9
520.925,2429.65
526.524,2442.5
532.119,2437.85
537.71,2440.0
543.298,2460.6
548.882,2458.7
554.462,2474.8
560.039,2453.5
565.613,2467.7
571.182,2484.6
576.748,2470.4
582.311,2481.3
587.87,2478.7
593.425,2485.65
598.977,2477.0
604.525,2463.5
610.069,2490.0
615.61,2493.0
621.148,2487.75
626.682,2464.6
632.212,2510.95
637.739,2516.55
643.262,2514.0
648.781,2513.6
654.297,2523.65
659.81,2512.0
665.319,2526.5
670.824,2574.55
676.326,2555.65
681.824,2562.2
687.319,2545.15
692.81,2545.3
698.298,2557.45
703.782,2540.7
709.262,2550.55
714.739,2533.9
720.213,2540.05
725.683,2548.65
731.15,2537.8
736.613,2581.65
742.072,2591.5
747.528,2570.6
752.981,2585.55
758.43,2563.85
763.875,2563.65
769.317,2561.9
774.756,2562.05
780.191,2558.6
785.623,2541.7
791.051,2540.3
796.475,2544.8
801.897,2548.2
807.314,2538.0
812.729,2535.85
818.139,2550.05
823.547,2552.4
828.951,2554.2
834.351,2570.3
839.748,2571.85
845.142,2581.2
850.532,2625.7
855.918,2652.95
861.302,2789.4
866.681,2950.25
872.058,3043.25
877.431,2994.3
882.8,2821.2
888.166,2706.35
893.529,2656.4
898.888,2648.35
904.244,2630.75
909.596,2625.55
914.945,2631.35
920.291,2630.0
925.633,2626.15
930.972,2614.9
936.308,2596.75
941.64,2609.5
946.968,2604.75
952.294,2604.3
957.615,2608.25
962.934,2617.9
968.249,2616.5
973.561,2612.1
978.869,2599.45
984.174,2599.3
989.476,2619.9
994.774,2618.85
1000.07,2617.3
1005.36,2640.25
1010.65,2622.25
1015.93,2644.85
1021.22,2654.4
1026.49,2686.9
1031.77,2715.6
1037.04,2752.95
1042.31,2786.75
1047.57,2791.9
1052.83,2734.9
1058.09,2691.65
1063.35,2717.5
1068.6,2670.65
1073.85,2658.85
1079.09,2701.45
1084.33,2729.9
1089.57,2775.45
1094.81,2786.8
1100.04,2755.8
1105.27,2769.2
1110.49,2781.35
1115.71,2813.3
1120.93,2867.3
1126.15,2846.45
1131.36,2888.45
1136.57,2826.15
1141.77,2774.7
1146.98,2731.6
1152.18,2722.8
1157.37,2723.65
1162.56,2710.8
1167.75,2699.3
1172.94,2732.7
1178.12,2746.8
1183.3,2745.75
1188.48,2764.9
1193.65,2729.75
1198.82,2749.6
1203.99,2748.55
1209.15,2741.45
1214.31,2755.35
1219.46,2776.4
1224.62,2771.05
1229.77,2722.65
1234.92,2756.1
1240.06,2754.0
1245.2,2757.65
1250.34,2757.55
1255.47,2766.0
1260.6,2750.8
1265.73,2777.05
1270.85,2770.45
1275.97,2770.45
1281.09,2767.05
1286.21,2812.75
1291.32,2847.1
1296.43,2897.6
1301.53,2891.2
1306.63,2864.5
1311.73,2848.4
1316.83,2847.5
1321.92,2821.65
1327.01,2835.0
1332.1,2855.2
1337.18,2852.95
1342.26,2852.15
1347.34,2820.55
1352.41,2824.8
1357.48,2859.45
1362.55,2862.45
1367.61,2833.95
1372.67,2812.65
1377.73,2845.7
1382.78,2877.1
1387.84,2891.8
1392.88,2833.35
1397.93,2807.3
1402.97,2807.6
1408.01,2803.65
1413.05,2797.6
1418.08,2752.5
1423.11,2820.65
1428.14,2840.0
1433.16,2839.0
1438.18,2869.45
1443.2,2978.7
1448.21,3112.2
1453.22,3119.5
1458.23,3046.3
1463.23,3006.45
1468.23,2961.95
1473.23,2872.15
1478.23,2833.55
1483.22,2820.3
1488.21,2828.15
1493.2,2790.9
1498.18,2783.2
1503.16,2788.35
1508.14,2796.35
1513.11,2792.65
1518.08,2786.15
1523.05,2802.45
1528.01,2784.2
1532.97,2802.4
1537.93,2784.8
1542.89,2798.45
1547.84,2796.65
1552.79,2796.85
1557.73,2805.85
1562.68,2813.85
1567.62,2785.2
1572.56,2773.3
1577.49,2812.0
1582.42,2789.4
1587.35,2807.8
1592.27,2825.6
1597.19,2795.8
1602.11,2796.4
1607.03,2794.0
1611.94,2801.85
1616.85,2808.6
1621.76,2779.2
1626.66,2821.85
1631.56,2798.7
1636.46,2781.35
1641.36,2792.45
1646.25,2797.35
1651.14,2791.95
1656.02,2797.0
1660.9,2784.05
1665.78,2817.2
1670.66,2795.3
1675.54,2799.1
1680.41,2784.65
1685.27,2799.6
1690.14,2792.4
1695.0,2791.65
1699.86,2784.95
1704.71,2803.8
1709.57,2798.1
1714.42,2805.7
1719.26,2780.95
1724.11,2809.25
1728.95,2791.05
1733.79,2793.25
1738.62,2822.35
1743.46,2908.1
1748.28,2943.1
1753.11,2968.6
1757.93,2985.85
1762.75,3026.65
1767.57,3050.2
1772.39,3054.4
1777.2,2993.15
1782.01,2939.85
1786.81,2900.85
1791.62,2838.6
1796.41,2823.55
1801.21,2806.7
1806.01,2793.1
1810.8,2792.85
1815.59,2789.4
1820.37,2769.8
1825.15,2782.75
1829.93,2756.65
1834.71,2757.25
1839.48,2784.8
1844.25,2758.8
1849.02,2782.4
1853.79,2757.25
1858.55,2762.95
1863.31,2751.25
1868.06,2785.45
1872.82,2771.2
1877.57,2759.65
1882.31,2763.95
1887.06,2762.7
1891.8,2775.9
1896.54,2776.45
1901.28,2774.8
1906.01,2757.15
1910.74,2791.05
1915.47,2776.95
1920.19,2747.6
1924.91,2763.1
1929.63,2772.95
1934.35,2786.2
1939.06,2750.45
1943.77,2735.8
1948.48,2764.8
1953.19,2769.65
1957.89,2746.05
1962.59,2754.2
1967.28,2767.1
1971.98,2757.7
1976.67,2772.3
1981.35,2762.1
1986.04,2760.0
1990.72,2754.95
1995.4,2754.8
2000.08,2776.05
2004.75,2775.3
2009.42,2782.05
2014.09,2746.05
2018.75,2771.05
2023.42,2795.1
2028.08,2791.45
2032.73,2783.9
2037.39,2772.0
2042.04,2768.45
2046.69,2761.65
2051.33,2770.05
2055.97,2770.9
2060.61,2776.05
2065.25,2749.35
2069.88,2769.95
2074.52,2771.75
2079.15,2779.8
2083.77,2774.7
2088.39,2779.2
2093.01,2752.65
2097.63,2764.7
2102.25,2771.15
2106.86,2784.6
2111.47,2785.95
2116.08,2781.4
2120.68,2778.2
2125.28,2776.5
2129.88,2758.85
2134.47,2763.3
2139.07,2763.75
2143.66,2775.35
2148.24,2779.1
2152.83,2771.95
2157.41,2780.8
2161.99,2757.2
2166.57,2763.5
2171.14,2792.55
2175.71,2796.7
2180.28,2786.25
2184.84,2759.45
2189.41,2754.1
2193.97,2770.8
2198.52,2750.1
2203.08,2785.05
2207.63,2767.45
2212.18,2786.05
2216.73,2759.0
2221.27,2779.7
2225.81,2756.05
2230.35,2748.0
2234.89,2763.7
2239.42,2782.55
2243.95,2762.2
2248.48,2757.5
2253.0,2783.05
2257.52,2783.25
2262.04,2756.8
2266.56,2762.05
2271.07,2769.7
2275.58,2752.55
2280.09,2757.3
2284.6,2759.75
2289.1,2750.5
2293.6,2764.7
2298.1,2753.0
2302.6,2780.6
2307.09,2774.9
2311.58,2759.85
2316.07,2755.9
2320.55,2773.95
2325.03,2733.05
2329.51,2765.7
2333.99,2752.15
2338.46,2776.9
2342.93,2766.95
2347.4,2771.35
2351.87,2741.1
2356.33,2753.0
2360.79,2765.4
2365.25,2772.75
2369.71,2774.0
2374.16,2754.75
2378.61,2732.3
2383.06,2770.05
2387.5,2782.9
2391.94,2742.7
2396.38,2743.25
2400.82,2766.75
2405.26,2779.4
2409.69,2764.9
2414.12,2775.15
2418.54,2771.65
2422.97,2749.15
2427.39,2764.6
2431.81,2752.7
2436.22,2777.45
2440.64,2757.05
2445.05,2758.15
2449.46,2738.7
2453.86,2749.4
2458.27,2764.4
2462.67,2775.4
2467.06,2746.9
2471.46,2763.75
2475.85,2738.3
2480.24,2757.1
2484.63,2777.55
2489.02,2744.05
2493.4,2734.2
2497.78,2727.45
2502.16,2758.55
2506.53,2773.05
2510.9,2758.2
2515.27,2743.75
2519.64,2738.6
2524.0,2769.7
2528.37,2764.05
2532.73,2730.0
2537.08,2726.9
2541.44,2770.7
2545.79,2765.45
2550.14,2733.6
2554.48,2757.9
2558.83,2787.8
2563.17,2753.55
2567.51,2746.85
2571.85,2749.95
2576.18,2732.6
2580.51,2737.15
2584.84,2734.35
2589.17,2724.15
2593.49,2763.05
2597.81,2739.85
2602.13,2745.5
2606.45,2750.5
2610.76,2757.95
2615.07,2744.8
2619.38,2738.2
2623.69,2745.5
2627.99,2728.95
2632.29,2740.5
2636.59,2743.85
2640.89,2757.35
2645.18,2702.15
2649.47,2757.95
2653.76,2746.6
2658.05,2746.9
2662.33,2747.1
2666.61,2706.0
2670.89,2744.7
2675.17,2743.8
2679.44,2723.8
2683.71,2732.85
2687.98,2724.7
2692.25,2760.75
2696.51,2735.1
2700.77,2733.6
2705.03,2737.7
2709.29,2754.05
2713.54,2727.75
2717.79,2717.15
2722.04,2724.2
2726.29,2750.35
2730.53,2750.45
2734.77,2804.5
2739.01,2781.45
2743.25,2796.55
2747.48,2757.05
2751.71,2787.7
2755.94,2769.45
2760.17,2734.3
2764.39,2734.3
2768.61,2723.2
2772.83,2746.75
2777.05,2747.05
2781.27,2706.6
2785.48,2708.75
2789.69,2701.4
2793.89,2702.65
2798.1,2713.5
2802.3,2712.15
2806.5,2694.8
2810.7,2688.2
2814.89,2683.85
2819.09,2716.3
2823.28,2689.1
2827.46,2710.4
2831.65,2709.35
2835.83,2694.15
2840.01,2694.25
2844.19,2697.3
2848.37,2663.1
2852.54,2692.05
2856.71,2724.85
2860.88,2736.6
2865.05,2765.1
2869.21,2820.35
2873.37,2970.55
2877.53,3095.95
2881.69,3074.55
2885.84,3059.75
2889.99,3021.4
2894.14,2972.2
2898.29,3004.2
2902.43,2981.25
2906.58,3018.3
2910.72,3052.45
2914.85,3016.5
2918.99,2991.55
2923.12,3051.45
2927.25,3145.7
2931.38,3387.2
2935.5,3697.0
2939.63,4396.85
2943.75,4988.45
2947.87,5105.6
2951.98,4740.85
2956.1,4189.0
2960.21,3783.5
2964.32,3456.7
2968.42,3320.8
2972.53,3251.65
2976.63,3178.45
2980.73,3181.1
2984.83,3211.35
2988.92,3312.75
2993.01,3400.65
2997.1,3571.5
3001.19,3615.0
3005.28,3569.05
3009.36,3462.1
3013.44,3323.2
3017.52,3189.3
3021.6,3091.6
3025.67,2913.45
3029.74,2818.05
3033.81,2740.55
3037.88,2711.5
3041.94,2708.05
3046.01,2665.05
3050.07,2639.15
3054.12,2635.8
3058.18,2622.85
3062.23,2628.8
3066.28,2601.8
3070.33,2611.85
3074.38,2599.0
3078.42,2605.1
3082.46,2596.15
3086.5,2584.4
3090.54,2579.05
3094.57,2591.7
3098.6,2558.55
3102.63,2574.5
3106.66,2572.25
3110.69,2561.55
3114.71,2529.3
3118.73,2588.7
3122.75,2562.45
3126.77,2564.25
3130.78,2553.35
3134.79,2540.25
3138.8,2539.65
3142.81,2535.45
3146.81,2559.0
3150.82,2560.0
3154.82,2525.85
3158.81,2530.8
3162.81,2541.1
3166.8,2543.6
3170.79,2558.0
3174.78,2534.7
3178.77,2516.9
3182.75,2517.05
3186.74,2497.1
3190.72,2517.0
3194.69,2523.55
3198.67,2522.9
3202.64,2535.55
3206.61,2515.95
3210.58,2519.3
3214.55,2485.35
3218.51,2505.95
3222.47,2527.65
3226.43,2501.65
3230.39,2501.5
3234.35,2489.55
3238.3,2497.65
3242.25,2490.05
3246.2,2481.0
3250.15,2503.55
3254.09,2476.55
3258.03,2479.1
3261.97,2482.6
3265.91,2461.05
3269.84,2454.0
3273.78,2492.4
3277.71,2471.8
3281.64,2456.35
3285.56,2456.05
3289.49,2475.95
3293.41,2470.9
3297.33,2477.05
3301.25,2446.35
3305.16,2436.05
3309.07,2446.35
3312.99,2448.2
3316.89,2433.55
3320.8,2438.8
3324.7,2419.45
3328.61,2432.35
3332.51,2445.65
3336.4,2434.85
3340.3,2422.4
3344.19,2429.25
3348.08,2430.05
3351.97,2428.45
3355.86,2410.45
3359.74,2414.65
3363.63,2423.55
3367.51,2412.75
3371.39,2394.05
3375.26,2386.55
3379.13,2400.65
3383.01,2408.8
3386.88,2415.9
3390.74,2386.2
3394.61,2369.15
3398.47,2384.7
3402.33,2400.75
3406.19,2389.0
3410.05,2390.3
3413.9,2370.2
3417.75,2368.6
3421.6,2377.65
3425.45,2400.75
3429.3,2382.6
3433.14,2377.65
3436.98,2380.0
3440.82,2368.4
3444.66,2369.6
3448.49,2354.75
3452.32,2366.4
3456.15,2392.35
3459.98,2369.8
3463.81,2368.15
3467.63,2352.4
3471.46,2342.15
3475.28,2354.6
3479.09,2368.5
3482.91,2344.0
3486.72,2332.15
3490.53,2349.75
3494.34,2320.3
3498.15,2340.3
3501.96,2348.65
3505.76,2324.55
3509.56,2324.45
3513.36,2327.8
3517.15,2320.4
3520.95,2306.3
3524.74,2325.25
3528.53,2312.65
3532.32,2310.75
3536.11,2303.8
3539.89,2322.85
3543.67,2323.2
3547.45,2317.05
3551.23,2304.85
3555.0,2288.45
3558.78,2295.45
3562.55,2310.0
3566.32,2295.0
3570.09,2304.6
3573.85,2285.05
3577.61,2300.1
3581.37,2314.85
3585.13,2275.15
3588.89,2283.4
3592.64,2292.2
3596.4,2276.15
3600.15,2281.05
3603.9,2268.4
3607.64,2269.85
3611.39,2262.85
3615.13,2282.4
3618.87,2249.5
3622.61,2257.75
3626.34,2253.1
3630.08,2261.2
3633.81,2254.6
3637.54,2249.4
3641.27,2242.7
3644.99,2252.75
3648.72,2262.15
3652.44,2258.05
3656.16,2259.2
3659.87,2260.4
3663.59,2249.85
3665.45,2263.35