File: spectra/VLFR_08-PLA_bio_Raman_a2489497.csv
nm,Intensity
526.495,829.2
526.632,828.8
526.768,829.4
526.905,828.75
527.042,829.0
527.179,828.85
527.315,829.2
527.452,828.4
527.589,828.75
527.725,828.55
527.862,828.75
527.999,829.2
528.136,829.05
528.272,829.1
528.409,829.8
528.546,828.65
528.682,829.0
528.819,829.2
528.955,829.55
529.092,828.4
529.229,828.75
529.365,828.3
529.502,829.4
529.639,828.9
529.775,829.05
529.912,829.55
530.048,829.95
530.185,829.9
530.321,829.4
530.458,828.9
530.594,829.75
530.731,828.65
530.867,828.6
531.004,828.5
531.14,829.85
531.277,829.05
531.413,829.2
531.55,829.15
531.686,829.65
531.823,829.7
531.959,831.0
532.096,846.6
532.232,849.85
532.369,834.4
532.505,829.65
532.641,829.4
532.778,829.1
532.914,828.9
533.051,829.15
533.187,829.85
533.323,829.45
533.46,829.95
533.596,829.45
533.732,841.05
533.869,891.8
534.005,967.1
534.141,998.1
534.278,996.1
534.414,987.45
534.55,972.65
534.687,967.65
534.823,961.1
534.959,953.6
535.095,946.15
535.232,940.45
535.368,935.2
535.504,933.85
535.64,927.55
535.777,926.35
535.913,923.6
536.049,922.75
536.185,918.65
536.321,922.1
536.457,921.4
536.594,922.25
536.73,922.5
536.866,923.55
537.002,917.6
537.138,913.7
537.274,915.0
537.41,916.1
537.547,914.05
537.683,912.85
537.819,913.95
537.955,915.1
538.091,910.05
538.227,908.2
538.363,904.65
538.499,904.75
538.635,905.75
538.771,903.15
538.907,902.5
539.043,902.5
539.179,900.25
539.315,902.35
539.451,902.05
539.587,901.0
539.723,898.6
539.859,894.95
539.995,893.85
540.131,895.45
540.267,896.3
540.403,900.35
540.539,905.1
540.675,906.55
540.811,907.5
540.947,907.65
541.083,907.8
541.219,905.7
541.354,908.05
541.49,905.9
541.626,905.1
541.762,899.85
541.898,900.1
542.034,899.9
542.17,899.25
542.305,898.4
542.441,898.5
542.577,900.25
542.713,898.8
542.849,900.2
542.984,901.4
543.12,906.2
543.256,909.35
543.392,915.5
543.528,921.15
543.663,920.75
543.799,924.95
543.935,924.55
544.071,920.5
544.206,918.95
544.342,915.65
544.478,912.6
544.613,910.6
544.749,909.45
544.885,907.1
545.02,903.45
545.156,907.4
545.292,906.0
545.427,909.65
545.563,912.3
545.699,913.65
545.834,918.05
545.97,919.2
546.106,921.85
546.241,917.15
546.377,916.1
546.512,912.3
546.648,908.85
546.784,905.1
546.919,900.6
547.055,905.7
547.19,902.55
547.326,902.3
547.461,898.5
547.597,902.7
547.732,900.75
547.868,901.75
548.003,900.35
548.139,901.35
548.274,899.55
548.41,901.85
548.545,902.0
548.681,900.9
548.816,900.15
548.952,904.35
549.087,905.7
549.223,904.9
549.358,907.4
549.494,907.9
549.629,910.4
549.764,913.2
549.9,910.85
550.035,909.75
550.171,909.05
550.306,908.15
550.441,914.95
550.577,921.25
550.712,923.95
550.847,926.3
550.983,926.9
551.118,918.4
551.253,915.3
551.389,914.55
551.524,911.6
551.659,912.7
551.795,912.0
551.93,912.35
552.065,910.15
552.201,912.0
552.336,911.7
552.471,907.65
552.606,910.45
552.742,910.2
552.877,912.3
553.012,909.95
553.147,912.75
553.283,908.4
553.418,907.0
553.553,906.95
553.688,907.25
553.823,911.2
553.959,918.15
554.094,915.85
554.229,915.3
554.364,913.65
554.499,911.6
554.634,909.6
554.769,909.35
554.905,908.65
555.04,910.2
555.175,907.7
555.31,907.3
555.445,905.2
555.58,905.5
555.715,903.6
555.85,903.1
555.985,902.95
556.121,902.9
556.256,902.3
556.391,904.45
556.526,905.45
556.661,906.65
556.796,905.2
556.931,907.65
557.066,909.0
557.201,911.15
557.336,913.45
557.471,917.7
557.606,925.65
557.741,944.75
557.876,968.45
558.011,997.6
558.146,1015.4
558.281,994.3
558.416,955.05
558.551,931.45
558.685,921.9
558.82,920.65
558.955,919.9
559.09,918.0
559.225,918.3
559.36,914.15
559.495,916.75
559.63,914.85
559.765,915.9
559.9,916.95
560.034,914.4
560.169,913.3
560.304,913.5
560.439,913.3
560.574,913.65
560.709,914.6
560.843,911.15
560.978,909.05
561.113,911.75
561.248,909.35
561.383,913.2
561.517,918.2
561.652,924.15
561.787,932.85
561.922,951.9
562.057,983.3
562.191,1021.0
562.326,1065.4
562.461,1091.75
562.596,1058.55
562.73,995.9
562.865,948.6
563.0,937.8
563.134,932.4
563.269,938.3
563.404,941.4
563.539,944.4
563.673,941.2
563.808,935.2
563.943,927.35
564.077,925.7
564.212,922.9
564.346,927.85
564.481,925.85
564.616,928.05
564.75,931.3
564.885,934.45
565.02,942.15
565.154,939.2
565.289,944.1
565.423,941.8
565.558,939.7
565.693,940.2
565.827,943.5
565.962,953.4
566.096,962.25
566.231,961.75
566.365,959.9
566.5,948.65
566.634,943.25
566.769,936.4
566.903,928.35
567.038,929.65
567.172,924.0
567.307,923.2
567.441,926.85
567.576,924.35
567.71,924.15
567.845,928.05
567.979,927.2
568.114,929.45
568.248,923.5
568.383,925.4
568.517,922.45
568.652,922.6
568.786,926.6
568.92,920.4
569.055,925.55
569.189,922.55
569.324,924.85
569.458,924.5
569.592,921.9
569.727,922.25
569.861,919.25
569.996,921.4
570.13,921.0
570.264,921.7
570.399,919.7
570.533,918.4
570.667,920.55
570.802,923.7
570.936,923.25
571.07,923.75
571.205,920.6
571.339,927.8
571.473,934.45
571.607,942.8
571.742,942.4
571.876,938.45
572.01,935.7
572.144,936.45
572.279,934.35
572.413,933.55
572.547,931.9
572.681,932.35
572.816,930.0
572.95,934.0
573.084,933.2
573.218,935.15
573.353,931.6
573.487,934.95
573.621,934.3
573.755,934.2
573.889,932.3
574.023,933.35
574.158,934.8
574.292,933.4
574.426,938.65
574.56,942.75
574.694,942.0
574.828,934.5
574.963,927.55
575.097,925.7
575.231,922.2
575.365,925.65
575.499,925.0
575.633,923.1
575.767,928.6
575.901,926.95
576.035,928.55
576.169,931.95
576.303,935.3
576.438,949.9
576.572,965.4
576.706,975.35
576.84,977.55
576.974,975.25
577.108,966.7
577.242,955.65
577.376,942.75
577.51,935.35
577.644,933.6
577.778,928.6
577.912,926.65
578.046,925.65
578.18,926.2
578.314,926.75
578.448,926.6
578.582,928.8
578.716,925.2
578.85,928.15
578.984,924.1
579.117,927.85
579.251,927.1
579.385,925.55
579.519,926.95
579.653,925.75
579.787,925.2
579.921,926.6
580.055,926.1
580.189,924.0
580.323,923.8
580.456,927.85
580.59,921.05
580.724,924.65
580.858,928.5
580.992,924.65
581.126,926.3
581.26,923.2
581.393,925.9
581.527,926.05
581.661,927.35
581.795,924.95
581.929,926.0
582.063,924.75
582.196,925.75
582.33,928.15
582.464,925.4
582.598,924.4
582.731,925.95
582.865,926.65
582.999,928.6
583.133,927.35
583.267,927.05
583.4,927.85
583.534,929.3
583.668,928.15
583.801,929.15
583.935,926.8
584.069,925.5
584.203,928.65
584.336,929.35
584.47,927.75
584.604,928.8
584.737,926.85
584.871,928.05
585.005,928.9
585.138,926.35
585.272,926.8
585.406,926.45
585.539,930.75
585.673,928.65
585.807,932.35
585.94,929.7
586.074,929.7
586.208,930.4
586.341,936.2
586.475,939.35
586.608,945.05
586.742,953.5
586.876,957.8
587.009,961.45
587.143,965.5
587.276,966.15
587.41,975.85
587.543,979.75
587.677,975.65
587.811,968.55
587.944,956.5
588.078,948.05
588.211,940.0
588.345,936.95
588.478,932.55
588.612,928.7
588.745,929.8
588.879,928.1
589.012,929.35
589.146,927.55
589.279,928.35
589.413,926.85
589.546,928.85
589.68,929.25
589.813,927.15
589.947,927.9
590.08,927.2
590.214,925.6
590.347,928.2
590.48,928.6
590.614,924.75
590.747,930.8
590.881,926.1
591.014,929.8
591.148,929.1
591.281,929.1
591.414,927.55
591.548,928.15
591.681,930.35
591.815,926.3
591.948,928.25
592.081,924.7
592.215,926.0
592.348,928.1
592.481,925.15
592.615,927.05
592.748,926.85
592.881,926.3
593.015,927.3
593.148,927.9
593.281,928.3
593.415,926.05
593.548,924.6
593.681,927.2
593.815,927.0
593.948,927.05
594.081,923.6
594.215,922.35
594.348,927.7
594.481,923.0
594.614,925.25
594.748,930.05
594.881,925.6
595.014,928.1
595.147,929.6
595.281,926.4
595.414,928.1
595.547,928.9
595.68,928.5
595.814,927.2
595.947,928.15
596.08,923.8
596.213,925.9
596.347,925.8
596.48,925.45
596.613,927.45
596.746,924.05
596.879,928.8
597.012,926.0
597.146,926.45
597.279,926.55
597.412,927.2
597.545,926.2
597.678,929.45
597.811,929.25
597.945,927.1
598.078,924.75
598.211,928.7
598.344,926.6
598.477,930.75
598.61,928.8
598.743,929.75
598.876,928.95
599.009,929.15
599.143,927.35
599.276,926.0
599.409,926.0
599.542,926.5
599.675,929.5
599.808,928.7
599.941,928.8
600.074,929.05
600.207,928.25
600.34,926.45
600.473,926.9
600.606,927.2
600.739,927.1
600.872,926.6
601.005,929.05
601.138,925.05
601.271,929.0
601.404,926.8
601.537,926.7
601.67,926.45
601.803,925.45
601.936,926.45
602.069,924.3
602.202,927.95
602.335,923.6
602.468,925.35
602.601,924.25
602.734,925.65
602.867,927.9
603.0,924.3
603.133,926.8
603.266,925.45
603.399,925.0
603.532,926.7
603.665,927.15
603.798,926.85
603.931,927.25
604.064,925.25
604.196,927.55
604.329,924.75
604.462,925.25
604.595,925.1
604.728,922.8
604.861,924.15
604.994,923.25
605.127,921.8
605.259,924.15
605.392,922.3
605.525,924.6
605.658,920.65
605.791,923.4
605.924,922.5
606.057,922.0
606.189,920.75
606.322,921.25
606.455,921.05
606.588,917.9
606.721,919.15
606.853,921.2
606.986,919.9
607.119,919.5
607.252,920.9
607.385,921.85
607.517,923.95
607.65,923.2
607.783,919.8
607.916,923.15
608.049,921.05
608.181,920.4
608.314,922.1
608.447,921.65
608.58,921.75
608.712,921.95
608.845,921.1
608.978,921.75
609.111,922.15
609.243,922.8
609.376,921.6
609.509,922.4
609.641,922.15
609.774,920.95
609.907,920.9
610.039,923.2
610.172,920.05
610.305,919.55
610.438,919.95
610.57,918.3
610.703,918.7
610.836,920.8
610.968,918.7
611.101,919.85
611.234,919.5
611.366,922.9
611.499,923.3
611.631,919.55
611.764,922.95
611.897,921.75
612.029,920.6
612.162,919.75
612.295,919.45
612.427,920.5
612.56,922.7
612.692,921.8
612.825,920.75
612.958,924.7
613.09,922.3
613.223,923.65
613.355,922.0
613.488,922.5
613.621,924.4
613.753,922.4
613.886,920.9
614.018,922.5
614.151,924.4
614.283,922.2
614.416,922.2
614.548,921.0
614.681,922.3
614.814,922.05
614.946,921.65
615.079,921.65
615.211,920.75
615.344,919.5
615.476,921.3
615.609,919.4
615.741,919.0
615.874,922.45
616.006,921.55
616.139,922.35
616.271,921.15
616.404,918.35
616.536,921.75
616.669,921.75
616.801,923.0
616.933,919.95
617.066,922.5
617.198,920.6
617.331,921.4
617.463,922.55
617.596,918.95
617.728,922.3
617.861,919.2
617.993,923.95
618.125,923.6
618.258,917.6
618.39,919.35
618.523,920.35
618.655,920.15
618.788,920.45
618.92,918.4
619.052,921.35
619.185,920.75
619.317,919.85
619.45,918.35
619.582,920.05
619.714,918.9
619.847,918.8
619.979,922.65
620.111,918.4
620.244,919.65
620.376,920.8
620.509,918.25
620.641,918.65
620.773,918.25
620.906,917.1
621.038,919.35
621.17,919.55
621.303,916.1
621.435,920.1
621.567,919.4
621.7,921.45
621.832,917.15
621.964,918.95
622.096,918.85
622.229,919.95
622.361,921.4
622.493,921.65
622.626,924.95
622.758,928.85
622.89,927.4
623.022,930.2
623.155,929.2
623.287,927.9
623.419,926.65
623.552,926.25
623.684,924.5
623.816,925.85
623.948,922.95
624.081,918.95
624.213,921.9
624.345,922.75
624.477,921.1
624.61,920.9
624.742,917.2
624.874,917.3
625.006,918.4
625.138,919.2
625.271,915.8
625.403,917.0
625.535,919.35
625.667,917.65
625.799,919.45
625.932,915.35
626.064,916.85
626.196,919.0
626.328,918.1
626.46,916.7
626.593,917.55
626.725,916.55
626.857,916.3
626.989,919.1
627.121,918.45
627.253,919.35
627.386,917.0
627.518,917.6
627.65,918.1
627.782,922.05
627.914,923.55
628.046,933.6
628.178,941.3
628.311,955.35
628.443,967.25
628.575,976.9
628.707,973.7
628.839,964.4
628.971,959.4
629.103,957.25
629.235,955.35
629.367,959.75
629.5,957.6
629.632,962.1
629.764,960.85
629.896,959.15
630.028,961.6
630.16,964.95
630.292,972.95
630.424,983.8
630.556,1002.05
630.688,1039.8
630.82,1108.25
630.952,1188.45
631.084,1263.3
631.216,1268.65
631.349,1221.3
631.481,1155.6
631.613,1093.1
631.745,1056.45
631.877,1031.5
632.009,1012.35
632.141,1008.25
632.273,998.6
632.405,988.5
632.537,989.2
632.669,991.3
632.801,997.0
632.933,1020.35
633.065,1038.5
633.197,1051.4
633.329,1058.35
633.461,1051.5
633.593,1047.8
633.725,1027.7
633.857,1013.55
633.989,992.85
634.121,981.15
634.253,961.9
634.385,950.0
634.517,941.75
634.649,936.2
634.781,928.65
634.912,922.55
635.044,921.45
635.176,917.15
635.308,916.65
635.44,913.15
635.572,914.85
635.704,912.3
635.836,917.9
635.968,913.1
636.1,913.6
636.232,912.15
636.364,914.95
636.496,913.45
636.628,912.1
636.76,913.2
636.891,911.35
637.023,910.45
637.155,910.05
637.287,910.5
637.419,906.1
637.551,906.75
637.683,908.65
637.815,907.35
637.947,909.6
638.078,907.45
638.21,908.8
638.342,907.95
638.474,908.1
638.606,907.5
638.738,907.6
638.87,909.05
639.002,908.25
639.133,908.1
639.265,905.4
639.397,906.45
639.529,906.3
639.661,907.6
639.793,908.0
639.924,907.0
640.056,906.75
640.188,906.45
640.32,907.9
640.452,905.7
640.584,907.0
640.715,906.85
640.847,907.55
640.979,908.15
641.111,906.2
641.243,907.4
641.374,907.75
641.506,908.85
641.638,907.25
641.77,906.7
641.902,906.95
642.033,905.75
642.165,905.3
642.297,908.4
642.429,909.15
642.561,905.7
642.692,905.6
642.824,907.2
642.956,903.4
643.088,905.75
643.219,903.1
643.351,905.3
643.483,903.35
643.615,902.05
643.746,902.75
643.878,903.25
644.01,902.4
644.142,901.7
644.273,901.1
644.405,901.4
644.537,901.8
644.669,902.05
644.8,900.65
644.932,900.75
645.064,901.2
645.195,900.55
645.327,897.35
645.459,902.55
645.591,900.45
645.722,902.95
645.854,900.25
645.986,898.65
646.117,898.45
646.249,897.7
646.381,900.3
646.512,900.25
646.644,896.5
646.776,901.0
646.908,901.45
647.039,897.9
647.171,898.4
647.303,899.8
647.434,899.6
647.566,897.4
647.698,902.4
647.829,900.5
647.961,898.85
648.093,899.55
648.224,895.25
648.356,898.05
648.488,897.65
648.619,899.55
648.751,899.6
648.883,897.55
649.014,898.7
649.146,898.25
649.277,898.2
649.409,896.8
649.541,895.85
649.672,896.8
649.804,898.25
649.936,897.6
650.067,898.05
650.199,898.4
650.33,895.4
650.462,895.75
650.594,895.75
650.725,897.55
650.857,896.4
650.988,897.15
651.12,898.2
651.252,896.15
651.383,899.4
651.515,898.4
651.646,896.45
651.778,895.8
651.91,896.3
652.041,896.05
652.173,898.1
652.304,895.15
652.436,898.3
652.568,894.95
652.699,898.45
652.831,896.35
652.962,896.75
653.094,897.8
653.225,896.0
653.357,897.0
653.489,894.2
653.62,895.6
653.752,895.35
653.883,898.2
654.015,895.6
654.146,896.3
654.278,897.5
654.409,895.85
654.541,897.35
654.672,895.9
654.804,894.2
654.935,895.8
655.067,892.85
655.199,895.75
655.33,893.25
655.462,893.5
655.593,893.95
655.725,894.35
655.856,893.85
655.988,893.0
656.119,891.8
656.251,896.3
656.382,893.5
656.514,892.7
656.645,892.65
656.777,893.1
656.908,891.75
657.04,893.65
657.171,890.9
657.303,893.0
657.434,892.3
657.566,894.95
657.697,891.55
657.829,893.1
657.96,892.05
658.092,891.75
658.223,891.65
658.355,889.95
658.486,892.45
658.617,891.25
658.749,892.3
658.88,889.35
659.012,890.05
659.143,890.2
659.275,890.2
659.406,890.15
659.538,889.65
659.669,890.75
659.801,889.6
659.932,889.1
660.064,887.1
660.195,889.25
660.326,888.75
660.458,890.45
660.589,886.45
660.721,886.65
660.852,887.1
660.984,887.35
661.115,886.35
661.246,887.7
661.378,886.15
661.509,885.95
661.641,886.05
661.772,885.85
661.904,882.95
662.035,887.25
662.166,883.05
662.298,886.65
662.429,883.8
662.561,884.65
662.692,887.85
662.823,886.9
662.955,885.35
663.086,884.05