File: spectra/VLFR_06-PET_bio_Raman_dde33878.csv
nm,Intensity
526.508,832.1
526.645,831.1
526.782,831.7
526.919,829.4
527.055,830.8
527.192,830.4
527.329,830.0
527.465,830.8
527.602,828.3
527.739,830.6
527.875,830.7
528.012,830.0
528.149,830.7
528.285,830.2
528.422,831.1
528.558,831.1
528.695,830.3
528.832,830.4
528.968,829.4
529.105,830.1
529.241,829.9
529.378,831.2
529.514,830.1
529.651,831.2
529.787,829.6
529.924,830.3
530.061,831.4
530.197,829.7
530.334,830.5
530.47,830.8
530.606,830.2
530.743,830.6
530.879,828.7
531.016,830.2
531.152,830.6
531.289,829.5
531.425,830.8
531.562,831.5
531.698,830.8
531.834,829.5
531.971,832.8
532.107,857.3
532.244,867.9
532.38,837.7
532.516,829.8
532.653,831.4
532.789,830.5
532.925,831.3
533.062,830.6
533.198,831.5
533.334,831.1
533.471,832.9
533.607,838.8
533.743,913.6
533.879,1256.0
534.016,1754.5
534.152,1952.2
534.288,1894.5
534.424,1786.5
534.561,1696.8
534.697,1626.0
534.833,1551.8
534.969,1466.5
535.106,1384.5
535.242,1327.3
535.378,1271.1
535.514,1227.4
535.65,1186.1
535.786,1145.6
535.923,1108.4
536.059,1076.2
536.195,1056.6
536.331,1039.9
536.467,1017.4
536.603,1007.0
536.739,995.4
536.876,985.6
537.012,986.4
537.148,980.9
537.284,977.4
537.42,971.5
537.556,972.7
537.692,964.9
537.828,962.4
537.964,962.9
538.1,964.1
538.236,965.1
538.372,973.6
538.508,974.8
538.644,968.0
538.78,967.0
538.916,967.0
539.052,966.4
539.188,963.8
539.324,967.6
539.46,978.3
539.596,984.2
539.732,985.8
539.868,990.3
540.004,989.0
540.14,993.8
540.275,981.1
540.411,964.1
540.547,958.6
540.683,954.1
540.819,949.5
540.955,945.5
541.091,941.5
541.227,943.4
541.362,941.4
541.498,939.4
541.634,933.2
541.77,933.9
541.906,940.3
542.041,936.6
542.177,937.3
542.313,938.0
542.449,942.5
542.585,940.5
542.72,935.9
542.856,939.4
542.992,937.7
543.128,937.7
543.263,937.0
543.399,941.0
543.535,936.1
543.67,939.9
543.806,943.2
543.942,942.9
544.078,948.3
544.213,944.8
544.349,942.6
544.485,945.1
544.62,943.1
544.756,944.7
544.892,945.1
545.027,948.7
545.163,951.0
545.298,948.9
545.434,944.9
545.57,949.8
545.705,946.2
545.841,951.2
545.976,952.2
546.112,954.1
546.248,949.9
546.383,952.3
546.519,948.9
546.654,959.1
546.79,955.3
546.925,957.9
547.061,957.5
547.196,956.4
547.332,954.8
547.467,952.2
547.603,956.0
547.738,960.2
547.874,957.9
548.009,957.9
548.145,961.0
548.28,962.2
548.416,956.3
548.551,960.6
548.686,959.8
548.822,964.7
548.957,960.0
549.093,961.3
549.228,957.8
549.363,961.7
549.499,965.5
549.634,965.6
549.77,965.2
549.905,965.1
550.04,962.7
550.176,968.8
550.311,976.8
550.446,987.7
550.582,1050.6
550.717,1136.8
550.852,1062.0
550.988,988.3
551.123,969.3
551.258,968.2
551.394,973.2
551.529,978.4
551.664,976.0
551.799,974.2
551.935,978.9
552.07,979.4
552.205,978.7
552.34,976.8
552.476,983.9
552.611,988.2
552.746,1018.0
552.881,1041.0
553.016,1024.1
553.152,999.4
553.287,987.7
553.422,983.6
553.557,985.2
553.692,993.8
553.827,986.0
553.963,991.0
554.098,989.1
554.233,987.3
554.368,986.9
554.503,985.3
554.638,988.3
554.773,990.3
554.908,996.3
555.043,993.6
555.179,996.2
555.314,1002.6
555.449,1019.8
555.584,1047.2
555.719,1058.7
555.854,1049.2
555.989,1049.0
556.124,1050.5
556.259,1050.2
556.394,1059.5
556.529,1060.9
556.664,1061.5
556.799,1067.0
556.934,1067.2
557.069,1078.9
557.204,1096.5
557.339,1143.5
557.474,1195.1
557.609,1233.5
557.744,1207.3
557.879,1129.3
558.014,1089.6
558.149,1078.2
558.284,1083.3
558.419,1087.9
558.553,1087.7
558.688,1078.8
558.823,1069.3
558.958,1057.8
559.093,1046.3
559.228,1035.1
559.363,1030.8
559.498,1023.2
559.632,1021.2
559.767,1021.6
559.902,1021.6
560.037,1022.2
560.172,1023.7
560.307,1023.2
560.441,1024.7
560.576,1029.6
560.711,1026.3
560.846,1028.9
560.981,1029.1
561.115,1029.9
561.25,1032.9
561.385,1031.3
561.52,1034.6
561.654,1030.2
561.789,1036.8
561.924,1038.5
562.059,1050.3
562.193,1054.4
562.328,1053.1
562.463,1052.8
562.598,1057.5
562.732,1068.6
562.867,1060.1
563.002,1068.8
563.136,1074.8
563.271,1071.6
563.406,1070.8
563.54,1068.2
563.675,1067.5
563.81,1060.7
563.944,1061.4
564.079,1062.4
564.213,1056.8
564.348,1065.0
564.483,1064.9
564.617,1074.9
564.752,1082.0
564.887,1091.0
565.021,1109.3
565.156,1128.6
565.29,1142.2
565.425,1167.0
565.559,1176.4
565.694,1188.0
565.828,1201.5
565.963,1199.6
566.098,1174.3
566.232,1148.2
566.367,1123.8
566.501,1100.6
566.636,1090.0
566.77,1088.2
566.905,1077.2
567.039,1071.2
567.174,1074.3
567.308,1082.1
567.443,1099.6
567.577,1126.8
567.711,1155.4
567.846,1142.7
567.98,1118.2
568.115,1100.3
568.249,1089.4
568.384,1088.4
568.518,1086.1
568.652,1080.7
568.787,1084.1
568.921,1079.5
569.056,1091.4
569.19,1086.4
569.324,1088.7
569.459,1098.0
569.593,1102.3
569.727,1109.3
569.862,1124.9
569.996,1121.5
570.131,1132.7
570.265,1137.7
570.399,1164.9
570.534,1192.7
570.668,1231.7
570.802,1244.8
570.936,1272.3
571.071,1318.1
571.205,1361.1
571.339,1388.8
571.474,1393.6
571.608,1345.6
571.742,1281.9
571.876,1252.9
572.011,1245.8
572.145,1216.8
572.279,1186.1
572.413,1163.9
572.548,1151.4
572.682,1136.2
572.816,1131.0
572.95,1126.2
573.084,1124.1
573.219,1125.6
573.353,1125.5
573.487,1126.9
573.621,1129.1
573.755,1131.1
573.889,1138.0
574.024,1154.2
574.158,1158.7
574.292,1157.2
574.426,1152.5
574.56,1135.6
574.694,1137.9
574.828,1136.3
574.963,1144.1
575.097,1152.2
575.231,1167.7
575.365,1188.9
575.499,1183.5
575.633,1162.0
575.767,1149.0
575.901,1147.7
576.035,1152.4
576.169,1166.3
576.303,1172.2
576.437,1184.9
576.571,1181.2
576.706,1193.5
576.84,1188.4
576.974,1185.0
577.108,1171.0
577.242,1167.5
577.376,1170.5
577.51,1151.1
577.644,1154.3
577.778,1153.2
577.912,1152.9
578.046,1155.0
578.179,1154.9
578.313,1157.8
578.447,1158.1
578.581,1156.0
578.715,1159.6
578.849,1159.6
578.983,1157.2
579.117,1156.3
579.251,1151.0
579.385,1158.3
579.519,1164.1
579.653,1163.6
579.787,1165.1
579.921,1162.0
580.054,1165.5
580.188,1167.3
580.322,1163.9
580.456,1174.2
580.59,1177.7
580.724,1176.5
580.858,1181.0
580.991,1192.0
581.125,1189.4
581.259,1195.9
581.393,1204.0
581.527,1231.6
581.661,1267.0
581.794,1373.8
581.928,1573.9
582.062,1982.1
582.196,2377.5
582.33,2127.1
582.463,1572.6
582.597,1308.5
582.731,1234.6
582.865,1222.3
582.998,1205.8
583.132,1202.6
583.266,1205.3
583.4,1197.7
583.533,1194.9
583.667,1196.6
583.801,1194.0
583.935,1202.2
584.068,1198.0
584.202,1216.0
584.336,1203.5
584.469,1209.3
584.603,1216.9
584.737,1221.3
584.87,1219.0
585.004,1226.3
585.138,1242.9
585.271,1263.7
585.405,1322.4
585.539,1430.1
585.672,1590.6
585.806,1735.0
585.94,1808.4
586.073,1802.6
586.207,1760.4
586.34,1668.4
586.474,1567.4
586.608,1446.0
586.741,1342.6
586.875,1295.4
587.008,1264.9
587.142,1239.1
587.276,1243.6
587.409,1232.3
587.543,1238.2
587.676,1220.9
587.81,1220.6
587.943,1225.6
588.077,1214.7
588.21,1224.0
588.344,1217.4
588.478,1223.6
588.611,1220.1
588.745,1222.4
588.878,1212.6
589.012,1227.9
589.145,1226.1
589.279,1218.9
589.412,1216.8
589.546,1213.9
589.679,1215.7
589.812,1215.2
589.946,1221.3
590.079,1218.9
590.213,1228.8
590.346,1219.5
590.48,1220.5
590.613,1225.8
590.747,1220.5
590.88,1223.2
591.013,1214.4
591.147,1222.0
591.28,1223.4
591.414,1223.6
591.547,1227.9
591.68,1224.6
591.814,1223.5
591.947,1224.2
592.081,1224.9
592.214,1222.9
592.347,1225.5
592.481,1225.7
592.614,1227.9
592.747,1220.1
592.881,1223.9
593.014,1229.0
593.147,1222.0
593.281,1234.2
593.414,1227.8
593.547,1233.3
593.681,1225.0
593.814,1221.0
593.947,1224.6
594.081,1231.2
594.214,1231.9
594.347,1226.3
594.48,1231.8
594.614,1239.0
594.747,1239.0
594.88,1232.5
595.014,1240.3
595.147,1232.6
595.28,1240.9
595.413,1238.8
595.547,1237.4
595.68,1242.3
595.813,1232.6
595.946,1236.8
596.079,1244.7
596.213,1238.5
596.346,1239.2
596.479,1247.2
596.612,1243.6
596.745,1243.2
596.879,1241.3
597.012,1253.0
597.145,1245.1
597.278,1239.6
597.411,1248.7
597.545,1242.7
597.678,1241.1
597.811,1257.1
597.944,1251.4
598.077,1253.5
598.21,1258.4
598.343,1247.4
598.476,1256.5
598.61,1253.0
598.743,1251.0
598.876,1253.3
599.009,1261.0
599.142,1254.5
599.275,1262.4
599.408,1258.1
599.541,1250.8
599.674,1254.4
599.807,1255.9
599.941,1260.0
600.074,1257.5
600.207,1256.2
600.34,1263.2
600.473,1251.2
600.606,1255.2
600.739,1259.6
600.872,1253.1
601.005,1250.6
601.138,1256.0
601.271,1247.2
601.404,1249.4
601.537,1258.9
601.67,1259.9
601.803,1259.7
601.936,1250.7
602.069,1252.7
602.202,1253.5
602.335,1253.7
602.468,1252.3
602.601,1245.9
602.734,1258.9
602.867,1260.6
603.0,1262.6
603.133,1262.7
603.266,1257.3
603.399,1264.7
603.532,1258.5
603.664,1263.5
603.797,1261.8
603.93,1265.6
604.063,1261.6
604.196,1264.7
604.329,1259.8
604.462,1266.1
604.595,1262.7
604.728,1259.2
604.861,1256.3
604.994,1258.7
605.126,1251.2
605.259,1250.5
605.392,1252.9
605.525,1251.4
605.658,1253.3
605.791,1250.5
605.924,1248.0
606.056,1246.3
606.189,1253.5
606.322,1254.4
606.455,1247.3
606.588,1246.8
606.721,1250.2
606.853,1256.5
606.986,1256.4
607.119,1255.3
607.252,1256.2
607.385,1252.1
607.517,1252.8
607.65,1251.4
607.783,1257.4
607.916,1253.2
608.049,1259.6
608.181,1258.6
608.314,1264.3
608.447,1258.1
608.58,1260.1
608.712,1254.4
608.845,1259.4
608.978,1264.8
609.111,1270.1
609.243,1256.6
609.376,1259.8
609.509,1263.3
609.641,1267.6
609.774,1256.3
609.907,1260.6
610.04,1256.9
610.172,1262.8
610.305,1256.0
610.438,1257.1
610.57,1260.7
610.703,1259.4
610.836,1262.0
610.968,1265.6
611.101,1263.8
611.234,1263.5
611.366,1260.4
611.499,1263.2
611.632,1262.5
611.764,1263.8
611.897,1270.4
612.03,1261.6
612.162,1271.9
612.295,1264.9
612.428,1266.7
612.56,1268.1
612.693,1266.0
612.825,1270.4
612.958,1275.9
613.091,1275.6
613.223,1271.8
613.356,1277.6
613.488,1285.8
613.621,1284.6
613.754,1277.9
613.886,1276.7
614.019,1286.7
614.151,1288.6
614.284,1286.7
614.416,1287.2
614.549,1282.9
614.681,1283.3
614.814,1282.7
614.947,1287.7
615.079,1282.1
615.212,1294.6
615.344,1283.0
615.477,1283.6
615.609,1281.8
615.742,1281.0
615.874,1284.7
616.007,1292.3
616.139,1296.0
616.272,1286.9
616.404,1290.0
616.537,1291.9
616.669,1293.8
616.802,1291.1
616.934,1290.9
617.067,1296.5
617.199,1296.4
617.332,1302.0
617.464,1297.0
617.596,1298.8
617.729,1301.1
617.861,1301.3
617.994,1298.2
618.126,1309.4
618.259,1301.0
618.391,1310.9
618.524,1312.8
618.656,1310.5
618.788,1312.4
618.921,1312.5
619.053,1304.3
619.186,1301.7
619.318,1304.4
619.45,1301.6
619.583,1298.3
619.715,1305.9
619.848,1300.0
619.98,1301.4
620.112,1299.1
620.245,1298.0
620.377,1299.0
620.509,1302.3
620.642,1302.1
620.774,1299.8
620.907,1301.5
621.039,1298.6
621.171,1298.3
621.304,1304.3
621.436,1305.7
621.568,1308.2
621.701,1308.1
621.833,1303.7
621.965,1301.7
622.097,1307.6
622.23,1313.3
622.362,1306.3
622.494,1311.4
622.627,1312.7
622.759,1319.7
622.891,1316.9
623.024,1326.8
623.156,1316.5
623.288,1324.9
623.42,1321.3
623.553,1323.0
623.685,1321.3
623.817,1323.0
623.949,1325.4
624.082,1329.5
624.214,1329.7
624.346,1335.1
624.479,1332.8
624.611,1337.8
624.743,1341.6
624.875,1339.2
625.007,1344.2
625.14,1337.6
625.272,1338.2
625.404,1341.8
625.536,1347.8
625.669,1339.3
625.801,1345.5
625.933,1336.1
626.065,1339.9
626.197,1342.5
626.33,1337.6
626.462,1331.7
626.594,1347.6
626.726,1348.9
626.858,1340.7
626.99,1337.8
627.123,1340.4
627.255,1341.9
627.387,1344.8
627.519,1351.5
627.651,1358.2
627.783,1356.1
627.916,1360.6
628.048,1361.6
628.18,1364.0
628.312,1371.1
628.444,1380.6
628.576,1378.6
628.708,1378.0
628.84,1394.1
628.973,1399.8
629.105,1403.3
629.237,1413.3
629.369,1401.6
629.501,1408.4
629.633,1403.3
629.765,1404.4
629.897,1396.3
630.029,1401.2
630.161,1394.4
630.294,1393.7
630.426,1403.1
630.558,1410.2
630.69,1409.5
630.822,1423.5
630.954,1442.5
631.086,1478.2
631.218,1512.8
631.35,1541.8
631.482,1570.2
631.614,1602.7
631.746,1618.3
631.878,1618.1
632.01,1608.7
632.142,1588.0
632.274,1573.3
632.406,1534.9
632.538,1523.4
632.67,1503.2
632.802,1513.2
632.934,1497.7
633.066,1489.1
633.198,1491.4
633.33,1498.9
633.462,1500.0
633.594,1466.9
633.726,1473.3
633.858,1469.2
633.99,1463.0
634.122,1455.8
634.254,1449.9
634.386,1438.7
634.518,1435.0
634.65,1442.4
634.782,1436.8
634.914,1435.9
635.046,1443.1
635.178,1435.8
635.31,1445.7
635.442,1452.0
635.574,1470.7
635.706,1476.8
635.838,1513.7
635.97,1551.2
636.102,1584.4
636.234,1599.5
636.365,1643.3
636.497,1701.8
636.629,1728.8
636.761,1696.2
636.893,1646.6
637.025,1584.8
637.157,1541.8
637.289,1510.1
637.421,1504.6
637.553,1485.9
637.685,1493.0
637.816,1471.3
637.948,1465.9
638.08,1469.3
638.212,1468.0
638.344,1461.4
638.476,1462.8
638.608,1472.4
638.74,1464.2
638.871,1463.9
639.003,1468.4
639.135,1469.7
639.267,1466.3
639.399,1473.0
639.531,1471.5
639.662,1470.7
639.794,1477.2
639.926,1473.9
640.058,1465.1
640.19,1473.6
640.322,1475.1
640.453,1476.1
640.585,1475.5
640.717,1483.4
640.849,1478.3
640.981,1482.3
641.113,1487.8
641.244,1481.4
641.376,1492.0
641.508,1484.8
641.64,1490.4
641.772,1488.0
641.903,1494.4
642.035,1497.4
642.167,1503.7
642.299,1503.9
642.43,1511.8
642.562,1520.1
642.694,1512.0
642.826,1490.0
642.958,1495.3
643.089,1493.0
643.221,1494.4
643.353,1487.1
643.485,1488.7
643.616,1487.4
643.748,1488.5
643.88,1481.7
644.012,1488.6
644.143,1496.4
644.275,1488.2
644.407,1493.9
644.538,1485.1
644.67,1488.1
644.802,1492.2
644.934,1502.8
645.065,1495.1
645.197,1506.6
645.329,1499.8
645.461,1500.0
645.592,1487.0
645.724,1498.5
645.856,1506.9
645.987,1504.4
646.119,1506.2
646.251,1507.6
646.382,1509.3
646.514,1506.8
646.646,1509.5
646.777,1518.5
646.909,1505.5
647.041,1514.4
647.172,1527.3
647.304,1517.7
647.436,1520.1
647.567,1520.4
647.699,1518.7
647.831,1523.3
647.962,1518.6
648.094,1519.8
648.226,1515.3
648.357,1521.2
648.489,1514.4
648.621,1522.0
648.752,1521.9
648.884,1522.0
649.016,1514.3
649.147,1518.6
649.279,1524.4
649.411,1515.1
649.542,1520.7
649.674,1520.6
649.805,1524.6
649.937,1520.2
650.069,1517.4
650.2,1523.4
650.332,1519.9
650.463,1521.7
650.595,1516.5
650.727,1502.5
650.858,1519.5
650.99,1535.4
651.121,1524.6
651.253,1525.2
651.385,1519.5
651.516,1526.8
651.648,1530.8
651.779,1529.9
651.911,1527.2
652.043,1530.9
652.174,1528.8
652.306,1535.6
652.437,1535.9
652.569,1532.8
652.7,1543.8
652.832,1532.0
652.963,1541.3
653.095,1541.9
653.227,1538.2
653.358,1539.3
653.49,1535.3
653.621,1543.9
653.753,1538.1
653.884,1535.0
654.016,1542.9
654.147,1542.5
654.279,1539.2
654.41,1534.3
654.542,1537.4
654.674,1540.5
654.805,1548.2
654.937,1542.3
655.068,1537.9
655.2,1537.3
655.331,1546.1
655.463,1534.8
655.594,1542.1
655.726,1540.3
655.857,1545.4
655.989,1546.5
656.12,1539.4
656.252,1539.7
656.383,1541.2
656.515,1546.1
656.646,1549.8
656.778,1551.0
656.909,1550.6
657.041,1547.5
657.172,1554.5
657.304,1550.8
657.435,1545.8
657.567,1548.0
657.698,1557.3
657.829,1549.9
657.961,1549.0
658.092,1564.5
658.224,1544.2
658.355,1553.7
658.487,1546.4
658.618,1552.9
658.75,1552.5
658.881,1548.7
659.013,1547.7
659.144,1549.5
659.275,1554.6
659.407,1555.7
659.538,1552.4
659.67,1547.1
659.801,1561.4
659.933,1558.4
660.064,1554.5
660.196,1546.5
660.327,1554.9
660.458,1551.3
660.59,1545.2
660.721,1555.1
660.853,1542.7
660.984,1544.3
661.116,1546.8
661.247,1546.8
661.378,1544.3
661.51,1548.3
661.641,1552.2
661.773,1545.1
661.904,1541.4
662.035,1535.8
662.167,1534.2
662.298,1542.7
662.43,1535.0
662.561,1539.7
662.692,1544.4
662.824,1539.1
662.955,1534.2
663.087,1531.4