File: spectra/VLFR_02-HDPE_nobio_Raman_7e5fd823.csv
nm,Intensity
526.532,830.5
526.669,829.867
526.805,831.0
526.942,829.3
527.079,830.4
527.216,829.867
527.352,829.967
527.489,829.2
527.625,830.5
527.762,830.667
527.899,830.2
528.035,829.167
528.172,830.4
528.309,830.367
528.445,829.5
528.582,829.5
528.718,829.733
528.855,830.733
528.992,830.2
529.128,830.5
529.265,830.233
529.401,830.467
529.538,829.333
529.674,829.867
529.811,830.667
529.947,829.467
530.084,830.533
530.22,829.633
530.357,830.3
530.493,829.9
530.63,830.367
530.766,829.5
530.903,830.233
531.039,829.9
531.176,830.067
531.312,830.167
531.449,829.8
531.585,830.667
531.721,830.233
531.858,830.633
531.994,839.833
532.131,881.0
532.267,871.167
532.403,837.533
532.54,830.733
532.676,830.267
532.812,830.3
532.949,830.4
533.085,828.8
533.221,829.033
533.358,830.767
533.494,829.667
533.63,830.8
533.767,838.767
533.903,863.033
534.039,886.333
534.176,891.633
534.312,888.2
534.448,886.4
534.584,883.833
534.721,881.4
534.857,878.0
534.993,877.367
535.129,874.7
535.266,870.533
535.402,868.6
535.538,864.3
535.674,865.1
535.81,861.9
535.947,860.433
536.083,860.833
536.219,859.667
536.355,857.433
536.491,857.567
536.627,857.633
536.764,858.3
536.9,855.7
537.036,856.167
537.172,855.6
537.308,856.567
537.444,856.0
537.58,855.933
537.716,854.8
537.852,854.933
537.988,855.867
538.125,855.5
538.261,854.5
538.397,853.567
538.533,854.7
538.669,854.033
538.805,851.733
538.941,851.0
539.077,850.667
539.213,849.533
539.349,849.367
539.485,849.233
539.621,849.767
539.757,848.833
539.893,849.433
540.029,848.533
540.165,848.233
540.301,847.967
540.437,847.467
540.572,846.833
540.708,847.7
540.844,846.333
540.98,847.467
541.116,846.7
541.252,847.233
541.388,847.4
541.524,846.467
541.66,847.633
541.795,846.8
541.931,845.8
542.067,846.267
542.203,846.0
542.339,847.233
542.475,846.733
542.611,846.1
542.746,847.467
542.882,845.967
543.018,846.733
543.154,845.167
543.289,846.433
543.425,846.3
543.561,847.233
543.697,845.567
543.833,846.467
543.968,847.567
544.104,845.933
544.24,846.867
544.375,845.3
544.511,845.633
544.647,846.633
544.783,845.3
544.918,846.633
545.054,845.867
545.19,846.1
545.325,846.6
545.461,845.4
545.597,845.9
545.732,846.633
545.868,846.433
546.004,845.567
546.139,845.267
546.275,845.067
546.41,845.533
546.546,846.2
546.682,845.8
546.817,846.8
546.953,845.467
547.088,845.533
547.224,846.2
547.36,845.467
547.495,845.967
547.631,845.5
547.766,845.667
547.902,845.3
548.037,845.333
548.173,845.333
548.308,845.667
548.444,845.233
548.579,846.4
548.715,845.5
548.85,844.567
548.986,845.5
549.121,846.233
549.257,846.333
549.392,845.233
549.528,845.7
549.663,845.333
549.798,844.9
549.934,845.833
550.069,846.267
550.205,846.267
550.34,845.533
550.475,846.067
550.611,846.567
550.746,846.533
550.882,845.733
551.017,847.333
551.152,845.167
551.288,845.1
551.423,845.7
551.558,845.0
551.694,845.867
551.829,846.2
551.964,846.333
552.1,845.367
552.235,846.1
552.37,846.233
552.505,846.7
552.641,846.0
552.776,846.533
552.911,846.833
553.047,846.067
553.182,847.133
553.317,847.233
553.452,847.867
553.588,849.067
553.723,848.5
553.858,847.933
553.993,847.8
554.128,848.7
554.264,847.967
554.399,850.033
554.534,847.367
554.669,850.033
554.804,848.967
554.939,848.433
555.075,849.333
555.21,849.667
555.345,849.633
555.48,850.667
555.615,849.6
555.75,851.067
555.885,851.6
556.02,851.033
556.155,852.067
556.291,851.833
556.426,851.1
556.561,850.433
556.696,852.167
556.831,852.967
556.966,852.6
557.101,853.6
557.236,853.533
557.371,854.933
557.506,854.2
557.641,853.833
557.776,855.233
557.911,856.933
558.046,856.0
558.181,858.267
558.316,858.833
558.451,858.067
558.586,860.167
558.721,859.467
558.856,858.633
558.991,857.6
559.126,856.2
559.261,856.267
559.396,856.167
559.531,855.5
559.665,855.733
559.8,855.667
559.935,856.233
560.07,854.333
560.205,855.9
560.34,854.633
560.475,854.067
560.61,855.433
560.745,854.733
560.879,853.633
561.014,854.067
561.149,855.733
561.284,854.833
561.419,856.233
561.553,856.5
561.688,855.467
561.823,855.867
561.958,856.5
562.093,857.867
562.227,857.1
562.362,859.733
562.497,858.6
562.632,860.367
562.767,860.1
562.901,861.7
563.036,860.0
563.171,861.233
563.305,862.767
563.44,863.567
563.575,866.6
563.71,873.167
563.844,896.433
563.979,966.3
564.114,1007.17
564.248,932.733
564.383,888.667
564.518,881.133
564.652,881.033
564.787,880.6
564.922,878.667
565.056,876.2
565.191,873.533
565.325,872.5
565.46,872.767
565.595,874.667
565.729,879.733
565.864,894.467
565.999,941.033
566.133,1069.37
566.268,1110.6
566.402,968.967
566.537,893.7
566.671,876.767
566.806,868.533
566.94,868.667
567.075,867.167
567.21,866.233
567.344,867.033
567.479,872.4
567.613,868.833
567.748,864.6
567.882,863.933
568.017,863.167
568.151,862.233
568.285,861.633
568.42,862.0
568.554,863.233
568.689,862.4
568.823,862.333
568.958,863.067
569.092,863.333
569.227,865.1
569.361,865.567
569.495,864.267
569.63,866.6
569.764,863.633
569.899,865.033
570.033,866.4
570.167,866.633
570.302,869.233
570.436,868.967
570.571,870.967
570.705,874.367
570.839,876.8
570.974,874.2
571.108,877.767
571.242,885.067
571.377,920.9
571.511,1053.2
571.645,1096.6
571.78,952.7
571.914,905.8
572.048,893.5
572.182,887.533
572.317,880.067
572.451,877.333
572.585,873.167
572.719,873.267
572.854,870.433
572.988,870.467
573.122,869.467
573.256,870.5
573.391,871.167
573.525,871.7
573.659,873.0
573.793,875.167
573.927,881.667
574.062,885.767
574.196,879.5
574.33,874.767
574.464,873.767
574.598,873.967
574.733,871.667
574.867,874.4
575.001,875.433
575.135,879.9
575.269,888.733
575.403,932.7
575.537,1035.13
575.671,1026.33
575.806,949.4
575.94,929.1
576.074,937.967
576.208,964.533
576.342,984.867
576.476,970.967
576.61,953.667
576.744,944.633
576.878,944.833
577.012,946.467
577.146,941.0
577.28,932.4
577.414,917.3
577.548,905.667
577.682,900.967
577.817,896.8
577.951,896.733
578.085,895.8
578.219,893.967
578.353,895.867
578.486,894.7
578.62,894.433
578.754,895.633
578.888,897.233
579.022,899.467
579.156,900.933
579.29,899.267
579.424,899.933
579.558,902.467
579.692,902.833
579.826,903.933
579.96,906.2
580.094,905.167
580.228,907.2
580.362,907.367
580.496,908.333
580.629,909.4
580.763,912.933
580.897,914.033
581.031,912.633
581.165,916.567
581.299,916.533
581.433,918.2
581.566,921.8
581.7,921.067
581.834,922.767
581.968,922.4
582.102,925.567
582.236,926.733
582.369,926.3
582.503,929.667
582.637,928.7
582.771,931.267
582.905,933.833
583.038,932.8
583.172,934.6
583.306,934.967
583.44,939.467
583.573,937.633
583.707,940.567
583.841,940.933
583.975,943.433
584.108,942.3
584.242,942.833
584.376,947.6
584.509,944.733
584.643,948.867
584.777,948.667
584.911,951.4
585.044,949.467
585.178,953.8
585.312,952.0
585.445,956.067
585.579,956.667
585.713,955.967
585.846,960.767
585.98,958.567
586.113,960.367
586.247,963.733
586.381,964.933
586.514,966.6
586.648,970.267
586.782,969.667
586.915,970.867
587.049,972.7
587.182,975.367
587.316,976.833
587.45,977.033
587.583,979.533
587.717,980.767
587.85,984.733
587.984,984.8
588.117,984.033
588.251,984.233
588.384,990.6
588.518,988.967
588.651,990.433
588.785,993.1
588.919,993.9
589.052,995.967
589.186,996.833
589.319,998.933
589.453,1001.53
589.586,1002.67
589.72,1006.8
589.853,1006.53
589.986,1010.63
590.12,1012.0
590.253,1015.07
590.387,1016.1
590.52,1017.03
590.654,1020.9
590.787,1021.23
590.921,1023.43
591.054,1024.9
591.187,1027.4
591.321,1028.33
591.454,1028.07
591.588,1030.37
591.721,1028.97
591.854,1031.23
591.988,1032.17
592.121,1033.93
592.255,1034.17
592.388,1039.7
592.521,1038.23
592.655,1038.23
592.788,1037.9
592.921,1039.37
593.055,1037.6
593.188,1041.1
593.321,1042.93
593.455,1041.23
593.588,1042.8
593.721,1044.7
593.855,1045.33
593.988,1044.6
594.121,1045.53
594.255,1044.9
594.388,1045.63
594.521,1046.53
594.654,1048.7
594.788,1048.9
594.921,1048.03
595.054,1048.5
595.187,1045.67
595.321,1054.37
595.454,1051.7
595.587,1050.67
595.72,1053.13
595.854,1051.3
595.987,1053.13
596.12,1055.27
596.253,1058.27
596.387,1054.83
596.52,1056.63
596.653,1055.4
596.786,1053.87
596.919,1062.07
597.052,1058.43
597.186,1062.1
597.319,1063.43
597.452,1061.07
597.585,1062.07
597.718,1064.17
597.851,1065.93
597.985,1067.87
598.118,1064.47
598.251,1069.4
598.384,1070.3
598.517,1077.87
598.65,1075.0
598.783,1079.43
598.916,1076.07
599.049,1077.0
599.183,1078.87
599.316,1079.07
599.449,1081.67
599.582,1081.0
599.715,1081.13
599.848,1085.93
599.981,1085.93
600.114,1084.5
600.247,1083.13
600.38,1079.5
600.513,1081.97
600.646,1083.13
600.779,1081.17
600.912,1082.9
601.045,1080.8
601.178,1080.77
601.311,1083.47
601.444,1083.47
601.577,1084.27
601.71,1081.5
601.843,1082.93
601.976,1079.33
602.109,1081.73
602.242,1081.4
602.375,1079.3
602.508,1082.9
602.641,1078.0
602.774,1077.93
602.907,1077.33
603.04,1074.8
603.173,1075.7
603.306,1072.73
603.439,1076.87
603.572,1075.17
603.705,1070.8
603.838,1069.43
603.971,1069.07
604.103,1068.27
604.236,1066.63
604.369,1061.87
604.502,1060.5
604.635,1061.0
604.768,1055.23
604.901,1056.63
605.034,1054.97
605.167,1050.77
605.299,1047.63
605.432,1043.9
605.565,1045.27
605.698,1044.03
605.831,1039.87
605.964,1039.7
606.096,1038.47
606.229,1036.53
606.362,1033.53
606.495,1032.7
606.628,1030.73
606.761,1029.17
606.893,1027.8
607.026,1027.33
607.159,1026.07
607.292,1026.03
607.425,1023.2
607.557,1021.17
607.69,1018.8
607.823,1023.13
607.956,1018.1
608.088,1016.9
608.221,1019.77
608.354,1018.97
608.487,1015.87
608.619,1014.8
608.752,1014.63
608.885,1011.93
609.018,1011.5
609.15,1008.2
609.283,1011.5
609.416,1005.63
609.548,1005.9
609.681,1008.13
609.814,1005.33
609.947,1004.8
610.079,1005.83
610.212,1001.97
610.345,1001.93
610.477,999.467
610.61,1001.5
610.743,1003.23
610.875,997.467
611.008,1002.57
611.141,1002.0
611.273,1001.37
611.406,1002.2
611.539,996.733
611.671,997.5
611.804,995.267
611.936,993.833
612.069,997.433
612.202,992.833
612.334,993.3
612.467,992.767
612.6,990.667
612.732,991.233
612.865,989.933
612.997,989.7
613.13,991.233
613.263,990.167
613.395,988.667
613.528,989.6
613.66,989.033
613.793,987.033
613.925,985.6
614.058,986.267
614.19,986.467
614.323,983.6
614.456,985.433
614.588,983.367
614.721,982.967
614.853,982.233
614.986,980.267
615.118,979.967
615.251,981.4
615.383,979.533
615.516,976.033
615.648,977.233
615.781,978.7
615.913,974.933
616.046,977.633
616.178,974.4
616.311,972.633
616.443,976.2
616.576,973.5
616.708,975.467
616.841,974.267
616.973,976.233
617.106,973.867
617.238,974.967
617.37,973.533
617.503,974.133
617.635,973.667
617.768,976.833
617.9,973.433
618.033,975.5
618.165,973.533
618.297,973.6
618.43,972.3
618.562,968.967
618.695,969.7
618.827,971.233
618.96,968.4
619.092,968.7
619.224,969.8
619.357,968.1
619.489,971.333
619.621,968.733
619.754,969.267
619.886,968.5
620.019,965.667
620.151,964.5
620.283,964.933
620.416,966.967
620.548,968.167
620.68,968.2
620.813,965.133
620.945,966.3
621.077,968.8
621.21,970.3
621.342,971.333
621.474,973.333
621.607,974.767
621.739,979.367
621.871,982.267
622.004,983.8
622.136,993.967
622.268,994.933
622.401,996.4
622.533,992.3
622.665,985.2
622.797,978.7
622.93,972.9
623.062,969.967
623.194,965.5
623.326,964.4
623.459,962.567
623.591,962.633
623.723,961.333
623.856,961.867
623.988,959.133
624.12,962.5
624.252,959.533
624.384,961.4
624.517,958.633
624.649,960.467
624.781,958.6
624.913,960.6
625.046,961.933
625.178,961.4
625.31,959.733
625.442,965.4
625.574,963.867
625.707,967.433
625.839,967.733
625.971,972.2
626.103,972.633
626.235,979.333
626.368,992.067
626.5,1010.5
626.632,1040.27
626.764,1099.27
626.896,1197.4
627.028,1352.43
627.161,1518.57
627.293,1582.57
627.425,1536.27
627.557,1444.1
627.689,1364.57
627.821,1317.6
627.953,1282.8
628.086,1265.63
628.218,1272.6
628.35,1327.9
628.482,1478.83
628.614,1647.87
628.746,1562.33
628.878,1429.9
629.01,1375.37
629.143,1348.5
629.275,1336.47
629.407,1309.73
629.539,1275.3
629.671,1244.4
629.803,1212.73
629.935,1197.4
630.067,1182.17
630.199,1180.57
630.331,1177.27
630.463,1176.07
630.596,1157.27
630.728,1136.77
630.86,1109.4
630.992,1077.37
631.124,1043.07
631.256,1017.03
631.388,998.733
631.52,995.4
631.652,989.6
631.784,983.2
631.916,976.8
632.048,974.733
632.18,971.333
632.312,969.767
632.444,967.333
632.576,966.233
632.708,966.1
632.84,962.167
632.972,964.767
633.104,963.6
633.236,963.033
633.368,962.667
633.5,961.5
633.632,961.667
633.764,959.433
633.896,962.0
634.028,961.633
634.16,959.767
634.292,960.133
634.424,960.233
634.556,959.467
634.688,958.667
634.82,960.367
634.952,959.533
635.084,960.0
635.216,959.267
635.348,956.333
635.48,961.033
635.612,960.967
635.744,963.3
635.876,960.067
636.007,963.933
636.139,961.6
636.271,960.567
636.403,961.467
636.535,963.433
636.667,962.933
636.799,960.067
636.931,960.1
637.063,959.367
637.195,960.067
637.327,960.267
637.459,960.967
637.59,958.333
637.722,962.5
637.854,958.1
637.986,960.867
638.118,959.933
638.25,960.767
638.382,960.2
638.514,959.033
638.645,960.633
638.777,961.9
638.909,964.967
639.041,963.533
639.173,961.333
639.305,964.667
639.437,963.067
639.568,962.933
639.7,966.167
639.832,965.0
639.964,964.733
640.096,963.367
640.228,965.4
640.36,965.7
640.491,966.667
640.623,968.867
640.755,966.767
640.887,966.033
641.019,968.233
641.15,970.2
641.282,970.533
641.414,969.933
641.546,968.767
641.678,968.6
641.81,968.033
641.941,970.033
642.073,970.367
642.205,972.467
642.337,970.233
642.468,968.4
642.6,968.033
642.732,973.367
642.864,973.1
642.996,972.7
643.127,971.433
643.259,973.0
643.391,972.567
643.523,971.267
643.654,972.0
643.786,973.333
643.918,973.833
644.05,970.067
644.181,971.9
644.313,973.133
644.445,971.1
644.577,973.8
644.708,971.9
644.84,973.533
644.972,976.6
645.104,973.167
645.235,974.3
645.367,974.6
645.499,974.433
645.631,973.3
645.762,971.633
645.894,972.467
646.026,975.967
646.157,973.4
646.289,973.633
646.421,973.867
646.553,974.833
646.684,974.7
646.816,974.0
646.948,973.633
647.079,973.433
647.211,975.867
647.343,972.733
647.474,973.4
647.606,972.133
647.738,973.133
647.869,975.4
648.001,975.467
648.133,974.733
648.265,971.967
648.396,974.8
648.528,972.733
648.66,972.933
648.791,971.467
648.923,973.233
649.054,971.267
649.186,971.567
649.318,973.233
649.449,970.567
649.581,972.667
649.713,970.067
649.844,967.567
649.976,969.867
650.108,969.667
650.239,966.733
650.371,967.767
650.503,971.833
650.634,967.467
650.766,967.333
650.897,967.233
651.029,964.667
651.161,966.933
651.292,967.133
651.424,970.4
651.556,969.267
651.687,967.567
651.819,964.967
651.95,968.2
652.082,967.5
652.214,969.9
652.345,967.4
652.477,966.6
652.608,967.467
652.74,966.733
652.872,968.5
653.003,968.3
653.135,966.067
653.266,966.333
653.398,966.0
653.529,967.167
653.661,967.467
653.793,965.3
653.924,967.9
654.056,966.933
654.187,966.567
654.319,967.233
654.45,970.067
654.582,966.333
654.714,967.367
654.845,968.433
654.977,963.233
655.108,965.467
655.24,963.6
655.371,966.767
655.503,965.4
655.634,965.9
655.766,965.567
655.897,965.667
656.029,964.633
656.161,963.267
656.292,962.033
656.424,961.667
656.555,958.9
656.687,961.867
656.818,961.767
656.95,962.0
657.081,963.167
657.213,960.467
657.344,958.5
657.476,959.767
657.607,958.767
657.739,958.267
657.87,961.3
658.002,958.333
658.133,957.867
658.265,955.3
658.396,956.0
658.528,957.133
658.659,956.1
658.791,955.833
658.922,953.733
659.054,955.1
659.185,955.067
659.317,953.333
659.448,953.967
659.58,951.7
659.711,951.433
659.843,950.0
659.974,951.333
660.106,949.933
660.237,948.867
660.368,948.3
660.5,948.5
660.631,945.6
660.763,944.333
660.894,942.933
661.026,941.3
661.157,942.9
661.289,938.633
661.42,939.767
661.552,937.467
661.683,936.233
661.815,937.733
661.946,936.8
662.077,935.767
662.209,935.367
662.34,932.8
662.472,931.667
662.603,932.233
662.735,929.7
662.866,929.467
662.997,930.767
663.129,928.267