File: spectra/VLFR_06-PET_nobio_Raman_f6ff5400.csv
cm-1,Intensity
-123.878,1856.9
-117.855,1856.25
-111.836,1857.05
-105.821,1856.7
-99.8104,1858.55
-93.8036,1857.35
-87.8007,1857.2
-81.8019,1857.3
-75.807,1856.9
-69.8161,1856.2
-63.8293,1857.85
-57.8464,1856.2
-51.8675,1857.7
-45.8926,1858.05
-39.9216,1858.55
-33.9547,1860.0
-27.9917,1862.85
-22.0326,1865.05
-16.0776,1900.75
-10.1265,2382.6
-4.17932,3821.1
1.76388,3357.5
7.70313,1999.35
13.6384,1863.5
19.5698,1863.55
25.4972,1863.15
31.4207,1866.35
37.3403,1869.7
43.256,1891.65
49.1677,2109.95
55.0755,3389.3
60.9794,5632.9
66.8794,6659.5
72.7754,6660.65
78.6676,6246.35
84.5559,5763.3
90.4402,5414.65
96.3207,5067.3
102.197,4593.1
108.07,4260.2
113.939,4028.65
119.804,3708.05
125.665,3418.7
131.522,3194.75
137.375,3075.3
143.225,2913.8
149.07,2821.1
154.912,2790.5
160.75,2719.75
166.584,2686.5
172.414,2660.15
178.241,2646.0
184.063,2624.95
189.882,2625.5
195.697,2601.55
201.508,2623.25
207.315,2609.65
213.119,2636.7
218.918,2622.8
224.714,2626.2
230.506,2647.65
236.294,2632.8
242.078,2625.85
247.859,2652.1
253.636,2714.05
259.409,2733.55
265.178,2780.0
270.943,2790.75
276.705,2765.85
282.463,2692.0
288.217,2650.1
293.967,2595.15
299.713,2580.6
305.456,2545.3
311.195,2532.9
316.93,2509.05
322.662,2529.65
328.389,2539.2
334.113,2523.5
339.834,2509.1
345.55,2524.45
351.263,2541.35
356.972,2550.45
362.677,2560.85
368.379,2552.1
374.077,2555.55
379.771,2546.1
385.461,2547.95
391.148,2557.55
396.831,2563.25
402.51,2587.3
408.186,2619.55
413.858,2603.1
419.526,2557.25
425.19,2559.1
430.851,2608.8
436.508,2594.15
442.162,2594.45
447.811,2582.8
453.458,2609.9
459.1,2596.05
464.739,2591.1
470.374,2619.45
476.005,2599.7
481.633,2619.9
487.257,2629.1
492.878,2626.7
498.494,2632.0
504.107,2625.55
509.717,2640.7
515.323,2672.45
520.925,2658.05
526.524,2658.95
532.119,2639.1
537.71,2689.25
543.298,2668.45
548.882,2692.7
554.462,2692.45
560.039,2692.6
565.613,2700.3
571.182,2702.9
576.748,2715.4
582.311,2693.3
587.87,2698.35
593.425,2692.35
598.977,2696.9
604.525,2703.55
610.069,2707.3
615.61,2754.15
621.148,2829.0
626.682,3191.6
632.212,3537.0
637.739,3138.65
643.262,2796.0
648.781,2785.25
654.297,2776.45
659.81,2791.8
665.319,2801.95
670.824,2781.95
676.326,2839.0
681.824,2826.35
687.319,2834.95
692.81,2846.7
698.298,3027.6
703.782,3122.75
709.262,2998.95
714.739,2923.25
720.213,2852.3
725.683,2861.6
731.15,2881.1
736.613,2885.2
742.072,2886.25
747.528,2858.2
752.981,2890.65
758.43,2927.95
763.875,2925.05
769.317,2922.65
774.756,2950.55
780.191,3006.75
785.623,3103.25
791.051,3280.0
796.475,3340.85
801.897,3252.6
807.314,3297.1
812.729,3376.2
818.139,3379.8
823.547,3384.65
828.951,3372.8
834.351,3458.5
839.748,3535.2
845.142,3831.55
850.532,4152.95
855.918,4347.7
861.302,4202.8
866.681,3768.5
872.058,3590.9
877.431,3576.25
882.8,3605.75
888.166,3553.7
893.529,3469.35
898.888,3414.75
904.244,3341.6
909.596,3240.1
914.945,3161.6
920.291,3161.0
925.633,3165.45
930.972,3193.75
936.308,3175.45
941.64,3201.1
946.968,3162.9
952.294,3146.8
957.615,3196.2
962.934,3236.95
968.249,3244.1
973.561,3262.0
978.869,3294.8
984.174,3285.05
989.476,3302.2
994.774,3351.0
1000.07,3396.2
1005.36,3413.1
1010.65,3413.75
1015.93,3454.55
1021.22,3434.15
1026.49,3518.4
1031.77,3505.0
1037.04,3496.6
1042.31,3469.05
1047.57,3425.9
1052.83,3426.05
1058.09,3424.7
1063.35,3414.1
1068.6,3447.3
1073.85,3461.15
1079.09,3530.2
1084.33,3592.6
1089.57,3732.8
1094.81,3933.55
1100.04,4035.75
1105.27,4139.6
1110.49,4250.35
1115.71,4336.2
1120.93,4361.65
1126.15,4170.6
1131.36,3927.05
1136.57,3782.65
1141.77,3659.7
1146.98,3602.75
1152.18,3548.65
1157.37,3563.65
1162.56,3584.45
1167.75,3766.25
1172.94,3974.95
1178.12,4026.65
1183.3,3877.75
1188.48,3742.0
1193.65,3638.6
1198.82,3625.9
1203.99,3591.6
1209.15,3586.55
1214.31,3590.3
1219.46,3642.05
1224.62,3646.5
1229.77,3632.95
1234.92,3744.45
1240.06,3797.0
1245.2,3830.55
1250.34,3884.9
1255.47,4034.3
1260.6,4216.0
1265.73,4513.5
1270.85,4725.85
1275.97,4948.1
1281.09,5396.9
1286.21,5562.05
1291.32,5524.85
1296.43,5282.55
1301.53,4846.4
1306.63,4701.6
1311.73,4444.05
1316.83,4179.15
1321.92,4073.35
1327.01,3982.3
1332.1,3921.65
1337.18,3813.05
1342.26,3882.35
1347.34,3877.5
1352.41,3839.55
1357.48,3858.3
1362.55,3899.1
1367.61,3974.9
1372.67,3981.55
1377.73,3964.1
1382.78,3940.55
1387.84,3883.7
1392.88,3922.45
1397.93,3994.0
1402.97,4066.35
1408.01,4182.15
1413.05,4177.6
1418.08,4141.75
1423.11,3993.25
1428.14,4026.1
1433.16,4114.55
1438.18,4182.85
1443.2,4262.9
1448.21,4240.4
1453.22,4219.0
1458.23,4274.65
1463.23,4130.05
1468.23,4096.35
1473.23,4083.6
1478.23,4036.9
1483.22,3976.4
1488.21,4000.4
1493.2,4029.85
1498.18,4013.0
1503.16,4022.2
1508.14,4003.8
1513.11,4057.05
1518.08,4009.7
1523.05,4063.2
1528.01,4111.6
1532.97,4035.9
1537.93,4111.8
1542.89,4081.9
1547.84,4108.65
1552.79,4157.6
1557.73,4199.15
1562.68,4164.7
1567.62,4226.4
1572.56,4254.5
1577.49,4284.45
1582.42,4355.95
1587.35,4385.65
1592.27,4477.1
1597.19,4895.8
1602.11,5765.45
1607.03,7755.25
1611.94,10575.0
1616.85,10476.7
1621.76,7150.55
1626.66,5048.65
1631.56,4609.9
1636.46,4323.45
1641.36,4373.35
1646.25,4384.9
1651.14,4341.65
1656.02,4292.3
1660.9,4331.8
1665.78,4340.75
1670.66,4339.8
1675.54,4377.1
1680.41,4407.35
1685.27,4411.35
1690.14,4509.85
1695.0,4549.95
1699.86,4607.05
1704.71,4813.65
1709.57,5409.6
1714.42,6440.8
1719.26,7583.95
1724.11,8029.75
1728.95,8163.35
1733.79,7633.3
1738.62,6815.95
1743.46,5828.1
1748.28,5180.95
1753.11,4816.65
1757.93,4613.2
1762.75,4598.05
1767.57,4542.95
1772.39,4528.85
1777.2,4518.85
1782.01,4509.35
1786.81,4524.0
1791.62,4540.9
1796.41,4461.2
1801.21,4545.75
1806.01,4481.4
1810.8,4530.35
1815.59,4511.1
1820.37,4519.6
1825.15,4497.4
1829.93,4431.15
1834.71,4534.5
1839.48,4522.5
1844.25,4465.55
1849.02,4482.2
1853.79,4432.1
1858.55,4539.2
1863.31,4526.1
1868.06,4533.2
1872.82,4526.1
1877.57,4574.75
1882.31,4501.05
1887.06,4600.6
1891.8,4567.7
1896.54,4552.15
1901.28,4608.25
1906.01,4567.75
1910.74,4611.2
1915.47,4599.85
1920.19,4574.3
1924.91,4535.25
1929.63,4597.9
1934.35,4590.3
1939.06,4583.85
1943.77,4571.85
1948.48,4669.3
1953.19,4601.2
1957.89,4600.3
1962.59,4614.15
1967.28,4665.1
1971.98,4505.5
1976.67,4693.6
1981.35,4647.2
1986.04,4631.95
1990.72,4674.25
1995.4,4664.7
2000.08,4711.3
2004.75,4695.45
2009.42,4629.4
2014.09,4670.05
2018.75,4674.5
2023.42,4756.4
2028.08,4719.5
2032.73,4751.25
2037.39,4707.55
2042.04,4692.4
2046.69,4685.75
2051.33,4772.15
2055.97,4674.95
2060.61,4688.0
2065.25,4705.7
2069.88,4770.15
2074.52,4719.2
2079.15,4738.55
2083.77,4725.05
2088.39,4741.15
2093.01,4674.95
2097.63,4745.05
2102.25,4783.35
2106.86,4722.3
2111.47,4698.4
2116.08,4792.35
2120.68,4822.5
2125.28,4817.3
2129.88,4840.4
2134.47,4718.55
2139.07,4763.7
2143.66,4811.55
2148.24,4743.5
2152.83,4790.95
2157.41,4827.7
2161.99,4711.9
2166.57,4731.8
2171.14,4757.0
2175.71,4761.65
2180.28,4796.35
2184.84,4786.0
2189.41,4861.25
2193.97,4769.55
2198.52,4722.95
2203.08,4898.5
2207.63,4844.25
2212.18,4782.1
2216.73,4787.3
2221.27,4778.85
2225.81,4829.25
2230.35,4831.65
2234.89,4784.5
2239.42,4843.4
2243.95,4855.75
2248.48,4913.35
2253.0,4799.9
2257.52,4795.25
2262.04,4789.35
2266.56,4815.85
2271.07,4768.4
2275.58,4802.0
2280.09,4761.7
2284.6,4811.65
2289.1,4802.15
2293.6,4917.5
2298.1,4757.0
2302.6,4826.85
2307.09,4796.0
2311.58,4774.2
2316.07,4824.7
2320.55,4925.9
2325.03,4851.1
2329.51,4834.25
2333.99,4847.15
2338.46,4819.0
2342.93,4776.95
2347.4,4791.45
2351.87,4887.15
2356.33,4765.5
2360.79,4791.25
2365.25,4846.3
2369.71,4882.3
2374.16,4833.45
2378.61,4836.45
2383.06,4806.35
2387.5,4884.95
2391.94,4820.75
2396.38,4692.25
2400.82,4884.55
2405.26,4873.25
2409.69,4882.9
2414.12,4845.25
2418.54,4843.45
2422.97,4884.7
2427.39,4817.2
2431.81,4825.3
2436.22,4799.45
2440.64,4873.25
2445.05,4893.4
2449.46,4806.85
2453.86,4791.85
2458.27,4850.8
2462.67,4881.85
2467.06,4879.0
2471.46,4855.7
2475.85,4776.6
2480.24,4819.85
2484.63,4899.5
2489.02,4798.2
2493.4,4828.4
2497.78,4893.5
2502.16,4869.7
2506.53,4817.45
2510.9,4842.55
2515.27,4937.35
2519.64,4883.5
2524.0,4973.9
2528.37,4811.45
2532.73,4910.7
2537.08,4820.55
2541.44,4857.25
2545.79,4950.8
2550.14,4881.1
2554.48,4841.6
2558.83,4836.6
2563.17,4913.9
2567.51,4880.9
2571.85,4929.1
2576.18,4894.35
2580.51,4869.4
2584.84,4910.2
2589.17,4885.3
2593.49,4904.65
2597.81,4995.05
2602.13,4896.45
2606.45,4971.85
2610.76,4986.8
2615.07,4992.95
2619.38,4934.25
2623.69,4908.95
2627.99,4985.7
2632.29,5020.15
2636.59,4911.05
2640.89,4958.1
2645.18,4862.0
2649.47,4960.6
2653.76,4991.4
2658.05,4898.5
2662.33,4892.1
2666.61,4909.3
2670.89,4909.75
2675.17,4938.9
2679.44,4912.85
2683.71,5012.1
2687.98,4912.35
2692.25,4945.55
2696.51,4966.5
2700.77,4940.6
2705.03,4924.25
2709.29,4938.65
2713.54,4952.55
2717.79,4946.55
2722.04,4936.65
2726.29,4974.9
2730.53,4929.0
2734.77,4945.6
2739.01,4971.55
2743.25,4994.85
2747.48,5022.15
2751.71,5057.3
2755.94,4986.5
2760.17,4993.65
2764.39,5044.7
2768.61,5009.8
2772.83,5034.95
2777.05,5114.65
2781.27,5061.45
2785.48,4992.15
2789.69,5124.8
2793.89,5100.95
2798.1,5132.9
2802.3,5074.15
2806.5,5063.75
2810.7,5074.85
2814.89,5027.6
2819.09,5122.7
2823.28,5120.55
2827.46,5077.7
2831.65,5045.15
2835.83,5047.6
2840.01,5089.7
2844.19,5158.3
2848.37,5121.7
2852.54,5086.35
2856.71,5127.3
2860.88,5175.8
2865.05,5173.2
2869.21,5205.35
2873.37,5166.5
2877.53,5248.35
2881.69,5332.5
2885.84,5432.8
2889.99,5370.0
2894.14,5438.3
2898.29,5431.1
2902.43,5399.85
2906.58,5487.75
2910.72,5470.75
2914.85,5381.6
2918.99,5419.0
2923.12,5446.1
2927.25,5292.5
2931.38,5268.5
2935.5,5503.65
2939.63,5569.9
2943.75,5831.6
2947.87,5959.75
2951.98,6170.8
2956.1,6475.95
2960.21,6495.25
2964.32,6712.45
2968.42,6481.1
2972.53,6481.75
2976.63,6230.15
2980.73,6106.5
2984.83,5980.4
2988.92,5982.7
2993.01,6041.6
2997.1,5901.45
3001.19,6020.3
3005.28,5952.25
3009.36,5857.4
3013.44,5885.2
3017.52,5827.7
3021.6,5650.4
3025.67,5832.55
3029.74,5677.0
3033.81,5677.5
3037.88,5704.2
3041.94,5595.45
3046.01,5645.45
3050.07,5708.3
3054.12,5733.05
3058.18,5873.2
3062.23,5925.95
3066.28,6133.05
3070.33,6542.4
3074.38,6546.65
3078.42,6941.55
3082.46,7106.15
3086.5,6900.15
3090.54,6648.65
3094.57,6234.4
3098.6,6103.0
3102.63,5964.65
3106.66,5817.7
3110.69,5858.95
3114.71,5785.8
3118.73,5747.75
3122.75,5851.9
3126.77,5751.8
3130.78,5740.15
3134.79,5751.7
3138.8,5671.2
3142.81,5813.45
3146.81,5702.4
3150.82,5709.65
3154.82,5701.1
3158.81,5819.3
3162.81,5646.0
3166.8,5769.9
3170.79,5755.35
3174.78,5737.85
3178.77,5755.55
3182.75,5658.3
3186.74,5773.75
3190.72,5692.7
3194.69,5752.45
3198.67,5807.75
3202.64,5829.8
3206.61,5774.5
3210.58,5713.25
3214.55,5738.05
3218.51,5868.6
3222.47,5800.9
3226.43,5932.4
3230.39,5898.95
3234.35,5768.75
3238.3,5761.7
3242.25,5785.5
3246.2,5837.7
3250.15,5752.95
3254.09,5844.6
3258.03,5776.0
3261.97,5802.25
3265.91,5923.9
3269.84,5868.8
3273.78,5788.85
3277.71,5982.9
3281.64,5810.45
3285.56,5835.9
3289.49,5806.5
3293.41,5908.7
3297.33,5842.55
3301.25,5816.05
3305.16,5843.65
3309.07,5888.85
3312.99,5792.65
3316.89,5777.35
3320.8,5837.95
3324.7,5818.25
3328.61,5809.7
3332.51,5715.55
3336.4,5881.95
3340.3,5741.3
3344.19,5855.65
3348.08,5771.8
3351.97,5828.65
3355.86,5821.9
3359.74,5850.85
3363.63,5798.3
3367.51,5848.65
3371.39,5640.5
3375.26,5709.5
3379.13,5913.3
3383.01,5820.4
3386.88,5729.8
3390.74,5791.5
3394.61,5783.1
3398.47,5744.6
3402.33,5814.55
3406.19,5874.3
3410.05,5725.75
3413.9,5732.55
3417.75,5752.3
3421.6,5741.1
3425.45,5690.85
3429.3,5690.75
3433.14,5662.8
3436.98,5785.05
3440.82,5755.7
3444.66,5740.8
3448.49,5789.15
3452.32,5770.55
3456.15,5703.2
3459.98,5679.9
3463.81,5783.55
3467.63,5691.75
3471.46,5781.8
3475.28,5729.3
3479.09,5676.25
3482.91,5712.1
3486.72,5684.45
3490.53,5725.5
3494.34,5606.7
3498.15,5489.3
3501.96,5592.15
3505.76,5600.15
3509.56,5519.2
3513.36,5583.65
3517.15,5465.7
3520.95,5502.45
3524.74,5569.5
3528.53,5484.2
3532.32,5570.25
3536.11,5511.35
3539.89,5422.05
3543.67,5609.95
3547.45,5542.4
3551.23,5585.05
3555.0,5423.65
3558.78,5404.0
3562.55,5525.7
3566.32,5629.75
3570.09,5421.9
3573.85,5398.55
3577.61,5434.0
3581.37,5471.75
3585.13,5416.1
3588.89,5354.05
3592.64,5410.25
3596.4,5524.65
3600.15,5270.9
3603.9,5351.85
3607.64,5236.5
3611.39,5343.7
3615.13,5311.85
3618.87,5246.2
3622.61,5244.45
3626.34,5186.55
3630.08,5165.35
3633.81,5244.75
3637.54,5148.65
3641.27,5032.6
3644.99,5168.95
3648.72,5102.9
3652.44,5180.35
3656.16,5210.45
3659.87,5310.15
3663.59,5205.1
3665.45,5196.2