File: spectra/VLFR_08-PLA_bio_Raman_c8e467a2.csv
nm,Intensity
528.626,1865.05
528.795,1865.65
528.963,1865.3
529.132,1865.15
529.3,1865.85
529.469,1864.15
529.637,1865.65
529.806,1863.65
529.974,1865.5
530.143,1865.6
530.311,1866.45
530.48,1866.15
530.648,1865.4
530.816,1866.25
530.985,1865.6
531.153,1866.45
531.322,1868.9
531.49,1872.15
531.658,1890.2
531.827,2188.45
531.995,4565.85
532.164,4579.0
532.332,2411.05
532.5,1874.3
532.669,1868.5
532.837,1867.65
533.006,1866.45
533.174,1867.7
533.342,1870.2
533.511,1893.5
533.679,2071.35
533.847,2524.95
534.016,2877.4
534.184,3054.55
534.352,3037.05
534.521,2991.35
534.689,3036.95
534.857,3029.5
535.025,3021.15
535.194,3032.7
535.362,3037.15
535.53,3061.1
535.699,3041.75
535.867,2978.1
536.035,2985.5
536.203,3002.65
536.372,3016.15
536.54,2978.3
536.708,2980.1
536.876,2971.85
537.044,2995.8
537.213,2987.7
537.381,3010.75
537.549,3028.5
537.717,3030.7
537.885,3040.75
538.054,3018.85
538.222,3034.55
538.39,3021.05
538.558,3029.15
538.726,3037.8
538.894,3064.1
539.063,3054.95
539.231,3067.15
539.399,3073.65
539.567,3108.4
539.735,3099.7
539.903,3103.4
540.071,3117.95
540.239,3106.7
540.408,3152.3
540.576,3165.3
540.744,3188.45
540.912,3192.75
541.08,3191.75
541.248,3189.9
541.416,3211.15
541.584,3209.6
541.752,3186.5
541.92,3224.95
542.088,3223.35
542.256,3238.75
542.424,3216.95
542.592,3274.75
542.76,3283.25
542.928,3284.0
543.096,3320.6
543.264,3312.65
543.432,3352.65
543.6,3406.9
543.768,3386.9
543.936,3384.65
544.104,3418.8
544.272,3388.0
544.44,3398.65
544.608,3340.65
544.776,3376.15
544.944,3395.3
545.112,3361.25
545.28,3380.35
545.448,3403.5
545.616,3384.4
545.784,3435.85
545.951,3432.55
546.119,3407.25
546.287,3459.95
546.455,3450.75
546.623,3427.6
546.791,3479.65
546.959,3466.8
547.127,3505.6
547.294,3498.95
547.462,3523.2
547.63,3477.9
547.798,3483.25
547.966,3497.0
548.134,3541.75
548.301,3529.55
548.469,3559.65
548.637,3548.95
548.805,3568.45
548.972,3556.05
549.14,3547.3
549.308,3563.2
549.476,3571.8
549.644,3552.05
549.811,3617.55
549.979,3552.2
550.147,3580.95
550.315,3563.75
550.482,3588.55
550.65,3585.1
550.818,3629.8
550.985,3627.5
551.153,3627.45
551.321,3624.65
551.488,3640.5
551.656,3651.15
551.824,3653.2
551.991,3661.25
552.159,3657.85
552.327,3657.8
552.494,3658.0
552.662,3678.9
552.83,3637.6
552.997,3664.45
553.165,3680.2
553.333,3638.4
553.5,3658.15
553.668,3672.6
553.835,3701.8
554.003,3685.5
554.171,3678.3
554.338,3695.15
554.506,3726.15
554.673,3673.35
554.841,3668.45
555.008,3712.05
555.176,3688.55
555.343,3674.9
555.511,3667.05
555.679,3674.7
555.846,3694.9
556.014,3677.75
556.181,3660.6
556.349,3688.6
556.516,3673.0
556.684,3690.4
556.851,3691.65
557.018,3682.3
557.186,3717.15
557.353,3699.65
557.521,3702.6
557.688,3769.05
557.856,3901.7
558.023,4007.55
558.191,4016.3
558.358,3870.65
558.525,3769.75
558.693,3735.55
558.86,3707.0
559.028,3723.85
559.195,3708.95
559.362,3707.85
559.53,3709.15
559.697,3718.35
559.864,3693.85
560.032,3702.85
560.199,3667.95
560.366,3717.05
560.534,3677.4
560.701,3660.1
560.868,3705.05
561.036,3652.7
561.203,3660.55
561.37,3704.0
561.538,3659.75
561.705,3693.55
561.872,3678.8
562.039,3696.75
562.207,3686.6
562.374,3691.95
562.541,3649.4
562.708,3659.85
562.876,3692.05
563.043,3710.15
563.21,3694.2
563.377,3768.0
563.545,3740.75
563.712,3713.7
563.879,3663.9
564.046,3674.05
564.213,3683.1
564.38,3650.65
564.548,3652.75
564.715,3676.95
564.882,3691.5
565.049,3704.85
565.216,3697.5
565.383,3671.25
565.551,3654.5
565.718,3680.6
565.885,3700.1
566.052,3729.55
566.219,3743.35
566.386,3717.15
566.553,3647.05
566.72,3606.5
566.887,3616.95
567.054,3563.35
567.221,3584.4
567.388,3563.8
567.555,3586.8
567.722,3593.85
567.889,3605.2
568.057,3601.4
568.224,3581.45
568.391,3578.45
568.558,3575.05
568.725,3585.1
568.892,3612.05
569.058,3564.8
569.225,3572.05
569.392,3588.05
569.559,3590.55
569.726,3575.85
569.893,3596.95
570.06,3582.2
570.227,3577.4
570.394,3579.2
570.561,3569.55
570.728,3579.2
570.895,3569.2
571.062,3561.95
571.229,3589.95
571.395,3662.35
571.562,3633.0
571.729,3645.3
571.896,3640.1
572.063,3609.55
572.23,3600.5
572.397,3580.1
572.563,3578.6
572.73,3562.65
572.897,3572.85
573.064,3579.35
573.231,3534.45
573.397,3532.05
573.564,3545.15
573.731,3541.4
573.898,3546.6
574.064,3520.05
574.231,3520.6
574.398,3531.4
574.565,3541.3
574.731,3545.95
574.898,3501.25
575.065,3482.45
575.232,3464.05
575.398,3470.6
575.565,3498.95
575.732,3494.7
575.898,3528.7
576.065,3522.0
576.232,3556.55
576.398,3594.55
576.565,3649.9
576.732,3692.6
576.898,3661.2
577.065,3630.6
577.232,3561.85
577.398,3504.95
577.565,3462.65
577.731,3444.4
577.898,3395.45
578.065,3422.8
578.231,3392.0
578.398,3394.4
578.564,3379.95
578.731,3393.0
578.897,3385.55
579.064,3412.0
579.23,3371.5
579.397,3414.45
579.563,3396.65
579.73,3412.15
579.896,3384.9
580.063,3394.2
580.229,3394.0
580.396,3396.2
580.562,3389.0
580.729,3391.35
580.895,3391.95
581.062,3369.9
581.228,3405.1
581.395,3400.45
581.561,3392.0
581.728,3374.1
581.894,3415.45
582.06,3423.3
582.227,3381.85
582.393,3375.8
582.56,3347.0
582.726,3349.1
582.892,3340.9
583.059,3373.1
583.225,3385.05
583.391,3376.0
583.558,3381.8
583.724,3390.8
583.89,3360.65
584.057,3359.4
584.223,3358.1
584.389,3346.5
584.556,3313.15
584.722,3321.7
584.888,3319.7
585.054,3277.5
585.221,3289.85
585.387,3315.0
585.553,3281.35
585.719,3266.65
585.886,3291.5
586.052,3291.15
586.218,3263.7
586.384,3277.45
586.55,3286.55
586.717,3332.1
586.883,3336.25
587.049,3357.7
587.215,3389.85
587.381,3436.4
587.548,3411.55
587.714,3386.15
587.88,3364.25
588.046,3317.15
588.212,3275.5
588.378,3283.4
588.544,3250.0
588.71,3256.6
588.876,3234.05
589.043,3212.85
589.209,3213.9
589.375,3226.9
589.541,3217.1
589.707,3208.9
589.873,3214.75
590.039,3218.85
590.205,3196.95
590.371,3208.3
590.537,3214.55
590.703,3204.75
590.869,3215.2
591.035,3199.05
591.201,3204.85
591.367,3202.25
591.533,3208.7
591.699,3206.0
591.865,3217.1
592.031,3206.55
592.197,3231.4
592.363,3179.7
592.529,3201.8
592.694,3180.75
592.86,3195.45
593.026,3205.4
593.192,3212.75
593.358,3166.75
593.524,3178.7
593.69,3206.3
593.856,3168.6
594.021,3174.55
594.187,3171.7
594.353,3159.55
594.519,3146.6
594.685,3161.1
594.851,3148.3
595.016,3164.15
595.182,3162.7
595.348,3177.3
595.514,3160.35
595.68,3178.25
595.845,3166.4
596.011,3136.3
596.177,3168.65
596.342,3146.5
596.508,3176.1
596.674,3144.05
596.84,3167.9
597.005,3161.9
597.171,3152.6
597.337,3183.15
597.502,3156.9
597.668,3123.95
597.834,3160.7
597.999,3144.7
598.165,3138.75
598.331,3129.4
598.496,3154.75
598.662,3137.15
598.828,3179.85
598.993,3142.8
599.159,3138.2
599.324,3152.25
599.49,3124.0
599.656,3145.3
599.821,3119.1
599.987,3150.45
600.152,3153.9
600.318,3157.25
600.483,3133.85
600.649,3126.25
600.814,3131.65
600.98,3134.65
601.145,3152.65
601.311,3123.9
601.476,3128.45
601.642,3148.0
601.807,3113.5
601.973,3128.0
602.138,3137.75
602.304,3115.2
602.469,3140.85
602.635,3099.4
602.8,3117.35
602.965,3136.4
603.131,3122.35
603.296,3125.8
603.462,3077.1
603.627,3101.1
603.792,3122.85
603.958,3116.3
604.123,3095.95
604.288,3120.55
604.454,3107.05
604.619,3082.3
604.784,3117.35
604.95,3089.25
605.115,3091.45
605.28,3110.6
605.446,3129.7
605.611,3078.1
605.776,3078.6
605.941,3102.9
606.107,3059.2
606.272,3095.85
606.437,3090.45
606.602,3087.15
606.767,3074.7
606.933,3097.3
607.098,3063.25
607.263,3085.5
607.428,3097.9
607.593,3079.1
607.759,3054.0
607.924,3097.15
608.089,3090.9
608.254,3071.7
608.419,3078.8
608.584,3041.1
608.749,3040.25
608.915,3065.5
609.08,3078.6
609.245,3073.0
609.41,3089.55
609.575,3069.55
609.74,3041.55
609.905,3056.45
610.07,3063.6
610.235,3059.7
610.4,3056.25
610.565,3042.4
610.73,3065.6
610.895,3059.85
611.06,3041.95
611.225,3037.1
611.39,3043.45
611.555,3035.4
611.72,3072.1
611.885,3041.2
612.05,3020.2
612.215,3045.6
612.38,3045.5
612.545,3044.5
612.71,3023.55
612.875,3040.55
613.04,3023.65
613.204,3036.5
613.369,3007.85
613.534,3024.95
613.699,3007.55
613.864,3040.1
614.029,3015.9
614.194,3034.7
614.358,3012.7
614.523,3004.6
614.688,2993.05
614.853,3033.7
615.018,3023.35
615.182,3013.25
615.347,3006.15
615.512,3002.4
615.677,3021.4
615.841,3003.4
616.006,3014.95
616.171,3021.0
616.336,3030.8
616.5,2988.65
616.665,2992.6
616.83,2976.5
616.994,2953.8
617.159,2979.95
617.324,2970.25
617.489,3009.25
617.653,3013.1
617.818,2994.85
617.982,2970.15
618.147,2974.1
618.312,2967.95
618.476,2980.25
618.641,2979.1
618.805,2955.9
618.97,2975.2
619.135,2964.85
619.299,2978.5
619.464,2962.5
619.628,2987.5
619.793,2987.2
619.957,2970.55
620.122,2965.65
620.286,2970.0
620.451,2953.0
620.615,2954.05
620.78,2953.2
620.944,2954.3
621.109,2931.95
621.273,2964.8
621.438,2940.85
621.602,2943.05
621.767,2946.85
621.931,2945.3
622.095,2950.95
622.26,2965.65
622.424,2937.35
622.589,2944.2
622.753,2931.8
622.917,2974.55
623.082,2978.55
623.246,2960.35
623.41,2978.25
623.575,2920.45
623.739,2941.45
623.903,2947.05
624.068,2932.8
624.232,2933.75
624.396,2911.5
624.561,2925.05
624.725,2902.45
624.889,2914.55
625.053,2898.7
625.218,2911.6
625.382,2905.25
625.546,2897.3
625.71,2897.95
625.875,2910.85
626.039,2886.6
626.203,2916.75
626.367,2883.7
626.531,2869.75
626.695,2911.5
626.86,2911.45
627.024,2943.0
627.188,2952.35
627.352,2989.75
627.516,2973.35
627.68,2995.75
627.844,3009.55
628.008,3037.95
628.172,3112.25
628.337,3127.35
628.501,3173.2
628.665,3188.2
628.829,3139.75
628.993,3135.0
629.157,3115.85
629.321,3126.25
629.485,3148.55
629.649,3145.4
629.813,3135.15
629.977,3126.6
630.141,3184.0
630.305,3237.0
630.469,3256.95
630.633,3421.35
630.797,3652.7
630.96,3874.7
631.124,3998.45
631.288,3938.9
631.452,3724.85
631.616,3479.75
631.78,3336.9
631.944,3247.75
632.108,3185.65
632.272,3132.45
632.435,3110.05
632.599,3108.4
632.763,3125.55
632.927,3206.35
633.091,3254.55
633.254,3293.8
633.418,3314.1
633.582,3247.85
633.746,3178.05
633.91,3112.5
634.073,3049.15
634.237,2988.3
634.401,2890.8
634.564,2876.15
634.728,2832.5
634.892,2848.75
635.056,2825.95
635.219,2789.2
635.383,2814.35
635.547,2811.15
635.71,2763.5
635.874,2776.5
636.038,2788.15
636.201,2787.5
636.365,2769.6
636.528,2763.2
636.692,2762.3
636.856,2755.6
637.019,2770.7
637.183,2737.5
637.346,2756.95
637.51,2756.45
637.673,2753.45
637.837,2743.9
638.0,2737.7
638.164,2727.35
638.327,2738.75
638.491,2744.15
638.654,2729.75
638.818,2707.7
638.981,2721.55
639.145,2730.9
639.308,2707.9
639.472,2707.4
639.635,2717.7
639.799,2693.05
639.962,2696.9
640.125,2704.4
640.289,2722.55
640.452,2698.45
640.616,2695.75
640.779,2701.0
640.942,2673.45
641.106,2681.35
641.269,2701.15
641.432,2695.65
641.596,2709.55
641.759,2698.8
641.922,2676.8
642.085,2659.3
642.249,2688.45
642.412,2675.45
642.575,2685.55
642.738,2660.7
642.902,2674.25
643.065,2663.8
643.228,2664.0
643.391,2674.05
643.555,2668.3
643.718,2643.75
643.881,2683.8
644.044,2664.65
644.207,2664.6
644.37,2681.1
644.534,2648.05
644.697,2654.75
644.86,2649.85
645.023,2643.4
645.186,2642.6
645.349,2653.0
645.512,2657.25
645.675,2653.75
645.838,2635.45
646.001,2620.9
646.164,2637.6
646.327,2633.8
646.49,2603.65
646.653,2620.25
646.816,2624.8
646.979,2603.35
647.142,2605.4
647.305,2614.15
647.468,2595.4
647.631,2599.25
647.794,2587.15
647.957,2592.6
648.12,2599.0
648.283,2587.75
648.446,2563.95
648.609,2570.05
648.772,2599.05
648.935,2599.15
649.098,2554.3
649.26,2557.5
649.423,2557.8
649.586,2576.6
649.749,2550.95
649.912,2549.6
650.075,2568.85
650.237,2550.1
650.4,2555.4
650.563,2549.8
650.726,2561.05
650.888,2543.9
651.051,2534.0
651.214,2539.7
651.377,2531.2
651.539,2524.4
651.702,2532.1
651.865,2511.1
652.027,2521.2
652.19,2547.8
652.353,2509.35
652.515,2537.95
652.678,2493.6
652.841,2506.25
653.003,2500.0
653.166,2504.75
653.329,2496.4
653.491,2485.65
653.654,2477.1
653.816,2489.2
653.979,2480.35
654.142,2479.85
654.304,2491.85
654.467,2490.45
654.629,2460.15
654.792,2462.85
654.954,2475.65
655.117,2462.55
655.279,2470.3
655.442,2455.2
655.604,2479.45
655.767,2469.7
655.929,2442.95
656.091,2465.65
656.254,2463.05
656.416,2441.2
656.579,2466.75
656.741,2448.35
656.904,2432.1
657.066,2429.55
657.228,2443.35
657.391,2437.4
657.553,2424.75
657.715,2433.45
657.878,2442.6
658.04,2421.65
658.202,2428.45
658.365,2413.1
658.527,2406.0
658.689,2419.5
658.851,2414.75
659.014,2402.55
659.176,2402.9
659.338,2395.55
659.5,2387.05
659.663,2391.65
659.825,2398.8
659.987,2388.05
660.149,2383.8
660.311,2384.75
660.474,2372.05
660.636,2374.4
660.798,2370.25
660.96,2371.4
661.041,2371.65