File: spectra/VLFR_02-HDPE_nobio_Raman_e84c615b.csv
cm-1,Intensity
-123.878,1853.0
-117.855,1852.2
-111.836,1852.05
-105.821,1852.8
-99.8104,1853.85
-93.8036,1852.1
-87.8007,1851.4
-81.8019,1853.05
-75.807,1852.9
-69.8161,1852.85
-63.8293,1851.9
-57.8464,1853.85
-51.8675,1853.85
-45.8926,1852.0
-39.9216,1852.55
-33.9547,1854.35
-27.9917,1856.7
-22.0326,1859.3
-16.0776,1883.55
-10.1265,2291.4
-4.17932,3483.75
1.76388,3365.55
7.70313,1950.75
13.6384,1856.65
19.5698,1854.25
25.4972,1855.35
31.4207,1853.05
37.3403,1852.7
43.256,1855.2
49.1677,1868.0
55.0755,1948.2
60.9794,2085.0
66.8794,2157.65
72.7754,2190.2
78.6676,2178.4
84.5559,2167.15
90.4402,2171.95
96.3207,2184.7
102.197,2175.05
108.07,2147.45
113.939,2152.15
119.804,2113.2
125.665,2091.85
131.522,2087.6
137.375,2076.3
143.225,2082.85
149.07,2070.95
154.912,2061.45
160.75,2058.55
166.584,2050.05
172.414,2055.9
178.241,2061.45
184.063,2074.8
189.882,2076.65
195.697,2075.65
201.508,2069.65
207.315,2067.15
213.119,2069.45
218.918,2067.55
224.714,2055.15
230.506,2056.0
236.294,2057.0
242.078,2052.4
247.859,2046.25
253.636,2058.1
259.409,2049.05
265.178,2043.45
270.943,2038.05
276.705,2042.2
282.463,2047.75
288.217,2035.2
293.967,2039.0
299.713,2040.5
305.456,2034.85
311.195,2039.0
316.93,2041.25
322.662,2041.35
328.389,2044.05
334.113,2053.15
339.834,2045.9
345.55,2046.55
351.263,2048.1
356.972,2042.5
362.677,2054.4
368.379,2055.15
374.077,2045.45
379.771,2050.4
385.461,2035.5
391.148,2047.9
396.831,2059.1
402.51,2053.6
408.186,2054.55
413.858,2049.95
419.526,2053.7
425.19,2047.9
430.851,2040.8
436.508,2048.0
442.162,2051.5
447.811,2055.9
453.458,2048.95
459.1,2047.85
464.739,2051.5
470.374,2056.6
476.005,2054.2
481.633,2047.9
487.257,2045.85
492.878,2047.4
498.494,2056.1
504.107,2055.5
509.717,2050.8
515.323,2054.35
520.925,2050.65
526.524,2049.65
532.119,2050.85
537.71,2055.9
543.298,2053.8
548.882,2046.45
554.462,2062.4
560.039,2056.6
565.613,2059.9
571.182,2050.25
576.748,2063.95
582.311,2056.85
587.87,2058.25
593.425,2058.3
598.977,2051.6
604.525,2052.45
610.069,2061.0
615.61,2055.05
621.148,2057.65
626.682,2063.8
632.212,2064.15
637.739,2058.5
643.262,2056.35
648.781,2065.1
654.297,2067.85
659.81,2058.85
665.319,2070.25
670.824,2067.05
676.326,2076.05
681.824,2071.15
687.319,2078.3
692.81,2071.9
698.298,2065.65
703.782,2062.4
709.262,2068.6
714.739,2081.7
720.213,2082.95
725.683,2084.1
731.15,2085.55
736.613,2083.4
742.072,2074.3
747.528,2095.55
752.981,2085.95
758.43,2084.15
763.875,2085.75
769.317,2099.2
774.756,2083.0
780.191,2086.8
785.623,2087.35
791.051,2095.5
796.475,2098.85
801.897,2095.65
807.314,2097.35
812.729,2104.3
818.139,2101.85
823.547,2102.55
828.951,2100.7
834.351,2104.25
839.748,2109.9
845.142,2111.1
850.532,2115.0
855.918,2121.8
861.302,2121.05
866.681,2137.45
872.058,2128.6
877.431,2137.95
882.8,2140.5
888.166,2140.45
893.529,2123.1
898.888,2120.05
904.244,2130.15
909.596,2124.1
914.945,2116.95
920.291,2131.1
925.633,2123.45
930.972,2116.0
936.308,2114.2
941.64,2116.8
946.968,2123.1
952.294,2121.45
957.615,2123.3
962.934,2128.5
968.249,2130.0
973.561,2124.85
978.869,2117.55
984.174,2115.9
989.476,2133.0
994.774,2129.25
1000.07,2145.3
1005.36,2143.6
1010.65,2139.25
1015.93,2146.7
1021.22,2157.3
1026.49,2153.25
1031.77,2168.65
1037.04,2165.7
1042.31,2179.2
1047.57,2223.9
1052.83,2350.6
1058.09,2649.15
1063.35,2784.15
1068.6,2503.15
1073.85,2307.95
1079.09,2274.6
1084.33,2289.55
1089.57,2267.0
1094.81,2239.5
1100.04,2220.7
1105.27,2219.25
1110.49,2232.0
1115.71,2303.55
1120.93,2510.55
1126.15,2893.9
1131.36,2958.2
1136.57,2511.35
1141.77,2279.15
1146.98,2215.65
1152.18,2212.75
1157.37,2207.4
1162.56,2225.25
1167.75,2257.85
1172.94,2259.25
1178.12,2202.35
1183.3,2187.45
1188.48,2183.05
1193.65,2178.4
1198.82,2173.75
1203.99,2188.25
1209.15,2177.4
1214.31,2182.5
1219.46,2205.55
1224.62,2193.65
1229.77,2192.95
1234.92,2209.95
1240.06,2205.15
1245.2,2211.4
1250.34,2206.75
1255.47,2209.65
1260.6,2245.6
1265.73,2257.6
1270.85,2264.75
1275.97,2269.45
1281.09,2310.95
1286.21,2510.85
1291.32,3004.8
1296.43,3383.4
1301.53,2854.8
1306.63,2469.05
1311.73,2384.3
1316.83,2331.45
1321.92,2313.0
1327.01,2280.3
1332.1,2270.85
1337.18,2263.6
1342.26,2264.55
1347.34,2263.7
1352.41,2274.15
1357.48,2281.4
1362.55,2310.65
1367.61,2349.25
1372.67,2321.75
1377.73,2301.35
1382.78,2287.15
1387.84,2284.15
1392.88,2295.1
1397.93,2290.6
1402.97,2349.65
1408.01,2452.5
1413.05,2722.7
1418.08,2913.95
1423.11,2758.6
1428.14,2713.05
1433.16,2841.2
1438.18,3030.1
1443.2,3017.1
1448.21,2883.3
1453.22,2818.85
1458.23,2811.15
1463.23,2812.9
1468.23,2710.2
1473.23,2620.6
1478.23,2530.05
1483.22,2509.2
1488.21,2481.65
1493.2,2469.5
1498.18,2487.95
1503.16,2479.75
1508.14,2496.8
1513.11,2500.8
1518.08,2490.75
1523.05,2524.3
1528.01,2522.85
1532.97,2563.05
1537.93,2558.35
1542.89,2556.6
1547.84,2571.65
1552.79,2601.25
1557.73,2631.6
1562.68,2640.1
1567.62,2614.6
1572.56,2631.3
1577.49,2679.1
1582.42,2674.8
1587.35,2687.6
1592.27,2715.8
1597.19,2712.9
1602.11,2699.8
1607.03,2739.65
1611.94,2771.35
1616.85,2778.1
1621.76,2783.3
1626.66,2809.5
1631.56,2802.5
1636.46,2863.65
1641.36,2838.5
1646.25,2845.35
1651.14,2861.25
1656.02,2894.0
1660.9,2883.55
1665.78,2941.95
1670.66,2964.15
1675.54,2960.7
1680.41,2952.15
1685.27,3003.75
1690.14,3007.95
1695.0,2992.0
1699.86,3041.7
1704.71,3038.5
1709.57,3077.5
1714.42,3103.75
1719.26,3061.15
1724.11,3124.7
1728.95,3131.8
1733.79,3149.15
1738.62,3204.05
1743.46,3207.4
1748.28,3242.9
1753.11,3302.85
1757.93,3281.0
1762.75,3321.85
1767.57,3348.65
1772.39,3310.4
1777.2,3408.4
1782.01,3451.2
1786.81,3452.6
1791.62,3492.95
1796.41,3485.05
1801.21,3533.35
1806.01,3529.9
1810.8,3532.35
1815.59,3582.3
1820.37,3655.55
1825.15,3621.05
1829.93,3627.85
1834.71,3676.5
1839.48,3730.7
1844.25,3714.3
1849.02,3781.85
1853.79,3800.5
1858.55,3801.15
1863.31,3866.1
1868.06,3904.05
1872.82,3875.35
1877.57,3944.4
1882.31,3970.1
1887.06,3948.65
1891.8,4046.1
1896.54,4018.55
1901.28,4126.95
1906.01,4022.7
1910.74,4085.85
1915.47,4115.2
1920.19,4118.3
1924.91,4087.75
1929.63,4141.4
1934.35,4193.45
1939.06,4162.7
1943.77,4161.45
1948.48,4156.0
1953.19,4190.6
1957.89,4217.4
1962.59,4203.05
1967.28,4188.3
1971.98,4145.05
1976.67,4244.35
1981.35,4244.65
1986.04,4227.1
1990.72,4260.45
1995.4,4195.6
2000.08,4187.5
2004.75,4205.95
2009.42,4301.2
2014.09,4264.6
2018.75,4249.45
2023.42,4310.75
2028.08,4272.25
2032.73,4256.8
2037.39,4178.8
2042.04,4258.7
2046.69,4275.45
2051.33,4297.4
2055.97,4251.95
2060.61,4297.5
2065.25,4280.1
2069.88,4264.5
2074.52,4316.05
2079.15,4240.75
2083.77,4327.4
2088.39,4304.0
2093.01,4261.2
2097.63,4334.6
2102.25,4333.95
2106.86,4283.35
2111.47,4346.35
2116.08,4319.6
2120.68,4357.2
2125.28,4357.45
2129.88,4357.0
2134.47,4343.4
2139.07,4352.35
2143.66,4332.6
2148.24,4321.65
2152.83,4342.35
2157.41,4357.85
2161.99,4344.95
2166.57,4320.9
2171.14,4403.15
2175.71,4370.35
2180.28,4359.55
2184.84,4390.75
2189.41,4365.35
2193.97,4365.05
2198.52,4314.7
2203.08,4287.2
2207.63,4355.15
2212.18,4316.7
2216.73,4279.0
2221.27,4369.65
2225.81,4213.55
2230.35,4276.8
2234.89,4293.65
2239.42,4342.25
2243.95,4199.8
2248.48,4254.55
2253.0,4204.55
2257.52,4240.65
2262.04,4200.55
2266.56,4168.45
2271.07,4168.95
2275.58,4161.6
2280.09,4147.85
2284.6,4165.3
2289.1,4130.65
2293.6,4151.2
2298.1,4078.05
2302.6,4049.35
2307.09,4031.45
2311.58,4051.65
2316.07,4111.05
2320.55,4018.3
2325.03,4002.65
2329.51,4014.05
2333.99,3989.9
2338.46,3987.2
2342.93,3938.8
2347.4,3980.7
2351.87,3973.7
2356.33,3926.95
2360.79,3948.5
2365.25,3902.3
2369.71,3912.15
2374.16,3915.6
2378.61,3828.05
2383.06,3839.25
2387.5,3923.35
2391.94,3845.75
2396.38,3850.3
2400.82,3849.55
2405.26,3819.2
2409.69,3747.6
2414.12,3808.15
2418.54,3843.7
2422.97,3851.25
2427.39,3822.3
2431.81,3846.6
2436.22,3768.6
2440.64,3684.75
2445.05,3729.65
2449.46,3683.9
2453.86,3706.85
2458.27,3752.35
2462.67,3679.3
2467.06,3664.9
2471.46,3687.9
2475.85,3595.6
2480.24,3677.45
2484.63,3685.55
2489.02,3638.9
2493.4,3585.9
2497.78,3625.2
2502.16,3616.15
2506.53,3581.25
2510.9,3572.65
2515.27,3607.1
2519.64,3553.15
2524.0,3608.4
2528.37,3549.9
2532.73,3568.9
2537.08,3531.9
2541.44,3559.85
2545.79,3490.95
2550.14,3480.75
2554.48,3532.9
2558.83,3533.0
2563.17,3492.15
2567.51,3511.3
2571.85,3501.15
2576.18,3454.95
2580.51,3481.5
2584.84,3461.8
2589.17,3470.0
2593.49,3465.6
2597.81,3483.75
2602.13,3461.25
2606.45,3462.1
2610.76,3469.95
2615.07,3470.4
2619.38,3415.6
2623.69,3441.75
2627.99,3433.5
2632.29,3412.3
2636.59,3434.25
2640.89,3429.65
2645.18,3403.15
2649.47,3462.3
2653.76,3429.0
2658.05,3473.15
2662.33,3404.1
2666.61,3390.15
2670.89,3405.15
2675.17,3413.05
2679.44,3347.6
2683.71,3395.95
2687.98,3367.2
2692.25,3475.3
2696.51,3382.4
2700.77,3459.2
2705.03,3498.1
2709.29,3552.3
2713.54,3584.7
2717.79,3578.85
2722.04,3559.9
2726.29,3588.75
2730.53,3489.7
2734.77,3430.2
2739.01,3360.95
2743.25,3379.6
2747.48,3305.9
2751.71,3289.25
2755.94,3276.85
2760.17,3261.0
2764.39,3251.8
2768.61,3272.55
2772.83,3276.8
2777.05,3247.25
2781.27,3239.65
2785.48,3251.85
2789.69,3266.25
2793.89,3246.4
2798.1,3213.7
2802.3,3286.1
2806.5,3328.0
2810.7,3259.3
2814.89,3351.0
2819.09,3414.45
2823.28,3487.2
2827.46,3710.65
2831.65,4115.1
2835.83,4910.25
2840.01,6095.35
2844.19,7538.5
2848.37,8364.75
2852.54,8016.3
2856.71,7185.95
2860.88,6502.05
2865.05,6270.8
2869.21,6140.5
2873.37,6608.8
2877.53,7655.45
2881.69,8458.9
2885.84,7792.7
2889.99,6560.1
2894.14,5998.25
2898.29,5933.6
2902.43,5576.6
2906.58,5525.9
2910.72,5243.95
2914.85,4945.6
2918.99,4815.85
2923.12,4776.45
2927.25,4742.05
2931.38,4641.6
2935.5,4399.15
2939.63,4201.5
2943.75,3937.95
2947.87,3673.9
2951.98,3470.15
2956.1,3422.25
2960.21,3347.45
2964.32,3273.0
2968.42,3237.3
2972.53,3273.85
2976.63,3266.45
2980.73,3256.45
2984.83,3206.7
2988.92,3221.85
2993.01,3158.95
2997.1,3237.9
3001.19,3250.6
3005.28,3220.75
3009.36,3189.3
3013.44,3197.55
3017.52,3203.55
3021.6,3229.8
3025.67,3219.4
3029.74,3145.5
3033.81,3129.75
3037.88,3124.55
3041.94,3234.3
3046.01,3160.85
3050.07,3180.0
3054.12,3163.3
3058.18,3166.0
3062.23,3186.4
3066.28,3135.25
3070.33,3160.75
3074.38,3173.7
3078.42,3237.35
3082.46,3182.75
3086.5,3153.0
3090.54,3185.8
3094.57,3184.35
3098.6,3162.6
3102.63,3161.35
3106.66,3139.9
3110.69,3176.25
3114.71,3134.7
3118.73,3205.0
3122.75,3184.85
3126.77,3175.1
3130.78,3174.2
3134.79,3156.8
3138.8,3199.25
3142.81,3147.35
3146.81,3210.9
3150.82,3210.15
3154.82,3164.35
3158.81,3182.3
3162.81,3184.65
3166.8,3214.85
3170.79,3187.1
3174.78,3174.45
3178.77,3185.8
3182.75,3212.45
3186.74,3176.25
3190.72,3192.15
3194.69,3202.45
3198.67,3176.45
3202.64,3206.45
3206.61,3194.1
3210.58,3220.2
3214.55,3191.3
3218.51,3190.75
3222.47,3249.25
3226.43,3227.5
3230.39,3200.25
3234.35,3188.45
3238.3,3224.2
3242.25,3249.35
3246.2,3219.8
3250.15,3220.6
3254.09,3199.05
3258.03,3209.9
3261.97,3223.85
3265.91,3255.7
3269.84,3201.45
3273.78,3225.25
3277.71,3219.15
3281.64,3249.75
3285.56,3241.65
3289.49,3250.95
3293.41,3252.0
3297.33,3189.15
3301.25,3189.1
3305.16,3211.65
3309.07,3227.0
3312.99,3211.75
3316.89,3192.95
3320.8,3191.35
3324.7,3182.9
3328.61,3219.2
3332.51,3173.75
3336.4,3153.35
3340.3,3177.9
3344.19,3164.25
3348.08,3189.5
3351.97,3174.95
3355.86,3185.45
3359.74,3174.95
3363.63,3209.2
3367.51,3084.25
3371.39,3082.7
3375.26,3138.15
3379.13,3173.3
3383.01,3124.8
3386.88,3081.35
3390.74,3051.3
3394.61,3037.95
3398.47,3071.1
3402.33,3105.6
3406.19,3053.0
3410.05,3060.35
3413.9,3055.65
3417.75,3071.8
3421.6,3076.9
3425.45,3043.45
3429.3,3039.2
3433.14,3034.55
3436.98,3061.8
3440.82,3023.6
3444.66,2993.1
3448.49,2956.15
3452.32,3032.6
3456.15,2984.1
3459.98,2984.8
3463.81,3009.9
3467.63,2947.4
3471.46,2976.0
3475.28,2972.25
3479.09,2979.05
3482.91,2933.35
3486.72,2879.9
3490.53,2924.15
3494.34,2924.25
3498.15,2912.7
3501.96,2943.8
3505.76,2910.35
3509.56,2910.65
3513.36,2875.5
3517.15,2863.8
3520.95,2832.7
3524.74,2887.2
3528.53,2856.65
3532.32,2853.35
3536.11,2878.8
3539.89,2856.35
3543.67,2872.75
3547.45,2821.55
3551.23,2803.75
3555.0,2789.65
3558.78,2796.3
3562.55,2844.3
3566.32,2808.6
3570.09,2790.2
3573.85,2769.5
3577.61,2772.6
3581.37,2806.85
3585.13,2734.75
3588.89,2771.45
3592.64,2761.85
3596.4,2729.05
3600.15,2729.65
3603.9,2745.6
3607.64,2689.55
3611.39,2705.65
3615.13,2720.2
3618.87,2683.85
3622.61,2668.3
3626.34,2646.1
3630.08,2692.2
3633.81,2682.5
3637.54,2653.55
3641.27,2630.15
3644.99,2659.25
3648.72,2662.85
3652.44,2644.85
3656.16,2642.9
3659.87,2621.65
3663.59,2599.1
3665.45,2621.05