File: spectra/VLFR_02-HDPE_bio_Raman_685428b8.csv
nm,Intensity
526.494,833.9
526.631,834.7
526.768,833.9
526.904,834.7
527.041,835.2
527.178,834.1
527.315,833.2
527.451,834.4
527.588,835.1
527.725,833.4
527.862,835.7
527.998,834.4
528.135,835.0
528.272,833.7
528.409,833.9
528.545,834.8
528.682,834.1
528.819,834.0
528.955,835.5
529.092,834.9
529.229,834.6
529.365,834.6
529.502,834.7
529.639,833.0
529.775,835.0
529.912,834.7
530.048,835.1
530.185,835.0
530.321,835.1
530.458,834.5
530.595,835.3
530.731,835.0
530.868,834.2
531.004,834.6
531.141,833.9
531.277,835.1
531.414,834.6
531.55,834.9
531.687,834.6
531.823,834.0
531.96,846.4
532.096,934.3
532.233,959.6
532.369,861.7
532.506,836.4
532.642,833.8
532.778,835.5
532.915,834.7
533.051,833.3
533.188,834.1
533.324,835.3
533.46,833.6
533.597,834.1
533.733,837.4
533.869,843.8
534.006,861.5
534.142,868.2
534.278,869.2
534.415,868.1
534.551,866.1
534.687,868.4
534.824,863.4
534.96,867.1
535.096,863.7
535.232,863.8
535.369,860.8
535.505,858.1
535.641,857.8
535.777,856.3
535.914,855.5
536.05,852.8
536.186,853.7
536.322,852.8
536.458,851.0
536.595,852.3
536.731,852.5
536.867,853.9
537.003,849.9
537.139,851.5
537.275,851.1
537.411,851.5
537.548,852.7
537.684,850.8
537.82,851.3
537.956,850.5
538.092,850.6
538.228,852.5
538.364,851.6
538.5,850.2
538.636,848.8
538.772,850.2
538.908,850.9
539.044,848.1
539.18,851.5
539.316,848.2
539.452,850.0
539.588,848.6
539.724,849.3
539.86,849.2
539.996,848.1
540.132,849.2
540.268,850.0
540.404,847.8
540.54,846.8
540.676,848.2
540.812,849.3
540.948,848.8
541.084,847.9
541.22,851.4
541.355,848.2
541.491,847.8
541.627,849.4
541.763,847.0
541.899,848.7
542.035,849.2
542.171,849.1
542.306,848.8
542.442,850.0
542.578,850.9
542.714,848.6
542.85,847.3
542.985,846.3
543.121,847.0
543.257,848.8
543.393,845.5
543.529,846.8
543.664,847.6
543.8,848.3
543.936,849.6
544.072,846.6
544.207,845.7
544.343,848.3
544.479,849.1
544.614,845.8
544.75,849.0
544.886,845.7
545.021,845.7
545.157,848.8
545.293,845.9
545.428,848.3
545.564,846.0
545.7,847.3
545.835,846.9
545.971,847.5
546.106,847.1
546.242,847.7
546.378,846.8
546.513,847.0
546.649,847.1
546.784,847.0
546.92,848.9
547.055,847.8
547.191,846.5
547.327,849.6
547.462,848.8
547.598,848.2
547.733,846.9
547.869,847.1
548.004,847.6
548.14,847.4
548.275,848.5
548.411,849.3
548.546,848.1
548.682,847.5
548.817,847.7
548.952,847.9
549.088,849.7
549.223,848.5
549.359,848.2
549.494,849.0
549.63,846.3
549.765,849.2
549.9,848.2
550.036,847.6
550.171,847.5
550.306,849.2
550.442,847.0
550.577,847.4
550.713,847.1
550.848,848.9
550.983,848.9
551.119,848.2
551.254,849.6
551.389,848.4
551.524,849.3
551.66,848.2
551.795,849.8
551.93,847.8
552.066,849.0
552.201,848.5
552.336,847.9
552.471,849.9
552.607,848.1
552.742,847.9
552.877,850.5
553.012,847.4
553.148,848.7
553.283,849.2
553.418,851.0
553.553,849.0
553.688,849.8
553.823,850.8
553.959,849.7
554.094,850.8
554.229,848.5
554.364,847.8
554.499,849.1
554.634,850.2
554.77,851.1
554.905,849.1
555.04,850.9
555.175,849.0
555.31,850.3
555.445,850.0
555.58,849.3
555.715,850.3
555.85,851.4
555.985,849.2
556.12,850.7
556.255,849.1
556.39,852.2
556.525,850.1
556.661,852.2
556.796,851.7
556.931,850.9
557.066,851.0
557.201,852.2
557.336,853.4
557.471,852.8
557.605,851.1
557.74,851.5
557.875,852.4
558.01,854.3
558.145,853.5
558.28,852.6
558.415,852.9
558.55,853.0
558.685,854.7
558.82,853.0
558.955,850.7
559.09,851.6
559.225,852.2
559.36,851.1
559.494,850.9
559.629,851.4
559.764,853.1
559.899,852.1
560.034,850.6
560.169,850.6
560.303,850.9
560.438,851.7
560.573,852.7
560.708,852.7
560.843,853.0
560.978,851.9
561.112,851.8
561.247,851.0
561.382,852.2
561.517,853.4
561.651,853.8
561.786,853.5
561.921,851.4
562.056,852.3
562.19,853.0
562.325,853.1
562.46,855.1
562.595,853.4
562.729,853.0
562.864,853.8
562.999,854.0
563.133,854.7
563.268,853.0
563.403,856.1
563.537,857.7
563.672,859.9
563.807,866.5
563.941,891.0
564.076,917.0
564.211,890.5
564.345,867.9
564.48,864.5
564.615,863.2
564.749,862.2
564.884,861.4
565.018,858.9
565.153,858.1
565.287,861.1
565.422,859.8
565.557,859.9
565.691,858.8
565.826,859.6
565.96,868.5
566.095,887.3
566.229,904.3
566.364,884.5
566.498,864.8
566.633,859.1
566.767,858.3
566.902,856.4
567.036,856.6
567.171,857.1
567.305,858.4
567.44,860.9
567.574,864.8
567.709,860.4
567.843,855.6
567.978,855.2
568.112,855.5
568.247,854.6
568.381,855.5
568.515,856.9
568.65,855.7
568.784,858.2
568.919,856.5
569.053,856.6
569.187,857.1
569.322,856.7
569.456,856.2
569.591,858.2
569.725,856.6
569.859,856.6
569.994,857.2
570.128,855.9
570.262,856.8
570.397,859.0
570.531,861.5
570.665,861.5
570.8,861.0
570.934,861.9
571.068,862.2
571.202,863.9
571.337,876.5
571.471,925.3
571.605,967.7
571.74,911.9
571.874,878.2
572.008,870.4
572.142,866.4
572.277,866.5
572.411,861.7
572.545,861.5
572.679,861.4
572.813,860.4
572.948,860.3
573.082,858.2
573.216,860.8
573.35,858.8
573.484,860.5
573.619,860.5
573.753,862.5
573.887,864.6
574.021,867.7
574.155,864.4
574.289,864.5
574.424,862.2
574.558,861.1
574.692,859.8
574.826,863.1
574.96,860.0
575.094,865.0
575.228,862.3
575.362,867.8
575.496,880.1
575.631,886.9
575.765,881.4
575.899,878.3
576.033,888.5
576.167,909.3
576.301,933.6
576.435,933.9
576.569,911.1
576.703,904.2
576.837,904.6
576.971,905.2
577.105,904.5
577.239,904.5
577.373,890.7
577.507,887.4
577.641,881.5
577.775,873.8
577.909,875.8
578.043,876.2
578.177,871.2
578.311,872.0
578.445,872.7
578.579,873.5
578.713,873.2
578.847,870.8
578.981,871.4
579.114,873.8
579.248,874.0
579.382,876.3
579.516,875.2
579.65,874.7
579.784,877.2
579.918,877.5
580.052,873.1
580.186,876.5
580.32,876.3
580.453,876.0
580.587,877.5
580.721,878.4
580.855,874.2
580.989,877.3
581.123,875.4
581.256,876.1
581.39,877.3
581.524,879.8
581.658,883.4
581.792,879.1
581.925,881.8
582.059,881.9
582.193,879.1
582.327,880.2
582.461,881.8
582.594,882.9
582.728,881.8
582.862,882.1
582.996,883.2
583.129,881.2
583.263,882.0
583.397,883.4
583.531,883.7
583.664,886.5
583.798,884.3
583.932,886.1
584.065,884.0
584.199,888.7
584.333,884.9
584.467,887.1
584.6,887.9
584.734,887.1
584.868,884.7
585.001,886.7
585.135,891.4
585.269,888.1
585.402,886.6
585.536,889.2
585.669,890.9
585.803,890.3
585.937,891.3
586.07,891.6
586.204,892.8
586.338,891.6
586.471,893.3
586.605,892.3
586.738,894.8
586.872,894.9
587.005,893.5
587.139,898.1
587.273,894.2
587.406,896.0
587.54,895.5
587.673,894.4
587.807,896.9
587.94,897.9
588.074,898.9
588.207,895.8
588.341,900.7
588.474,899.5
588.608,899.1
588.741,899.7
588.875,899.2
589.008,898.5
589.142,902.0
589.275,902.6
589.409,902.1
589.542,902.0
589.676,902.6
589.809,904.4
589.943,901.5
590.076,906.1
590.21,903.0
590.343,905.4
590.476,907.9
590.61,905.1
590.743,905.1
590.877,906.5
591.01,904.2
591.144,904.9
591.277,908.5
591.41,904.8
591.544,906.0
591.677,909.6
591.81,908.9
591.944,905.8
592.077,907.6
592.211,908.2
592.344,908.6
592.477,908.0
592.611,907.4
592.744,911.5
592.877,907.4
593.011,904.0
593.144,911.0
593.277,911.3
593.411,910.1
593.544,909.9
593.677,908.1
593.81,908.6
593.944,908.4
594.077,911.1
594.21,907.2
594.344,911.2
594.477,910.1
594.61,910.7
594.743,910.0
594.877,913.6
595.01,912.8
595.143,908.6
595.276,911.0
595.41,915.6
595.543,911.7
595.676,915.1
595.809,914.6
595.942,911.8
596.076,915.8
596.209,913.1
596.342,913.7
596.475,911.4
596.608,917.3
596.742,912.7
596.875,914.8
597.008,917.8
597.141,912.6
597.274,918.5
597.407,914.0
597.541,918.2
597.674,917.4
597.807,920.5
597.94,915.1
598.073,921.8
598.206,916.8
598.339,920.4
598.472,919.9
598.606,920.0
598.739,922.7
598.872,923.1
599.005,924.2
599.138,923.9
599.271,923.5
599.404,923.5
599.537,924.4
599.67,923.3
599.803,920.9
599.936,924.3
600.069,927.6
600.202,923.4
600.335,922.4
600.468,922.6
600.601,922.6
600.734,923.9
600.868,922.2
601.001,925.3
601.134,921.9
601.267,924.7
601.4,924.2
601.533,926.0
601.665,929.3
601.798,927.9
601.931,926.7
602.064,926.4
602.197,926.2
602.33,925.2
602.463,929.3
602.596,928.4
602.729,924.7
602.862,926.4
602.995,927.7
603.128,926.7
603.261,923.0
603.394,926.4
603.527,926.7
603.66,929.7
603.793,924.5
603.926,921.5
604.058,927.0
604.191,925.9
604.324,928.4
604.457,925.0
604.59,922.2
604.723,921.3
604.856,926.8
604.989,925.8
605.121,922.9
605.254,922.8
605.387,922.0
605.52,922.0
605.653,922.3
605.786,922.3
605.918,920.7
606.051,920.2
606.184,919.0
606.317,918.2
606.45,922.2
606.583,918.2
606.715,917.6
606.848,918.0
606.981,918.1
607.114,916.8
607.246,918.1
607.379,917.0
607.512,921.0
607.645,915.3
607.778,917.4
607.91,918.3
608.043,920.0
608.176,917.4
608.309,923.3
608.441,916.3
608.574,915.3
608.707,919.0
608.839,918.7
608.972,915.4
609.105,916.8
609.238,918.2
609.37,919.4
609.503,912.8
609.636,913.1
609.768,915.6
609.901,910.3
610.034,915.6
610.166,913.2
610.299,911.5
610.432,913.7
610.564,915.9
610.697,914.4
610.83,915.3
610.962,911.9
611.095,918.9
611.228,911.0
611.36,914.7
611.493,911.8
611.626,914.5
611.758,914.4
611.891,914.8
612.023,913.9
612.156,911.5
612.289,914.2
612.421,912.5
612.554,911.9
612.686,913.5
612.819,913.5
612.952,915.5
613.084,914.8
613.217,913.1
613.349,914.6
613.482,916.3
613.614,908.2
613.747,912.7
613.88,910.0
614.012,910.1
614.145,914.2
614.277,911.9
614.41,917.4
614.542,908.7
614.675,910.4
614.807,908.4
614.94,911.3
615.072,909.1
615.205,910.4
615.337,909.9
615.47,910.0
615.602,911.0
615.735,909.5
615.867,908.7
616.0,909.0
616.132,907.2
616.265,905.1
616.397,910.0
616.53,909.6
616.662,910.6
616.795,910.4
616.927,912.1
617.059,912.3
617.192,908.6
617.324,911.8
617.457,912.7
617.589,911.7
617.722,912.6
617.854,914.3
617.986,909.0
618.119,911.4
618.251,908.2
618.384,909.1
618.516,908.3
618.648,909.7
618.781,909.2
618.913,908.7
619.046,903.3
619.178,912.5
619.31,910.2
619.443,907.7
619.575,911.6
619.707,909.3
619.84,910.7
619.972,910.3
620.105,907.4
620.237,907.5
620.369,909.0
620.502,910.1
620.634,909.5
620.766,911.5
620.899,910.9
621.031,913.6
621.163,913.3
621.295,909.7
621.428,915.0
621.56,917.9
621.692,917.3
621.825,920.7
621.957,927.6
622.089,929.2
622.222,933.2
622.354,937.9
622.486,935.6
622.618,925.4
622.751,924.6
622.883,918.6
623.015,916.9
623.147,909.7
623.28,912.0
623.412,911.3
623.544,906.7
623.676,908.1
623.809,904.5
623.941,908.0
624.073,907.3
624.205,906.7
624.338,906.2
624.47,904.4
624.602,903.1
624.734,906.4
624.866,904.1
624.999,903.6
625.131,907.9
625.263,907.2
625.395,906.2
625.527,908.5
625.66,909.5
625.792,912.9
625.924,911.3
626.056,914.6
626.188,918.2
626.32,925.3
626.453,935.6
626.585,958.2
626.717,1001.1
626.849,1061.8
626.981,1155.1
627.113,1242.9
627.245,1291.4
627.377,1261.9
627.51,1207.0
627.642,1169.0
627.774,1133.4
627.906,1112.8
628.038,1097.3
628.17,1109.0
628.302,1133.1
628.434,1224.3
628.566,1322.9
628.699,1273.5
628.831,1156.9
628.963,1107.0
629.095,1093.2
629.227,1085.7
629.359,1073.2
629.491,1063.7
629.623,1050.2
629.755,1026.1
629.887,1015.1
630.019,1009.1
630.151,1005.4
630.283,1000.0
630.415,1003.0
630.547,995.5
630.68,988.2
630.812,976.1
630.944,956.9
631.076,942.2
631.208,925.4
631.34,916.7
631.472,914.7
631.604,910.4
631.736,909.2
631.868,906.6
632.0,906.0
632.132,906.5
632.264,902.8
632.396,903.4
632.528,901.4
632.66,900.3
632.792,904.2
632.924,898.6
633.056,901.7
633.188,904.4
633.32,904.5
633.451,903.9
633.583,902.5
633.715,899.0
633.847,898.2
633.979,901.2
634.111,898.6
634.243,896.0
634.375,900.1
634.507,899.6
634.639,899.1
634.771,899.2
634.903,896.9
635.035,894.6
635.167,899.8
635.299,899.4
635.431,895.6
635.562,896.1
635.694,896.1
635.826,893.0
635.958,898.0
636.09,898.9
636.222,897.8
636.354,898.6
636.486,895.1
636.618,895.5
636.749,896.0
636.881,896.5
637.013,897.0
637.145,894.9
637.277,893.4
637.409,892.7
637.541,895.2
637.673,891.3
637.804,895.7
637.936,891.4
638.068,895.0
638.2,893.5
638.332,895.6
638.464,892.9
638.595,892.4
638.727,896.2
638.859,890.7
638.991,895.9
639.123,891.4
639.255,892.9
639.386,893.7
639.518,895.1
639.65,891.9
639.782,895.5
639.914,893.3
640.045,891.8
640.177,893.2
640.309,892.5
640.441,892.6
640.573,892.0
640.704,893.7
640.836,895.7
640.968,891.6
641.1,893.0
641.231,891.1
641.363,893.6
641.495,894.7
641.627,895.6
641.759,895.1
641.89,892.8
642.022,895.9
642.154,891.5
642.286,892.8
642.417,894.4
642.549,891.9
642.681,892.8
642.813,892.3
642.944,893.6
643.076,891.8
643.208,891.8
643.339,893.7
643.471,891.0
643.603,894.5
643.735,893.1
643.866,891.7
643.998,891.1
644.13,889.6
644.261,890.9
644.393,891.4
644.525,893.6
644.657,890.8
644.788,892.8
644.92,893.4
645.052,892.7
645.183,893.1
645.315,890.4
645.447,890.2
645.578,891.9
645.71,892.6
645.842,891.2
645.973,889.1
646.105,890.4
646.237,889.0
646.368,890.7
646.5,893.4
646.632,892.2
646.763,891.1
646.895,894.1
647.027,893.1
647.158,892.1
647.29,893.0
647.421,889.8
647.553,891.8
647.685,890.3
647.816,892.5
647.948,892.7
648.08,892.7
648.211,891.8
648.343,893.6
648.474,893.8
648.606,889.3
648.738,890.0
648.869,892.3
649.001,891.1
649.133,889.8
649.264,892.1
649.396,891.8
649.527,889.2
649.659,894.4
649.791,892.7
649.922,887.5
650.054,891.5
650.185,891.7
650.317,895.0
650.448,889.6
650.58,890.1
650.712,892.6
650.843,889.4
650.975,889.5
651.106,890.0
651.238,891.2
651.369,887.5
651.501,890.1
651.633,888.9
651.764,892.9
651.896,892.6
652.027,890.0
652.159,890.5
652.29,889.6
652.422,893.2
652.553,891.6
652.685,893.3
652.816,892.7
652.948,891.8
653.079,891.4
653.211,890.4
653.343,890.2
653.474,891.2
653.606,890.5
653.737,891.8
653.869,892.2
654.0,892.6
654.132,894.2
654.263,892.5
654.395,891.9
654.526,889.7
654.658,890.5
654.789,890.1
654.921,890.6
655.052,891.1
655.184,889.9
655.315,890.8
655.447,891.9
655.578,892.6
655.71,893.4
655.841,890.8
655.973,888.8
656.104,891.9
656.236,889.5
656.367,892.6
656.498,890.5
656.63,891.5
656.761,891.4
656.893,891.1
657.024,891.1
657.156,891.9
657.287,888.6
657.419,890.3
657.55,893.7
657.682,892.5
657.813,890.2
657.945,891.4
658.076,891.7
658.207,890.9
658.339,893.4
658.47,890.9
658.602,890.0
658.733,892.4
658.865,892.7
658.996,888.2
659.127,890.5
659.259,889.8
659.39,889.7
659.522,890.3
659.653,887.9
659.785,888.6
659.916,892.1
660.047,887.9
660.179,889.6
660.31,891.0
660.442,889.0
660.573,889.7
660.704,893.5
660.836,889.7
660.967,887.0
661.099,889.4
661.23,888.6
661.362,891.3
661.493,892.4
661.624,886.9
661.756,887.1
661.887,887.4
662.018,886.2
662.15,889.2
662.281,885.0
662.413,887.3
662.544,888.2
662.675,886.7
662.807,885.1
662.938,887.0
663.07,883.6