File: spectra/VLFR_02-HDPE_bio_Raman_15967531.csv
nm,Intensity
528.626,1870.7
528.795,1868.3
528.963,1870.1
529.132,1866.3
529.3,1870.0
529.469,1867.7
529.637,1868.8
529.806,1869.2
529.974,1870.4
530.143,1869.2
530.311,1869.1
530.48,1869.7
530.648,1868.4
530.816,1869.8
530.985,1870.5
531.153,1871.9
531.322,1874.3
531.49,1879.2
531.658,1901.6
531.827,2278.5
531.995,3837.2
532.164,4125.4
532.332,2176.1
532.5,1874.2
532.669,1870.7
532.837,1870.3
533.006,1869.5
533.174,1871.6
533.342,1869.9
533.511,1881.0
533.679,1957.9
533.847,2136.0
534.016,2245.3
534.184,2252.1
534.352,2274.0
534.521,2276.8
534.689,2297.4
534.857,2323.3
535.025,2312.8
535.194,2264.9
535.362,2218.1
535.53,2173.1
535.699,2117.4
535.867,2089.1
536.035,2063.5
536.203,2059.4
536.372,2057.6
536.54,2049.0
536.708,2055.9
536.876,2036.5
537.044,2039.5
537.213,2039.8
537.381,2045.5
537.549,2043.3
537.717,2050.4
537.885,2043.5
538.054,2041.1
538.222,2028.1
538.39,2018.7
538.558,2027.2
538.726,2023.6
538.894,2019.9
539.063,2016.4
539.231,2008.0
539.399,2002.6
539.567,1999.0
539.735,2007.6
539.903,2004.7
540.071,2007.7
540.239,1996.8
540.408,1992.2
540.576,2000.3
540.744,1994.7
540.912,1995.2
541.08,1998.2
541.248,2003.1
541.416,1997.9
541.584,1993.9
541.752,2000.8
541.92,2002.4
542.088,2001.5
542.256,2001.6
542.424,1997.6
542.592,2001.4
542.76,2003.7
542.928,1995.3
543.096,1995.8
543.264,2003.3
543.432,1992.9
543.6,2002.4
543.768,2003.6
543.936,2000.2
544.104,2008.4
544.272,1998.9
544.44,2001.3
544.608,1984.7
544.776,2005.2
544.944,1999.2
545.112,1997.8
545.28,1992.7
545.448,1994.8
545.616,1990.2
545.784,1999.2
545.951,2000.0
546.119,2001.3
546.287,1997.5
546.455,1994.2
546.623,1993.4
546.791,2002.5
546.959,2002.4
547.127,1994.3
547.294,1993.9
547.462,1998.0
547.63,1999.9
547.798,2002.1
547.966,1996.7
548.134,2006.4
548.301,2005.9
548.469,2004.0
548.637,1997.8
548.805,1996.3
548.972,2001.7
549.14,1996.3
549.308,1997.7
549.476,1997.7
549.644,1992.6
549.811,2004.3
549.979,2003.0
550.147,1998.5
550.315,2000.1
550.482,1997.7
550.65,1999.0
550.818,2008.1
550.985,2005.0
551.153,2001.1
551.321,2008.2
551.488,2008.0
551.656,2004.4
551.824,2008.9
551.991,2007.5
552.159,2012.1
552.327,2010.5
552.494,2001.7
552.662,2005.6
552.83,1997.1
552.997,2004.7
553.165,2023.5
553.333,2028.4
553.5,2027.2
553.668,2016.5
553.835,2022.3
554.003,2026.3
554.171,2021.7
554.338,2024.5
554.506,2029.1
554.673,2030.5
554.841,2028.9
555.008,2027.3
555.176,2033.7
555.343,2034.5
555.511,2034.5
555.679,2035.3
555.846,2041.4
556.014,2041.9
556.181,2050.1
556.349,2049.4
556.516,2042.0
556.684,2046.8
556.851,2050.8
557.018,2055.2
557.186,2062.1
557.353,2069.3
557.521,2061.6
557.688,2056.6
557.856,2085.1
558.023,2085.2
558.191,2080.3
558.358,2087.5
558.525,2095.6
558.693,2084.2
558.86,2069.2
559.028,2067.7
559.195,2076.4
559.362,2064.4
559.53,2069.0
559.697,2067.9
559.864,2077.1
560.032,2057.2
560.199,2065.5
560.366,2065.7
560.534,2073.3
560.701,2072.3
560.868,2074.4
561.036,2068.7
561.203,2066.8
561.37,2076.4
561.538,2057.9
561.705,2073.6
561.872,2072.9
562.039,2078.8
562.207,2092.6
562.374,2094.5
562.541,2097.9
562.708,2089.4
562.876,2109.0
563.043,2111.2
563.21,2126.1
563.377,2138.8
563.545,2170.3
563.712,2331.0
563.879,2702.6
564.046,2957.7
564.213,2563.5
564.38,2269.9
564.548,2250.9
564.715,2227.9
564.882,2215.0
565.049,2194.0
565.216,2169.0
565.383,2171.8
565.551,2169.1
565.718,2229.6
565.885,2388.0
566.052,2760.8
566.219,2886.3
566.386,2500.2
566.553,2208.3
566.72,2141.8
566.887,2150.5
567.054,2144.5
567.221,2191.9
567.388,2290.8
567.555,2276.3
567.722,2177.6
567.889,2124.8
568.057,2122.1
568.224,2109.0
568.391,2116.2
568.558,2106.0
568.725,2113.4
568.892,2112.6
569.058,2116.9
569.225,2122.0
569.392,2136.3
569.559,2124.0
569.726,2129.4
569.893,2128.6
570.06,2138.2
570.227,2147.0
570.394,2156.9
570.561,2188.9
570.728,2196.9
570.895,2212.8
571.062,2234.6
571.229,2450.9
571.395,3031.3
571.562,3563.5
571.729,2947.3
571.896,2436.8
572.063,2303.1
572.23,2243.2
572.397,2228.9
572.563,2185.1
572.73,2176.1
572.897,2175.7
573.064,2172.4
573.231,2159.2
573.397,2171.4
573.564,2196.0
573.731,2216.3
573.898,2254.0
574.064,2237.1
574.231,2203.2
574.398,2184.5
574.565,2178.7
574.731,2181.4
574.898,2201.5
575.065,2214.3
575.232,2314.1
575.398,2531.4
575.565,2719.1
575.732,2608.7
575.898,2611.8
576.065,2809.0
576.232,3109.7
576.398,3144.6
576.565,2929.8
576.732,2835.3
576.898,2841.1
577.065,2848.2
577.232,2726.9
577.398,2571.5
577.565,2468.1
577.731,2385.0
577.898,2355.7
578.065,2363.6
578.231,2348.1
578.398,2336.6
578.564,2342.6
578.731,2354.8
578.897,2372.0
579.064,2387.8
579.23,2383.5
579.397,2388.4
579.563,2419.5
579.73,2415.8
579.896,2441.2
580.063,2450.6
580.229,2469.1
580.396,2438.0
580.562,2473.2
580.729,2488.3
580.895,2484.4
581.062,2525.6
581.228,2491.6
581.395,2525.8
581.561,2540.3
581.728,2537.1
581.894,2535.3
582.06,2551.0
582.227,2575.7
582.393,2556.5
582.56,2546.7
582.726,2536.3
582.892,2563.0
583.059,2566.2
583.225,2598.7
583.391,2577.7
583.558,2572.2
583.724,2566.5
583.89,2558.2
584.057,2595.2
584.223,2583.2
584.389,2550.5
584.556,2545.6
584.722,2566.0
584.888,2538.4
585.054,2533.2
585.221,2535.1
585.387,2524.9
585.553,2511.8
585.719,2503.8
585.886,2494.8
586.052,2526.0
586.218,2470.2
586.384,2504.8
586.55,2485.4
586.717,2497.2
586.883,2466.0
587.049,2466.9
587.215,2467.5
587.381,2451.9
587.548,2456.3
587.714,2455.5
587.88,2404.6
588.046,2429.8
588.212,2429.5
588.378,2416.5
588.544,2402.8
588.71,2419.6
588.876,2372.1
589.043,2392.6
589.209,2402.9
589.375,2382.5
589.541,2352.8
589.707,2383.1
589.873,2365.9
590.039,2354.1
590.205,2362.1
590.371,2351.8
590.537,2336.8
590.703,2361.8
590.869,2363.4
591.035,2349.6
591.201,2331.8
591.367,2372.0
591.533,2329.0
591.699,2321.0
591.865,2321.0
592.031,2346.0
592.197,2347.8
592.363,2346.1
592.529,2346.6
592.694,2313.3
592.86,2311.2
593.026,2312.3
593.192,2328.5
593.358,2331.0
593.524,2298.1
593.69,2313.7
593.856,2299.9
594.021,2319.8
594.187,2311.3
594.353,2309.8
594.519,2286.1
594.685,2305.4
594.851,2295.7
595.016,2294.8
595.182,2303.1
595.348,2288.6
595.514,2299.2
595.68,2290.4
595.845,2303.6
596.011,2295.7
596.177,2317.7
596.342,2288.8
596.508,2292.1
596.674,2292.0
596.84,2308.3
597.005,2289.0
597.171,2289.5
597.337,2302.4
597.502,2300.1
597.668,2296.3
597.834,2288.4
597.999,2306.0
598.165,2296.2
598.331,2283.0
598.496,2307.7
598.662,2295.1
598.828,2303.1
598.993,2310.5
599.159,2311.5
599.324,2297.3
599.49,2311.9
599.656,2322.7
599.821,2322.7
599.987,2318.1
600.152,2307.3
600.318,2306.7
600.483,2308.9
600.649,2307.0
600.814,2307.6
600.98,2308.5
601.145,2345.6
601.311,2318.3
601.476,2332.1
601.642,2328.8
601.807,2356.9
601.973,2357.4
602.138,2361.5
602.304,2348.6
602.469,2322.6
602.635,2327.1
602.8,2323.0
602.965,2314.2
603.131,2313.1
603.296,2320.3
603.462,2332.2
603.627,2314.2
603.792,2330.1
603.958,2331.1
604.123,2323.1
604.288,2327.8
604.454,2312.2
604.619,2309.4
604.784,2337.3
604.95,2316.0
605.115,2324.6
605.28,2300.8
605.446,2313.5
605.611,2310.6
605.776,2318.9
605.941,2299.0
606.107,2305.0
606.272,2305.3
606.437,2290.8
606.602,2302.3
606.767,2300.5
606.933,2288.8
607.098,2287.9
607.263,2274.3
607.428,2298.4
607.593,2301.0
607.759,2282.5
607.924,2281.4
608.089,2269.2
608.254,2287.5
608.419,2271.8
608.584,2287.9
608.749,2286.1
608.915,2290.9
609.08,2274.8
609.245,2282.9
609.41,2274.3
609.575,2282.7
609.74,2276.5
609.905,2273.3
610.07,2279.7
610.235,2277.2
610.4,2278.1
610.565,2298.8
610.73,2283.8
610.895,2288.7
611.06,2298.4
611.225,2285.7
611.39,2298.6
611.555,2279.8
611.72,2256.9
611.885,2271.2
612.05,2272.4
612.215,2274.1
612.38,2261.2
612.545,2263.9
612.71,2248.7
612.875,2272.6
613.04,2259.2
613.204,2254.8
613.369,2259.6
613.534,2244.3
613.699,2253.9
613.864,2257.5
614.029,2262.5
614.194,2251.9
614.358,2264.9
614.523,2250.0
614.688,2250.0
614.853,2257.0
615.018,2251.8
615.182,2256.7
615.347,2248.5
615.512,2254.0
615.677,2260.8
615.841,2268.9
616.006,2245.3
616.171,2257.1
616.336,2242.0
616.5,2263.5
616.665,2297.7
616.83,2284.7
616.994,2319.2
617.159,2331.4
617.324,2327.0
617.489,2327.2
617.653,2341.0
617.818,2337.9
617.982,2313.8
618.147,2335.0
618.312,2323.5
618.476,2327.4
618.641,2315.7
618.805,2311.9
618.97,2326.3
619.135,2344.0
619.299,2369.1
619.464,2357.5
619.628,2384.6
619.793,2361.2
619.957,2360.5
620.122,2347.4
620.286,2355.1
620.451,2367.3
620.615,2369.1
620.78,2377.1
620.944,2404.3
621.109,2432.8
621.273,2451.6
621.438,2521.6
621.602,2548.7
621.767,2654.8
621.931,2718.6
622.095,2798.8
622.26,2811.8
622.424,2824.5
622.589,2698.3
622.753,2591.2
622.917,2477.1
623.082,2449.1
623.246,2403.5
623.41,2371.9
623.575,2367.3
623.739,2376.5
623.903,2342.9
624.068,2357.9
624.232,2344.7
624.396,2338.6
624.561,2356.1
624.725,2360.4
624.889,2371.3
625.053,2374.5
625.218,2392.2
625.382,2411.6
625.546,2417.0
625.71,2456.8
625.875,2520.7
626.039,2593.4
626.203,2721.9
626.367,3046.4
626.531,3513.5
626.695,4762.0
626.86,6544.8
627.024,8818.3
627.188,9640.0
627.352,9007.0
627.516,7939.4
627.68,6922.9
627.844,6736.4
628.008,6539.1
628.172,7267.3
628.337,8977.2
628.501,10305.0
628.665,8722.9
628.829,6525.9
628.993,5844.4
629.157,5641.1
629.321,5344.1
629.485,4957.5
629.649,4648.3
629.813,4396.1
629.977,4290.0
630.141,4186.8
630.305,4207.8
630.469,4024.0
630.633,3805.0
630.797,3516.1
630.96,3153.7
631.124,2893.2
631.288,2702.6
631.452,2551.2
631.616,2503.5
631.78,2452.6
631.944,2416.7
632.108,2421.4
632.272,2365.4
632.435,2360.0
632.599,2387.4
632.763,2383.8
632.927,2343.6
633.091,2338.8
633.254,2323.9
633.418,2343.2
633.582,2298.9
633.746,2305.6
633.91,2302.5
634.073,2307.7
634.237,2276.0
634.401,2272.5
634.564,2298.6
634.728,2254.4
634.892,2253.4
635.056,2262.5
635.219,2248.7
635.383,2263.9
635.547,2251.7
635.71,2244.4
635.874,2229.5
636.038,2225.6
636.201,2230.4
636.365,2226.4
636.528,2210.8
636.692,2224.2
636.856,2213.3
637.019,2199.2
637.183,2188.0
637.346,2197.8
637.51,2204.4
637.673,2166.7
637.837,2174.1
638.0,2162.6
638.164,2158.2
638.327,2179.2
638.491,2162.4
638.654,2157.1
638.818,2140.6
638.981,2155.1
639.145,2145.2
639.308,2141.0
639.472,2142.5
639.635,2130.7
639.799,2140.5
639.962,2119.2
640.125,2128.3
640.289,2136.2
640.452,2138.9
640.616,2126.4
640.779,2127.6
640.942,2117.4
641.106,2121.5
641.269,2120.6
641.432,2123.2
641.596,2101.7
641.759,2114.1
641.922,2110.9
642.085,2121.6
642.249,2112.5
642.412,2101.1
642.575,2108.2
642.738,2103.2
642.902,2106.2
643.065,2096.3
643.228,2091.7
643.391,2091.8
643.555,2107.1
643.718,2095.9
643.881,2084.1
644.044,2090.5
644.207,2100.0
644.37,2094.1
644.534,2084.0
644.697,2093.7
644.86,2088.0
645.023,2088.1
645.186,2093.0
645.349,2098.4
645.512,2084.8
645.675,2079.0
645.838,2079.2
646.001,2089.0
646.164,2074.8
646.327,2071.2
646.49,2074.7
646.653,2073.7
646.816,2076.7
646.979,2069.5
647.142,2062.0
647.305,2069.4
647.468,2078.7
647.631,2071.0
647.794,2073.1
647.957,2058.9
648.12,2065.0
648.283,2065.7
648.446,2066.5
648.609,2043.4
648.772,2055.3
648.935,2075.4
649.098,2055.0
649.26,2058.2
649.423,2044.3
649.586,2057.6
649.749,2052.6
649.912,2052.6
650.075,2055.7
650.237,2049.9
650.4,2055.2
650.563,2053.6
650.726,2060.8
650.888,2047.1
651.051,2044.2
651.214,2052.9
651.377,2050.2
651.539,2048.2
651.702,2039.9
651.865,2046.2
652.027,2043.0
652.19,2041.9
652.353,2050.4
652.515,2037.7
652.678,2034.2
652.841,2034.7
653.003,2044.0
653.166,2053.4
653.329,2041.8
653.491,2042.5
653.654,2037.0
653.816,2047.2
653.979,2039.3
654.142,2038.0
654.304,2035.8
654.467,2037.1
654.629,2019.8
654.792,2030.0
654.954,2029.8
655.117,2028.5
655.279,2030.0
655.442,2036.6
655.604,2030.8
655.767,2025.0
655.929,2030.3
656.091,2006.7
656.254,2020.3
656.416,2012.1
656.579,2014.1
656.741,2030.5
656.904,2021.1
657.066,2024.1
657.228,2019.8
657.391,2028.4
657.553,2022.0
657.715,2021.1
657.878,2023.4
658.04,2014.1
658.202,2018.5
658.365,2015.9
658.527,2015.8
658.689,2014.7
658.851,2017.7
659.014,2013.5
659.176,2004.5
659.338,2004.9
659.5,2011.1
659.663,2014.2
659.825,2012.4
659.987,2026.5
660.149,2025.6
660.311,2023.7
660.474,2024.3
660.636,2013.5
660.798,2005.5
660.96,2002.5
661.041,2013.4