File: spectra/VLFR_09-PET_bio_Raman_227feac7.csv
nm,Intensity
528.65,1845.35
528.819,1846.7
528.987,1846.0
529.155,1846.85
529.324,1848.3
529.492,1847.85
529.66,1848.15
529.829,1846.2
529.997,1846.35
530.165,1845.25
530.334,1846.75
530.502,1846.4
530.67,1847.8
530.839,1848.1
531.007,1848.25
531.175,1849.95
531.344,1851.1
531.512,1856.25
531.68,1888.4
531.848,2646.6
532.017,4601.7
532.185,3981.15
532.353,2075.5
532.521,1853.65
532.69,1852.8
532.858,1854.25
533.026,1857.05
533.194,1860.65
533.363,1879.0
533.531,2036.9
533.699,3084.8
533.867,5130.65
534.036,6362.85
534.204,6872.35
534.372,6666.25
534.54,6711.3
534.708,6776.95
534.877,6777.5
535.045,6606.9
535.213,6712.75
535.381,6734.35
535.549,6693.1
535.717,6667.55
535.886,6549.4
536.054,6442.35
536.222,6509.75
536.39,6689.35
536.558,6593.45
536.726,6499.0
536.894,6629.2
537.062,6611.35
537.231,6813.9
537.399,6757.9
537.567,6831.2
537.735,6970.25
537.903,6853.65
538.071,6891.6
538.239,6971.1
538.407,6962.3
538.575,7113.85
538.743,6890.9
538.911,7130.5
539.079,7315.05
539.247,7216.15
539.415,7256.1
539.583,7314.7
539.751,7482.8
539.919,7642.4
540.087,7624.05
540.255,7545.75
540.423,7619.85
540.591,7746.9
540.759,7511.05
540.927,7535.45
541.095,7731.1
541.263,7782.5
541.431,7573.5
541.599,7762.1
541.767,7895.65
541.935,7923.45
542.103,7924.3
542.271,8060.2
542.439,8028.9
542.607,8157.7
542.775,8163.1
542.943,8333.8
543.111,8229.1
543.279,8453.0
543.446,8361.7
543.614,8375.0
543.782,8444.1
543.95,8393.8
544.118,8628.15
544.286,8564.15
544.454,8596.85
544.622,8502.9
544.789,8730.3
544.957,8607.2
545.125,8720.55
545.293,8705.3
545.461,8703.05
545.629,8730.8
545.796,8921.15
545.964,8700.7
546.132,8902.05
546.3,8981.5
546.468,8991.6
546.635,8822.35
546.803,8952.95
546.971,8892.2
547.139,8991.65
547.306,9102.05
547.474,9103.25
547.642,9162.15
547.81,9234.45
547.977,9133.4
548.145,9200.45
548.313,9245.25
548.481,9329.55
548.648,9288.45
548.816,9568.5
548.984,9439.15
549.151,9452.85
549.319,9340.8
549.487,9350.55
549.655,9480.25
549.822,9410.65
549.99,9390.3
550.158,9737.45
550.325,9701.55
550.493,9871.5
550.66,9973.9
550.828,9836.6
550.996,9730.0
551.163,10012.2
551.331,9916.95
551.499,9940.95
551.666,10268.5
551.834,9914.6
552.001,9932.45
552.169,10274.3
552.337,10075.0
552.504,10206.2
552.672,10200.5
552.839,10224.0
553.007,10311.3
553.174,10253.8
553.342,10222.2
553.509,10365.0
553.677,10403.3
553.844,10304.0
554.012,10526.3
554.179,10469.9
554.347,10401.3
554.514,10624.7
554.682,10536.3
554.849,10476.3
555.017,10909.2
555.184,10673.8
555.352,10882.9
555.519,11287.2
555.687,11164.5
555.854,10987.0
556.022,11067.0
556.189,11154.9
556.357,11298.0
556.524,11125.0
556.691,11138.7
556.859,11090.7
557.026,11483.4
557.194,11681.8
557.361,11826.5
557.528,12173.1
557.696,11990.9
557.863,11762.7
558.031,11670.3
558.198,11501.8
558.365,11752.0
558.533,11861.0
558.7,11754.0
558.867,11650.0
559.035,11784.0
559.202,11785.7
559.369,11543.2
559.537,11773.5
559.704,11899.1
559.871,11851.0
560.038,11976.7
560.206,11856.0
560.373,11963.2
560.54,12233.3
560.708,12082.5
560.875,11921.7
561.042,12102.5
561.209,12316.1
561.377,12316.3
561.544,12334.5
561.711,12408.3
561.878,12763.8
562.045,12431.9
562.213,12619.2
562.38,12763.3
562.547,12669.6
562.714,12563.7
562.881,12566.7
563.049,12788.1
563.216,12690.4
563.383,12830.7
563.55,12583.3
563.717,12582.2
563.884,12693.4
564.052,12485.6
564.219,13160.7
564.386,13133.4
564.553,12992.8
564.72,13114.5
564.887,13247.5
565.054,13531.2
565.221,13754.6
565.388,13379.5
565.556,13736.8
565.723,13800.5
565.89,13731.8
566.057,13526.8
566.224,13468.5
566.391,13453.5
566.558,13521.0
566.725,13525.8
566.892,13318.0
567.059,13330.0
567.226,13366.8
567.393,13424.8
567.56,13799.6
567.727,13952.5
567.894,13782.7
568.061,13432.3
568.228,13760.5
568.395,13835.3
568.562,13756.9
568.729,13823.1
568.896,13722.0
569.063,14066.2
569.23,14073.9
569.396,13966.8
569.563,13884.1
569.73,13947.3
569.897,13938.4
570.064,14276.8
570.231,14033.2
570.398,14298.4
570.565,14249.7
570.732,14682.8
570.898,14549.0
571.065,14929.3
571.232,15400.3
571.399,15658.2
571.566,15304.3
571.733,14785.3
571.9,14937.7
572.066,14759.6
572.233,14950.3
572.4,14793.8
572.567,14797.7
572.734,14649.2
572.9,14427.4
573.067,14767.5
573.234,14800.2
573.401,14623.0
573.567,14585.1
573.734,14580.8
573.901,14630.0
574.068,14762.7
574.234,14698.7
574.401,14866.7
574.568,14788.0
574.734,14579.3
574.901,14635.2
575.068,15116.0
575.235,15218.5
575.401,15399.3
575.568,15152.0
575.735,15244.5
575.901,15310.8
576.068,15480.1
576.235,15210.3
576.401,15113.0
576.568,15364.5
576.734,15687.0
576.901,15196.3
577.068,15643.0
577.234,15471.7
577.401,15306.0
577.567,15282.6
577.734,15093.3
577.901,15761.5
578.067,15297.2
578.234,15543.9
578.4,15644.4
578.567,15487.8
578.733,15344.8
578.9,15380.2
579.066,15590.7
579.233,15626.3
579.399,15576.6
579.566,15651.9
579.732,15907.5
579.899,15878.6
580.065,15694.3
580.232,16017.3
580.398,15788.2
580.565,16106.2
580.731,16373.8
580.898,16140.5
581.064,16150.5
581.231,16279.5
581.397,16231.8
581.563,16481.7
581.73,17403.1
581.896,18100.6
582.063,20241.9
582.229,20722.3
582.395,17603.3
582.562,16799.0
582.728,16311.5
582.895,16435.7
583.061,16073.4
583.227,16561.8
583.394,16450.0
583.56,16256.3
583.726,16522.5
583.893,16358.2
584.059,16692.9
584.225,16359.3
584.391,16416.2
584.558,16271.2
584.724,16785.8
584.89,16679.2
585.057,16370.2
585.223,16779.5
585.389,17066.8
585.555,17301.3
585.722,18383.3
585.888,18713.4
586.054,18897.9
586.22,18505.3
586.386,18248.8
586.553,17489.4
586.719,17065.4
586.885,16913.3
587.051,17098.8
587.217,16856.8
587.384,17105.7
587.55,16951.0
587.716,17160.1
587.882,16989.4
588.048,17120.8
588.214,16918.7
588.38,17120.2
588.546,17212.4
588.713,17128.9
588.879,16588.6
589.045,17137.8
589.211,17048.5
589.377,16782.3
589.543,16695.5
589.709,17130.2
589.875,17050.1
590.041,16978.2
590.207,16921.4
590.373,16972.8
590.539,16832.9
590.705,17306.8
590.871,17086.6
591.037,17174.8
591.203,17306.6
591.369,17363.8
591.535,17303.8
591.701,17495.6
591.867,17287.1
592.033,17089.9
592.199,17272.6
592.365,17372.4
592.531,17334.2
592.697,17329.3
592.863,17234.7
593.029,17542.3
593.195,17286.2
593.361,17290.6
593.526,17470.0
593.692,17520.3
593.858,17304.4
594.024,17323.8
594.19,17488.4
594.356,17519.9
594.522,17750.2
594.687,17405.4
594.853,17532.6
595.019,17887.2
595.185,17324.2
595.351,17523.1
595.516,17788.8
595.682,17831.8
595.848,17886.0
596.014,17793.0
596.18,17560.6
596.345,18053.2
596.511,17775.4
596.677,17870.8
596.843,18127.1
597.008,17961.9
597.174,17396.2
597.34,18395.8
597.505,18072.2
597.671,17752.0
597.837,17670.6
598.002,18442.7
598.168,17814.5
598.334,17976.7
598.499,17936.0
598.665,18075.6
598.831,18050.6
598.996,17846.7
599.162,18025.8
599.328,18106.7
599.493,18479.2
599.659,17892.9
599.824,18147.8
599.99,18484.8
600.156,17975.8
600.321,18426.6
600.487,18295.4
600.652,18204.2
600.818,18420.0
600.983,18546.0
601.149,18392.8
601.314,18184.3
601.48,18305.3
601.645,18406.8
601.811,18901.0
601.976,18676.8
602.142,18355.3
602.307,18205.6
602.473,18218.1
602.638,19209.6
602.804,18969.3
602.969,18097.7
603.135,18358.0
603.3,18408.2
603.466,19034.4
603.631,18481.1
603.796,18196.1
603.962,18772.7
604.127,18606.3
604.293,18452.2
604.458,19429.1
604.623,18781.6
604.789,18477.6
604.954,19038.0
605.119,18582.8
605.285,19119.4
605.45,18678.7
605.615,18734.8
605.781,18845.6
605.946,18754.6
606.111,18895.6
606.277,18853.5
606.442,19119.5
606.607,19009.9
606.772,19261.8
606.938,19290.2
607.103,18935.4
607.268,19055.8
607.433,19122.3
607.599,19598.9
607.764,19198.8
607.929,19002.3
608.094,18998.9
608.259,19055.3
608.425,19366.6
608.59,19624.7
608.755,19528.2
608.92,18973.0
609.085,19345.2
609.25,19517.2
609.415,19417.5
609.581,19667.2
609.746,19621.1
609.911,19214.8
610.076,19949.6
610.241,19387.7
610.406,19483.5
610.571,20088.5
610.736,19681.4
610.901,19959.8
611.066,19576.9
611.231,20123.4
611.396,20403.2
611.561,19903.3
611.727,19720.4
611.892,20114.3
612.057,19896.1
612.222,19875.1
612.386,20523.1
612.551,20621.1
612.716,20164.2
612.881,19961.7
613.046,19942.6
613.211,20116.3
613.376,20122.5
613.541,20449.1
613.706,20416.5
613.871,20374.7
614.036,20519.5
614.201,19970.3
614.366,20833.4
614.531,20845.4
614.695,20800.3
614.86,20205.1
615.025,20942.9
615.19,20890.2
615.355,20767.0
615.52,20631.3
615.684,20951.5
615.849,20768.5
616.014,20667.2
616.179,21334.3
616.344,21087.7
616.508,21376.5
616.673,21122.6
616.838,21042.6
617.003,20558.1
617.168,21207.4
617.332,20953.3
617.497,21487.9
617.662,21569.1
617.826,21586.3
617.991,21670.4
618.156,21315.7
618.32,21651.8
618.485,22170.5
618.65,21688.6
618.814,21448.6
618.979,21776.9
619.144,21697.2
619.308,21486.1
619.473,21939.3
619.638,22408.8
619.802,22082.2
619.967,21975.3
620.131,22703.9
620.296,22184.1
620.461,22127.3
620.625,22713.0
620.79,21959.6
620.954,22355.4
621.119,22444.4
621.283,23130.1
621.448,22823.8
621.612,21779.5
621.777,22580.3
621.941,22769.1
622.106,22616.3
622.27,23270.3
622.435,22765.5
622.599,22935.8
622.764,22854.0
622.928,23069.0
623.093,23153.4
623.257,22928.8
623.422,23474.7
623.586,23059.3
623.75,22981.9
623.915,23242.8
624.079,23043.3
624.244,23707.6
624.408,23717.7
624.572,23424.0
624.737,23731.7
624.901,23831.2
625.065,23607.2
625.23,23980.8
625.394,23788.3
625.558,22969.2
625.723,23596.1
625.887,24439.5
626.051,23859.4
626.215,23479.7
626.38,24537.2
626.544,23606.5
626.708,23832.8
626.872,23799.2
627.037,24333.8
627.201,23910.9
627.365,23937.9
627.529,24679.3
627.693,24461.1
627.858,24931.2
628.022,24727.8
628.186,24072.3
628.35,24527.1
628.514,24978.9
628.678,25006.8
628.843,24263.4
629.007,25350.5
629.171,24564.7
629.335,25010.0
629.499,24853.9
629.663,25480.8
629.827,24911.7
629.991,25471.8
630.155,25364.9
630.319,24788.9
630.483,25194.6
630.647,25368.1
630.812,25753.9
630.976,24906.3
631.14,26595.0
631.304,26224.2
631.468,26104.3
631.632,25587.3
631.796,26617.3
631.959,26153.3
632.123,25469.8
632.287,26406.3
632.451,26047.1
632.615,26406.4
632.779,25444.6
632.943,26992.1
633.107,26310.8
633.271,26338.2
633.435,25847.5
633.599,25747.7
633.763,27461.3
633.926,26724.4
634.09,26928.7
634.254,26148.3
634.418,25947.1
634.582,26415.7
634.746,25993.7
634.909,26761.2
635.073,26740.2
635.237,26160.8
635.401,25589.1
635.564,26244.9
635.728,26464.2
635.892,26682.3
636.056,27552.4
636.219,27039.4
636.383,27250.1
636.547,27505.3
636.711,27303.1
636.874,27238.7
637.038,27023.8
637.202,26858.5
637.365,27231.6
637.529,26661.7
637.693,26972.8
637.856,26256.9
638.02,27373.0
638.184,26877.6
638.347,26954.8
638.511,26769.7
638.674,26773.6
638.838,26241.1
639.002,27283.7
639.165,27336.3
639.329,27602.1
639.492,26552.8
639.656,26340.3
639.819,26323.4
639.983,27220.8
640.146,26933.8
640.31,27385.2
640.473,27005.9
640.637,26421.3
640.8,26330.8
640.964,26795.3
641.127,27000.6
641.291,26746.6
641.454,27091.3
641.618,26555.8
641.781,27051.5
641.944,26590.8
642.108,26611.4
642.271,27110.8
642.435,27498.9
642.598,26433.9
642.761,28161.2
642.925,27162.9
643.088,27283.3
643.251,26388.4
643.415,26587.7
643.578,26702.1
643.741,27095.1
643.905,27046.2
644.068,27752.4
644.231,26961.4
644.394,26656.2
644.558,26519.1
644.721,26992.6
644.884,26961.6
645.047,26835.8
645.211,26972.5
645.374,27321.2
645.537,27458.2
645.7,26530.9
645.863,26738.7
646.027,26407.9
646.19,27079.2
646.353,27689.4
646.516,26916.8
646.679,26386.9
646.842,27225.9
647.005,27157.7
647.169,26476.9
647.332,26142.7
647.495,27094.3
647.658,27184.6
647.821,27207.3
647.984,26786.8
648.147,26368.2
648.31,26167.8
648.473,27091.4
648.636,26647.3
648.799,26768.1
648.962,26289.3
649.125,26207.8
649.288,25925.3
649.451,26340.3
649.614,25957.5
649.777,26376.2
649.94,27077.9
650.103,25739.7
650.266,26696.1
650.429,26153.0
650.592,25433.8
650.755,26584.9
650.918,25862.8
651.08,26459.8
651.243,26674.8
651.406,26155.2
651.569,26025.9
651.732,26176.8
651.895,26325.8
652.058,26200.6
652.22,25090.2
652.383,26556.7
652.546,25610.3
652.709,25186.7
652.872,26479.3
653.034,24929.3
653.197,25244.9
653.36,25608.1
653.523,24684.7
653.685,24412.6
653.848,24871.2
654.011,24513.6
654.173,23892.8
654.336,25214.1
654.499,25422.3
654.662,24855.7
654.824,24056.2
654.987,24505.9
655.149,24758.8
655.312,25383.1
655.475,24556.8
655.637,24707.3
655.8,24402.5
655.963,24775.6
656.125,25106.2
656.288,24951.6
656.45,24412.2
656.613,24500.7
656.775,24399.3
656.938,24270.2
657.1,24029.0
657.263,24174.4
657.425,24205.8
657.588,24427.6
657.75,23435.0
657.913,23136.3
658.075,23777.8
658.238,23191.2
658.4,23159.8
658.563,23529.8
658.725,22307.5
658.888,23197.8
659.05,23925.9
659.212,22399.9
659.375,22445.0
659.537,22741.7
659.7,23052.5
659.862,23369.0
660.024,22108.7
660.187,22634.6
660.349,22623.4
660.511,23227.3
660.674,23076.9
660.836,22712.3
660.998,22169.3
661.079,21909.4