File: spectra/VLFR_01-LDPE_nobio_Raman_a86eebbe.csv
nm,Intensity
526.486,829.9
526.622,830.1
526.759,828.6
526.896,828.0
527.033,828.0
527.169,829.5
527.306,831.2
527.443,829.3
527.579,828.9
527.716,829.7
527.853,829.0
527.989,829.4
528.126,829.1
528.263,830.0
528.399,828.9
528.536,829.9
528.672,827.8
528.809,830.3
528.946,829.7
529.082,829.1
529.219,828.9
529.355,830.3
529.492,830.0
529.628,828.9
529.765,828.7
529.901,828.5
530.038,829.2
530.174,829.5
530.311,829.5
530.447,830.5
530.584,828.5
530.72,829.1
530.857,829.4
530.993,829.5
531.13,830.1
531.266,828.8
531.403,828.4
531.539,830.5
531.676,832.4
531.812,828.5
531.948,833.3
532.085,865.2
532.221,892.2
532.358,849.2
532.494,830.0
532.63,828.8
532.767,827.8
532.903,828.6
533.039,828.2
533.176,829.3
533.312,829.9
533.448,829.2
533.585,828.9
533.721,833.5
533.857,853.7
533.993,894.1
534.13,913.6
534.266,916.3
534.402,909.2
534.539,908.1
534.675,908.9
534.811,906.9
534.947,901.1
535.083,899.1
535.22,896.2
535.356,891.6
535.492,887.7
535.628,885.0
535.764,884.8
535.901,880.9
536.037,878.1
536.173,880.7
536.309,879.6
536.445,877.7
536.581,876.0
536.717,875.6
536.854,876.5
536.99,875.6
537.126,875.2
537.262,875.9
537.398,876.4
537.534,875.0
537.67,874.2
537.806,871.5
537.942,872.5
538.078,874.0
538.214,872.1
538.35,870.7
538.486,875.0
538.622,870.4
538.758,869.6
538.894,869.1
539.03,868.2
539.166,868.4
539.302,868.0
539.438,871.0
539.574,868.5
539.71,866.9
539.846,867.9
539.982,865.8
540.118,866.7
540.254,865.6
540.39,864.7
540.526,863.5
540.662,865.0
540.798,864.5
540.933,865.3
541.069,863.0
541.205,862.2
541.341,862.8
541.477,864.9
541.613,863.5
541.749,861.2
541.884,863.6
542.02,863.3
542.156,864.0
542.292,863.8
542.428,861.4
542.563,863.0
542.699,862.7
542.835,862.2
542.971,861.1
543.106,861.9
543.242,860.8
543.378,861.3
543.514,862.6
543.649,863.6
543.785,861.1
543.921,860.8
544.057,862.5
544.192,861.9
544.328,861.5
544.464,863.6
544.599,862.6
544.735,861.3
544.871,859.2
545.006,860.5
545.142,860.1
545.278,862.7
545.413,861.6
545.549,860.8
545.684,857.4
545.82,859.8
545.956,859.0
546.091,862.4
546.227,860.6
546.362,858.7
546.498,860.3
546.634,860.2
546.769,860.0
546.905,859.8
547.04,860.4
547.176,860.3
547.311,859.0
547.447,857.8
547.582,859.8
547.718,863.0
547.853,860.7
547.989,856.6
548.124,859.5
548.26,858.9
548.395,862.5
548.531,857.8
548.666,856.3
548.802,857.7
548.937,859.7
549.072,860.6
549.208,859.1
549.343,858.3
549.479,857.5
549.614,859.1
549.75,858.5
549.885,857.7
550.02,861.6
550.156,858.8
550.291,859.2
550.426,858.1
550.562,856.3
550.697,858.2
550.832,857.0
550.968,859.6
551.103,859.3
551.238,857.7
551.374,861.1
551.509,857.0
551.644,858.4
551.78,857.9
551.915,855.2
552.05,860.6
552.185,857.2
552.321,858.4
552.456,857.4
552.591,858.2
552.726,860.0
552.862,856.7
552.997,859.1
553.132,859.9
553.267,858.9
553.403,860.5
553.538,862.6
553.673,862.9
553.808,861.4
553.943,862.2
554.078,860.1
554.214,862.8
554.349,861.1
554.484,861.7
554.619,862.1
554.754,860.4
554.889,861.1
555.024,861.7
555.16,864.9
555.295,863.5
555.43,862.0
555.565,863.0
555.7,862.9
555.835,863.5
555.97,862.6
556.105,867.5
556.24,865.4
556.375,864.2
556.51,867.4
556.645,868.0
556.78,865.4
556.915,869.6
557.05,866.6
557.185,867.2
557.32,868.4
557.455,871.6
557.59,872.3
557.725,869.9
557.86,872.5
557.995,872.8
558.13,873.1
558.265,873.1
558.4,873.1
558.535,875.7
558.67,873.0
558.805,872.1
558.94,873.9
559.075,871.3
559.21,871.9
559.345,871.1
559.479,869.0
559.614,870.1
559.749,870.5
559.884,872.5
560.019,871.2
560.154,871.3
560.289,871.0
560.424,871.2
560.558,872.5
560.693,870.3
560.828,870.9
560.963,872.5
561.098,868.7
561.232,869.9
561.367,869.7
561.502,873.2
561.637,872.6
561.772,873.2
561.906,873.1
562.041,873.0
562.176,876.2
562.311,874.5
562.445,876.9
562.58,875.7
562.715,878.6
562.85,878.0
562.984,880.5
563.119,880.5
563.254,884.4
563.388,888.6
563.523,883.7
563.658,890.2
563.792,899.7
563.927,925.4
564.062,973.1
564.196,955.6
564.331,916.1
564.466,900.7
564.6,906.9
564.735,908.5
564.87,903.3
565.004,899.5
565.139,895.8
565.273,896.6
565.408,893.0
565.543,892.3
565.677,895.6
565.812,900.2
565.946,916.5
566.081,959.1
566.215,973.6
566.35,947.1
566.485,913.2
566.619,903.8
566.754,896.0
566.888,896.2
567.023,895.5
567.157,894.1
567.292,894.5
567.426,896.6
567.561,902.5
567.695,900.5
567.83,893.7
567.964,897.7
568.099,893.4
568.233,894.4
568.368,895.5
568.502,894.9
568.636,900.6
568.771,898.9
568.905,898.7
569.04,899.5
569.174,898.6
569.309,899.3
569.443,904.1
569.577,900.2
569.712,906.7
569.846,906.9
569.98,903.2
570.115,910.0
570.249,911.0
570.384,912.5
570.518,909.0
570.652,919.8
570.787,919.7
570.921,923.3
571.055,921.9
571.19,924.9
571.324,944.1
571.458,995.3
571.592,1073.7
571.727,1022.7
571.861,974.2
571.995,956.4
572.13,950.5
572.264,946.6
572.398,941.7
572.532,935.4
572.667,936.1
572.801,938.2
572.935,933.9
573.069,934.4
573.204,939.1
573.338,936.4
573.472,942.2
573.606,944.6
573.74,951.3
573.875,950.8
574.009,960.5
574.143,958.8
574.277,954.8
574.411,951.2
574.545,952.0
574.68,957.5
574.814,963.1
574.948,960.1
575.082,964.3
575.216,966.3
575.35,978.2
575.484,999.6
575.619,1027.8
575.753,1029.6
575.887,1022.5
576.021,1037.6
576.155,1071.6
576.289,1115.1
576.423,1120.8
576.557,1092.8
576.691,1079.9
576.825,1077.8
576.959,1085.4
577.093,1085.0
577.227,1082.4
577.361,1070.8
577.495,1054.8
577.629,1051.9
577.763,1054.9
577.897,1058.2
578.031,1053.3
578.165,1050.6
578.299,1054.3
578.433,1066.7
578.567,1074.1
578.701,1074.8
578.835,1078.2
578.969,1086.7
579.103,1090.3
579.237,1097.0
579.371,1100.0
579.505,1107.3
579.639,1109.8
579.773,1111.6
579.907,1122.0
580.041,1128.9
580.175,1137.6
580.309,1147.2
580.442,1144.6
580.576,1155.3
580.71,1159.1
580.844,1161.5
580.978,1164.2
581.112,1167.4
581.246,1174.1
581.38,1180.5
581.513,1188.7
581.647,1195.3
581.781,1202.4
581.915,1199.4
582.049,1212.9
582.183,1218.4
582.316,1212.5
582.45,1222.5
582.584,1225.5
582.718,1239.4
582.852,1248.1
582.985,1248.0
583.119,1257.1
583.253,1265.4
583.387,1260.9
583.52,1276.3
583.654,1282.1
583.788,1294.0
583.922,1288.6
584.055,1304.7
584.189,1304.8
584.323,1311.0
584.456,1316.0
584.59,1331.0
584.724,1325.3
584.858,1330.9
584.991,1350.2
585.125,1348.2
585.259,1366.8
585.392,1369.0
585.526,1381.8
585.66,1379.0
585.793,1399.1
585.927,1403.4
586.061,1414.0
586.194,1433.9
586.328,1440.0
586.462,1438.6
586.595,1459.9
586.729,1462.9
586.862,1483.0
586.996,1498.2
587.13,1503.9
587.263,1514.5
587.397,1529.7
587.53,1531.6
587.664,1557.6
587.797,1562.6
587.931,1576.0
588.065,1585.1
588.198,1598.3
588.332,1607.7
588.465,1613.5
588.599,1624.0
588.732,1640.0
588.866,1644.8
588.999,1655.7
589.133,1674.5
589.266,1686.6
589.4,1686.2
589.533,1717.7
589.667,1713.7
589.8,1731.4
589.934,1744.7
590.067,1762.2
590.201,1766.9
590.334,1771.5
590.468,1784.2
590.601,1799.4
590.735,1815.5
590.868,1824.1
591.001,1825.2
591.135,1843.2
591.268,1850.1
591.402,1864.9
591.535,1859.2
591.669,1880.9
591.802,1885.6
591.935,1884.8
592.069,1892.6
592.202,1898.1
592.335,1906.4
592.469,1921.7
592.602,1909.1
592.736,1924.3
592.869,1918.8
593.002,1939.7
593.136,1935.7
593.269,1952.4
593.402,1949.4
593.536,1952.9
593.669,1964.2
593.802,1973.9
593.936,1976.8
594.069,1978.8
594.202,1984.4
594.336,2005.9
594.469,2001.9
594.602,2013.0
594.735,2036.9
594.869,2046.3
595.002,2042.8
595.135,2049.4
595.268,2064.0
595.402,2066.4
595.535,2070.1
595.668,2083.3
595.801,2094.6
595.935,2118.5
596.068,2119.6
596.201,2126.2
596.334,2131.7
596.468,2145.8
596.601,2159.5
596.734,2172.2
596.867,2179.9
597.0,2191.2
597.133,2205.4
597.267,2228.7
597.4,2220.7
597.533,2239.1
597.666,2257.0
597.799,2278.3
597.932,2277.3
598.066,2304.4
598.199,2308.7
598.332,2326.4
598.465,2345.1
598.598,2355.9
598.731,2373.7
598.864,2362.7
598.998,2391.3
599.131,2397.4
599.264,2408.1
599.397,2417.6
599.53,2431.8
599.663,2443.4
599.796,2429.4
599.929,2445.0
600.062,2477.3
600.195,2450.6
600.328,2448.0
600.461,2455.2
600.594,2434.9
600.727,2440.9
600.86,2446.0
600.994,2455.3
601.127,2438.2
601.26,2438.6
601.393,2440.5
601.526,2446.9
601.659,2430.0
601.792,2438.2
601.925,2417.5
602.058,2434.5
602.191,2407.6
602.324,2389.8
602.457,2393.4
602.589,2387.9
602.722,2380.3
602.855,2373.1
602.988,2361.9
603.121,2343.0
603.254,2334.3
603.387,2335.6
603.52,2310.0
603.653,2292.9
603.786,2278.6
603.919,2269.2
604.052,2257.4
604.185,2245.8
604.318,2220.8
604.451,2205.3
604.583,2187.8
604.716,2167.1
604.849,2128.6
604.982,2127.2
605.115,2111.9
605.248,2081.3
605.381,2078.0
605.514,2063.0
605.646,2032.3
605.779,2026.4
605.912,1998.7
606.045,1985.1
606.178,1972.0
606.311,1947.4
606.443,1942.2
606.576,1933.7
606.709,1914.1
606.842,1903.0
606.975,1903.4
607.107,1878.9
607.24,1865.0
607.373,1858.6
607.506,1850.8
607.639,1843.8
607.771,1834.2
607.904,1827.6
608.037,1812.5
608.17,1812.7
608.302,1789.2
608.435,1794.2
608.568,1777.2
608.701,1761.5
608.833,1762.4
608.966,1755.6
609.099,1738.2
609.232,1734.9
609.364,1727.7
609.497,1716.3
609.63,1709.8
609.762,1705.0
609.895,1698.0
610.028,1682.6
610.161,1679.3
610.293,1678.4
610.426,1668.4
610.559,1660.2
610.691,1653.5
610.824,1653.6
610.957,1652.7
611.089,1638.6
611.222,1634.7
611.355,1632.8
611.487,1614.5
611.62,1617.4
611.752,1614.0
611.885,1619.6
612.018,1615.5
612.15,1595.5
612.283,1607.1
612.416,1592.4
612.548,1598.6
612.681,1598.8
612.813,1590.9
612.946,1583.5
613.078,1577.9
613.211,1572.8
613.344,1580.1
613.476,1566.1
613.609,1570.5
613.741,1552.0
613.874,1553.1
614.006,1554.2
614.139,1538.5
614.272,1543.2
614.404,1540.6
614.537,1536.2
614.669,1527.2
614.802,1526.3
614.934,1517.7
615.067,1516.6
615.199,1498.3
615.332,1502.9
615.464,1491.4
615.597,1499.6
615.729,1488.7
615.862,1482.7
615.994,1477.4
616.127,1463.3
616.259,1457.1
616.392,1453.4
616.524,1451.7
616.657,1451.6
616.789,1442.8
616.922,1448.9
617.054,1448.7
617.186,1449.9
617.319,1434.4
617.451,1438.6
617.584,1441.0
617.716,1430.1
617.849,1432.9
617.981,1429.0
618.113,1428.2
618.246,1415.9
618.378,1421.0
618.511,1411.3
618.643,1415.7
618.775,1409.0
618.908,1402.6
619.04,1403.6
619.173,1391.7
619.305,1396.8
619.437,1383.9
619.57,1384.3
619.702,1386.6
619.834,1389.9
619.967,1373.3
620.099,1376.0
620.231,1380.8
620.364,1367.5
620.496,1367.7
620.628,1357.4
620.761,1364.8
620.893,1359.6
621.025,1364.3
621.158,1359.9
621.29,1365.0
621.422,1361.3
621.555,1354.1
621.687,1370.8
621.819,1367.2
621.952,1357.2
622.084,1372.7
622.216,1380.5
622.348,1374.0
622.481,1377.1
622.613,1370.2
622.745,1362.0
622.878,1353.0
623.01,1347.1
623.142,1350.6
623.274,1342.0
623.407,1336.8
623.539,1337.0
623.671,1326.6
623.803,1324.8
623.935,1326.3
624.068,1321.4
624.2,1313.1
624.332,1324.0
624.464,1315.9
624.597,1311.2
624.729,1314.4
624.861,1315.1
624.993,1318.7
625.125,1308.1
625.258,1319.4
625.39,1311.0
625.522,1305.3
625.654,1309.0
625.786,1316.8
625.918,1309.6
626.051,1316.3
626.183,1323.1
626.315,1332.8
626.447,1343.6
626.579,1360.4
626.711,1402.2
626.844,1492.6
626.976,1634.4
627.108,1818.5
627.24,1915.1
627.372,1932.0
627.504,1838.0
627.636,1758.9
627.768,1702.8
627.901,1660.9
628.033,1638.1
628.165,1639.5
628.297,1702.2
628.429,1822.7
628.561,2025.2
628.693,1990.6
628.825,1823.8
628.957,1746.6
629.089,1701.6
629.221,1679.6
629.354,1653.9
629.486,1624.5
629.618,1602.0
629.75,1581.6
629.882,1544.4
630.014,1535.4
630.146,1535.1
630.278,1521.8
630.41,1513.1
630.542,1504.7
630.674,1493.8
630.806,1467.4
630.938,1434.7
631.07,1399.4
631.202,1365.4
631.334,1333.4
631.466,1327.9
631.598,1325.2
631.73,1322.2
631.862,1310.7
631.994,1307.7
632.126,1299.1
632.258,1299.9
632.39,1297.8
632.522,1294.6
632.654,1294.3
632.786,1289.1
632.918,1286.7
633.05,1284.2
633.182,1282.9
633.314,1282.1
633.446,1286.6
633.578,1290.6
633.71,1279.9
633.842,1284.1
633.974,1293.1
634.106,1284.5
634.237,1294.2
634.369,1290.7
634.501,1282.8
634.633,1290.0
634.765,1291.4
634.897,1289.1
635.029,1291.1
635.161,1291.9
635.293,1280.7
635.425,1294.8
635.557,1306.7
635.689,1299.8
635.82,1306.0
635.952,1304.2
636.084,1301.2
636.216,1309.2
636.348,1318.1
636.48,1320.1
636.612,1318.5
636.744,1314.0
636.875,1311.6
637.007,1322.5
637.139,1320.0
637.271,1321.2
637.403,1322.9
637.535,1326.5
637.667,1323.7
637.798,1324.6
637.93,1331.7
638.062,1334.5
638.194,1329.7
638.326,1328.4
638.458,1342.8
638.589,1343.1
638.721,1344.0
638.853,1346.0
638.985,1351.2
639.117,1349.0
639.248,1352.4
639.38,1354.8
639.512,1365.2
639.644,1360.3
639.776,1372.8
639.907,1371.4
640.039,1374.3
640.171,1369.2
640.303,1379.8
640.435,1373.6
640.566,1380.7
640.698,1388.2
640.83,1384.9
640.962,1389.0
641.093,1396.0
641.225,1392.9
641.357,1391.6
641.489,1406.8
641.62,1405.5
641.752,1406.3
641.884,1408.9
642.016,1418.3
642.147,1408.4
642.279,1413.7
642.411,1417.7
642.543,1424.9
642.674,1432.6
642.806,1425.0
642.938,1429.8
643.069,1425.4
643.201,1430.3
643.333,1437.1
643.465,1436.4
643.596,1438.2
643.728,1433.8
643.86,1430.9
643.991,1439.7
644.123,1435.4
644.255,1438.5
644.386,1441.4
644.518,1450.2
644.65,1448.2
644.781,1442.9
644.913,1450.6
645.045,1443.8
645.176,1446.9
645.308,1446.7
645.44,1445.7
645.571,1451.8
645.703,1456.7
645.835,1455.4
645.966,1452.9
646.098,1457.5
646.23,1458.0
646.361,1461.4
646.493,1464.1
646.625,1463.6
646.756,1459.2
646.888,1461.7
647.019,1469.3
647.151,1466.7
647.283,1467.2
647.414,1465.6
647.546,1469.5
647.678,1472.1
647.809,1476.5
647.941,1471.8
648.072,1479.5
648.204,1469.0
648.336,1460.1
648.467,1477.4
648.599,1476.2
648.73,1468.9
648.862,1471.9
648.993,1476.8
649.125,1473.6
649.257,1468.9
649.388,1464.2
649.52,1475.4
649.651,1488.3
649.783,1474.8
649.914,1476.8
650.046,1480.6
650.178,1480.9
650.309,1475.5
650.441,1480.7
650.572,1483.3
650.704,1481.4
650.835,1485.0
650.967,1490.4
651.098,1476.2
651.23,1485.7
651.361,1491.5
651.493,1493.9
651.625,1491.0
651.756,1491.7
651.888,1494.6
652.019,1497.4
652.151,1503.8
652.282,1507.6
652.414,1499.8
652.545,1510.5
652.677,1494.8
652.808,1497.4
652.94,1514.9
653.071,1504.2
653.203,1515.6
653.334,1511.5
653.466,1513.0
653.597,1503.1
653.729,1514.6
653.86,1521.7
653.992,1513.0
654.123,1510.9
654.255,1509.3
654.386,1503.8
654.518,1504.9
654.649,1508.0
654.78,1512.8
654.912,1495.2
655.043,1505.7
655.175,1510.7
655.306,1505.9
655.438,1488.4
655.569,1503.9
655.701,1499.3
655.832,1499.6
655.964,1499.0
656.095,1492.7
656.226,1487.4
656.358,1477.8
656.489,1479.6
656.621,1479.7
656.752,1481.1
656.884,1476.3
657.015,1472.3
657.146,1478.8
657.278,1467.3
657.409,1460.6
657.541,1459.5
657.672,1457.3
657.804,1451.8
657.935,1446.2
658.066,1442.1
658.198,1437.3
658.329,1436.4
658.461,1436.7
658.592,1432.5
658.723,1414.3
658.855,1419.7
658.986,1410.9
659.118,1409.6
659.249,1402.2
659.38,1404.6
659.512,1397.4
659.643,1394.6
659.774,1386.3
659.906,1370.9
660.037,1374.5
660.169,1364.9
660.3,1367.2
660.431,1358.0
660.563,1346.6
660.694,1352.7
660.825,1331.9
660.957,1340.7
661.088,1327.1
661.22,1328.0
661.351,1311.2
661.482,1318.2
661.614,1313.2
661.745,1298.7
661.876,1297.8
662.008,1292.9
662.139,1283.2
662.27,1278.8
662.402,1273.1
662.533,1274.3
662.664,1263.9
662.796,1266.0
662.927,1252.4
663.058,1251.1