File: spectra/VLFR_01-LDPE_nobio_Raman_388a21dd.csv
nm,Intensity
528.65,1842.35
528.819,1842.05
528.987,1841.75
529.155,1841.55
529.324,1841.7
529.492,1841.65
529.66,1841.05
529.829,1840.95
529.997,1842.55
530.165,1842.6
530.334,1841.35
530.502,1842.15
530.67,1842.6
530.839,1841.8
531.007,1842.75
531.175,1843.7
531.344,1843.5
531.512,1846.75
531.68,1865.55
531.848,2220.2
532.017,2892.8
532.185,2529.7
532.353,1892.1
532.521,1844.35
532.69,1842.15
532.858,1842.35
533.026,1843.4
533.194,1843.2
533.363,1845.2
533.531,1856.0
533.699,1913.85
533.867,2020.9
534.036,2097.4
534.204,2084.4
534.372,2081.55
534.54,2068.85
534.708,2067.0
534.877,2060.0
535.045,2047.5
535.213,2049.95
535.381,2037.15
535.549,2032.05
535.717,2016.25
535.886,2005.15
536.054,1996.35
536.222,1998.15
536.39,1994.75
536.558,1986.55
536.726,1986.05
536.894,1980.55
537.062,1974.8
537.231,1987.15
537.399,1993.2
537.567,1985.45
537.735,1992.45
537.903,1995.9
538.071,1992.15
538.239,1981.5
538.407,1981.05
538.575,1980.75
538.743,1984.3
538.911,1968.45
539.079,1973.35
539.247,1966.3
539.415,1968.1
539.583,1967.2
539.751,1967.1
539.919,1962.95
540.087,1961.6
540.255,1964.65
540.423,1954.85
540.591,1953.75
540.759,1967.6
540.927,1961.7
541.095,1958.25
541.263,1959.2
541.431,1956.9
541.599,1957.5
541.767,1959.8
541.935,1962.1
542.103,1961.4
542.271,1953.95
542.439,1964.8
542.607,1964.05
542.775,1955.3
542.943,1956.9
543.111,1961.85
543.279,1953.4
543.446,1952.6
543.614,1961.9
543.782,1963.7
543.95,1961.85
544.118,1963.3
544.286,1960.5
544.454,1957.4
544.622,1949.95
544.789,1958.45
544.957,1954.95
545.125,1956.65
545.293,1953.3
545.461,1955.95
545.629,1954.75
545.796,1960.4
545.964,1954.25
546.132,1952.75
546.3,1946.95
546.468,1956.0
546.635,1950.85
546.803,1954.8
546.971,1948.15
547.139,1953.15
547.306,1957.4
547.474,1947.3
547.642,1952.1
547.81,1949.0
547.977,1952.5
548.145,1953.85
548.313,1954.2
548.481,1954.25
548.648,1949.2
548.816,1946.85
548.984,1955.1
549.151,1957.35
549.319,1949.95
549.487,1947.7
549.655,1951.0
549.822,1956.15
549.99,1952.9
550.158,1946.5
550.325,1947.55
550.493,1948.3
550.66,1946.35
550.828,1951.1
550.996,1951.15
551.163,1950.85
551.331,1954.15
551.499,1954.15
551.666,1955.45
551.834,1955.65
552.001,1960.2
552.169,1956.55
552.337,1957.1
552.504,1956.7
552.672,1957.5
552.839,1954.65
553.007,1960.0
553.174,1965.6
553.342,1969.55
553.509,1970.95
553.677,1964.7
553.844,1964.75
554.012,1969.5
554.179,1964.55
554.347,1964.95
554.514,1968.45
554.682,1974.75
554.849,1973.75
555.017,1977.0
555.184,1973.45
555.352,1973.2
555.519,1983.25
555.687,1978.55
555.854,1974.35
556.022,1977.95
556.189,1978.3
556.357,1978.35
556.524,1974.1
556.691,1987.4
556.859,1990.0
557.026,1992.6
557.194,1991.3
557.361,1997.6
557.528,2006.65
557.696,2004.15
557.863,2007.65
558.031,2013.4
558.198,2013.9
558.365,2008.9
558.533,2003.65
558.7,2002.9
558.867,1996.95
559.035,1995.15
559.202,1998.15
559.369,1993.9
559.537,1998.05
559.704,1998.2
559.871,1992.4
560.038,1985.5
560.206,1987.75
560.373,1989.9
560.54,1993.4
560.708,1997.1
560.875,1995.05
561.042,1997.1
561.209,2002.15
561.377,1993.5
561.544,1990.15
561.711,1988.3
561.878,2004.7
562.045,1999.8
562.213,2006.45
562.38,2004.65
562.547,2004.5
562.714,2017.85
562.881,2021.6
563.049,2033.85
563.216,2031.4
563.383,2037.95
563.55,2059.05
563.717,2119.35
563.884,2253.4
564.052,2347.95
564.219,2205.25
564.386,2114.15
564.553,2106.45
564.72,2093.55
564.887,2091.15
565.054,2067.35
565.221,2062.75
565.388,2052.95
565.556,2061.3
565.723,2092.15
565.89,2174.15
566.057,2309.45
566.224,2281.05
566.391,2150.95
566.558,2082.9
566.725,2048.1
566.892,2050.7
567.059,2045.3
567.226,2051.35
567.393,2075.2
567.56,2068.5
567.727,2042.3
567.894,2031.55
568.061,2026.8
568.228,2022.4
568.395,2028.0
568.562,2021.35
568.729,2027.05
568.896,2033.2
569.063,2041.55
569.23,2028.3
569.396,2036.15
569.563,2036.1
569.73,2047.3
569.897,2029.7
570.064,2050.0
570.231,2050.35
570.398,2066.6
570.565,2064.7
570.732,2088.4
570.898,2093.5
571.065,2120.55
571.232,2202.6
571.399,2452.3
571.566,2613.15
571.733,2399.7
571.9,2221.95
572.066,2192.0
572.233,2148.85
572.4,2133.5
572.567,2121.15
572.734,2106.55
572.9,2087.95
573.067,2099.55
573.234,2110.45
573.401,2099.5
573.567,2097.25
573.734,2127.7
573.901,2132.95
574.068,2130.6
574.234,2105.75
574.401,2110.15
574.568,2098.65
574.734,2106.35
574.901,2114.85
575.068,2123.75
575.235,2170.15
575.401,2256.55
575.568,2320.4
575.735,2329.8
575.901,2381.1
576.068,2532.75
576.235,2668.35
576.401,2664.95
576.568,2556.9
576.734,2517.4
576.901,2511.4
577.068,2505.6
577.234,2438.1
577.401,2369.05
577.567,2299.6
577.734,2292.8
577.901,2272.05
578.067,2262.0
578.234,2288.5
578.4,2279.1
578.567,2297.9
578.733,2307.05
578.9,2317.65
579.066,2326.35
579.233,2337.45
579.399,2350.55
579.566,2350.6
579.732,2398.05
579.899,2390.5
580.065,2406.4
580.232,2406.25
580.398,2437.4
580.565,2440.35
580.731,2459.95
580.898,2476.95
581.064,2489.2
581.231,2495.6
581.397,2513.65
581.563,2530.45
581.73,2536.65
581.896,2546.95
582.063,2568.7
582.229,2575.25
582.395,2577.8
582.562,2581.85
582.728,2617.75
582.895,2616.4
583.061,2635.35
583.227,2648.7
583.394,2642.5
583.56,2682.1
583.726,2692.65
583.893,2671.2
584.059,2717.3
584.225,2732.05
584.391,2740.9
584.558,2732.1
584.724,2760.7
584.89,2757.2
585.057,2736.6
585.223,2788.55
585.389,2779.45
585.555,2798.3
585.722,2806.4
585.888,2785.25
586.054,2836.5
586.22,2850.1
586.386,2850.3
586.553,2841.35
586.719,2897.5
586.885,2903.95
587.051,2944.85
587.217,2926.9
587.384,2915.0
587.55,2960.85
587.716,2971.8
587.882,2969.7
588.048,3004.2
588.214,3038.7
588.38,3046.4
588.546,3044.65
588.713,3052.1
588.879,3104.5
589.045,3100.35
589.211,3126.3
589.377,3129.3
589.543,3092.9
589.709,3138.75
589.875,3162.5
590.041,3181.45
590.207,3208.6
590.373,3234.55
590.539,3242.8
590.705,3266.65
590.871,3282.05
591.037,3298.75
591.203,3298.8
591.369,3306.95
591.535,3308.15
591.701,3305.95
591.867,3326.2
592.033,3378.3
592.199,3447.85
592.365,3402.6
592.531,3368.6
592.697,3402.65
592.863,3426.05
593.029,3403.8
593.195,3442.15
593.361,3432.25
593.526,3480.7
593.692,3431.3
593.858,3487.5
594.024,3473.6
594.19,3445.85
594.356,3457.95
594.522,3506.5
594.687,3531.5
594.853,3491.75
595.019,3493.25
595.185,3524.25
595.351,3597.6
595.516,3548.45
595.682,3607.6
595.848,3545.4
596.014,3569.95
596.18,3636.45
596.345,3589.25
596.511,3625.0
596.677,3635.55
596.843,3687.95
597.008,3692.65
597.174,3677.8
597.34,3699.2
597.505,3688.45
597.671,3696.6
597.837,3801.2
598.002,3742.1
598.168,3762.45
598.334,3736.5
598.499,3817.6
598.665,3808.7
598.831,3823.6
598.996,3818.1
599.162,3871.7
599.328,3872.6
599.493,3881.1
599.659,3873.45
599.824,3866.85
599.99,3940.55
600.156,3916.45
600.321,3947.0
600.487,3931.95
600.652,3944.05
600.818,3895.5
600.983,3900.65
601.149,3916.55
601.314,3958.1
601.48,3985.3
601.645,3900.05
601.811,3917.4
601.976,3948.7
602.142,3929.85
602.307,3915.25
602.473,3876.7
602.638,3916.8
602.804,3879.55
602.969,3808.4
603.135,3865.05
603.3,3839.8
603.466,3770.7
603.631,3789.6
603.796,3744.0
603.962,3722.85
604.127,3730.05
604.293,3644.8
604.458,3677.7
604.623,3653.85
604.789,3635.4
604.954,3604.6
605.119,3509.1
605.285,3518.5
605.45,3542.65
605.615,3544.75
605.781,3455.35
605.946,3457.0
606.111,3424.05
606.277,3435.0
606.442,3375.7
606.607,3386.1
606.772,3367.7
606.938,3344.8
607.103,3334.4
607.268,3289.9
607.433,3313.75
607.599,3243.55
607.764,3216.65
607.929,3240.55
608.094,3189.65
608.259,3184.6
608.425,3146.1
608.59,3124.5
608.755,3146.45
608.92,3118.7
609.085,3112.85
609.25,3079.55
609.415,3080.35
609.581,3049.95
609.746,3055.25
609.911,3019.4
610.076,3035.4
610.241,3024.7
610.406,3007.05
610.571,3010.1
610.736,2992.1
610.901,2970.45
611.066,2977.35
611.231,2975.3
611.396,2917.15
611.561,2966.0
611.727,2968.3
611.892,2909.8
612.057,2880.75
612.222,2912.35
612.386,2905.15
612.551,2898.7
612.716,2868.0
612.881,2874.8
613.046,2854.25
613.211,2828.55
613.376,2877.45
613.541,2837.0
613.706,2825.15
613.871,2852.5
614.036,2805.7
614.201,2804.8
614.366,2789.3
614.531,2795.1
614.695,2794.65
614.86,2780.35
615.025,2762.85
615.19,2795.5
615.355,2750.0
615.52,2762.85
615.684,2721.65
615.849,2742.4
616.014,2725.0
616.179,2742.05
616.344,2716.8
616.508,2715.95
616.673,2700.35
616.838,2715.05
617.003,2693.05
617.168,2691.8
617.332,2729.2
617.497,2705.6
617.662,2727.15
617.826,2692.25
617.991,2708.2
618.156,2683.7
618.32,2665.55
618.485,2688.1
618.65,2676.7
618.814,2676.85
618.979,2646.0
619.144,2650.95
619.308,2677.7
619.473,2687.3
619.638,2671.45
619.802,2641.5
619.967,2657.9
620.131,2679.3
620.296,2643.05
620.461,2630.7
620.625,2669.25
620.79,2656.2
620.954,2661.3
621.119,2669.45
621.283,2659.7
621.448,2698.7
621.612,2714.35
621.777,2707.9
621.941,2751.8
622.106,2764.25
622.27,2787.6
622.435,2782.2
622.599,2732.65
622.764,2689.3
622.928,2665.45
623.093,2624.85
623.257,2597.25
623.422,2585.9
623.586,2627.45
623.75,2596.3
623.915,2608.25
624.079,2583.25
624.244,2577.75
624.408,2562.15
624.572,2581.6
624.737,2571.6
624.901,2606.6
625.065,2597.35
625.23,2582.85
625.394,2595.75
625.558,2600.1
625.723,2618.0
625.887,2626.25
626.051,2662.9
626.215,2708.55
626.38,2821.65
626.544,3070.85
626.708,3528.65
626.872,4307.2
627.037,5037.9
627.201,5658.0
627.365,5241.55
627.529,4784.55
627.693,4516.0
627.858,4322.05
628.022,4439.4
628.186,4616.0
628.35,5281.45
628.514,5924.05
628.678,5303.3
628.843,4728.5
629.007,4500.35
629.171,4362.85
629.335,4223.85
629.499,4047.75
629.663,3920.75
629.827,3770.9
629.991,3714.1
630.155,3643.6
630.319,3647.35
630.483,3575.4
630.647,3417.15
630.812,3299.65
630.976,3114.95
631.14,2920.25
631.304,2835.3
631.468,2745.15
631.632,2708.95
631.796,2700.85
631.959,2657.15
632.123,2640.6
632.287,2644.45
632.451,2630.65
632.615,2610.0
632.779,2601.3
632.943,2579.5
633.107,2595.65
633.271,2582.75
633.435,2617.3
633.599,2565.75
633.763,2569.4
633.926,2584.6
634.09,2571.7
634.254,2562.95
634.418,2562.45
634.582,2579.15
634.746,2578.25
634.909,2584.45
635.073,2544.75
635.237,2564.0
635.401,2560.45
635.564,2565.9
635.728,2590.6
635.892,2545.1
636.056,2569.2
636.219,2559.9
636.383,2554.9
636.547,2560.15
636.711,2570.3
636.874,2584.3
637.038,2587.2
637.202,2569.55
637.365,2582.95
637.529,2556.85
637.693,2571.8
637.856,2566.2
638.02,2569.75
638.184,2599.95
638.347,2589.4
638.511,2563.8
638.674,2571.3
638.838,2599.6
639.002,2591.75
639.165,2604.15
639.329,2588.25
639.492,2583.25
639.656,2556.55
639.819,2600.05
639.983,2600.4
640.146,2613.25
640.31,2615.1
640.473,2601.9
640.637,2605.15
640.8,2592.65
640.964,2602.5
641.127,2604.3
641.291,2631.9
641.454,2618.1
641.618,2599.55
641.781,2625.45
641.944,2616.4
642.108,2624.7
642.271,2634.2
642.435,2643.7
642.598,2627.3
642.761,2646.5
642.925,2654.3
643.088,2647.75
643.251,2633.25
643.415,2627.85
643.578,2639.9
643.741,2679.0
643.905,2689.0
644.068,2667.75
644.231,2661.7
644.394,2658.05
644.558,2661.45
644.721,2671.05
644.884,2676.8
645.047,2666.45
645.211,2659.15
645.374,2672.5
645.537,2664.8
645.7,2678.3
645.863,2659.0
646.027,2665.35
646.19,2668.75
646.353,2651.35
646.516,2654.95
646.679,2682.05
646.842,2648.05
647.005,2670.0
647.169,2682.15
647.332,2651.55
647.495,2648.9
647.658,2679.7
647.821,2671.05
647.984,2661.35
648.147,2653.55
648.31,2668.65
648.473,2620.3
648.636,2683.75
648.799,2656.2
648.962,2654.35
649.125,2663.2
649.288,2687.05
649.451,2656.15
649.614,2661.95
649.777,2666.45
649.94,2670.75
650.103,2653.5
650.266,2666.1
650.429,2671.35
650.592,2637.9
650.755,2660.7
650.918,2677.05
651.08,2649.8
651.243,2619.4
651.406,2664.0
651.569,2648.3
651.732,2646.35
651.895,2657.7
652.058,2688.4
652.22,2708.9
652.383,2679.45
652.546,2656.55
652.709,2647.3
652.872,2667.25
653.034,2635.75
653.197,2643.95
653.36,2676.55
653.523,2667.35
653.685,2640.1
653.848,2638.75
654.011,2652.0
654.173,2644.8
654.336,2643.85
654.499,2623.5
654.662,2652.8
654.824,2615.6
654.987,2602.8
655.149,2632.15
655.312,2660.55
655.475,2618.8
655.637,2603.5
655.8,2644.1
655.963,2584.6
656.125,2611.4
656.288,2601.6
656.45,2593.4
656.613,2586.0
656.775,2589.15
656.938,2557.2
657.1,2611.9
657.263,2582.8
657.425,2568.1
657.588,2554.7
657.75,2561.75
657.913,2538.15
658.075,2539.3
658.238,2548.35
658.4,2513.2
658.563,2545.25
658.725,2501.85
658.888,2489.85
659.05,2503.85
659.212,2460.5
659.375,2460.55
659.537,2487.5
659.7,2462.05
659.862,2471.3
660.024,2482.1
660.187,2427.8
660.349,2410.7
660.511,2418.35
660.674,2413.45
660.836,2392.7
660.998,2386.75
661.079,2408.45