File: spectra/VLFR_01-LDPE_bio_Raman_e8385e46.csv
nm,Intensity
528.65,1837.85
528.819,1837.5
528.987,1838.35
529.155,1837.25
529.324,1836.55
529.492,1836.35
529.66,1837.3
529.829,1837.75
529.997,1838.0
530.165,1837.2
530.334,1836.85
530.502,1837.4
530.67,1838.5
530.839,1838.5
531.007,1838.5
531.175,1839.25
531.344,1840.05
531.512,1842.75
531.68,1858.7
531.848,2116.1
532.017,3530.7
532.185,3752.55
532.353,2182.1
532.521,1843.2
532.69,1839.15
532.858,1838.1
533.026,1838.45
533.194,1839.05
533.363,1840.3
533.531,1853.0
533.699,1925.5
533.867,2094.8
534.036,2177.5
534.204,2231.05
534.372,2207.7
534.54,2190.95
534.708,2201.35
534.877,2207.65
535.045,2199.75
535.213,2178.85
535.381,2176.35
535.549,2157.0
535.717,2156.65
535.886,2147.15
536.054,2131.35
536.222,2136.5
536.39,2129.35
536.558,2122.0
536.726,2121.1
536.894,2125.95
537.062,2117.2
537.231,2126.25
537.399,2123.0
537.567,2127.8
537.735,2136.7
537.903,2133.85
538.071,2125.85
538.239,2127.6
538.407,2120.9
538.575,2143.9
538.743,2152.45
538.911,2175.2
539.079,2175.8
539.247,2166.4
539.415,2137.35
539.583,2122.45
539.751,2096.65
539.919,2099.5
540.087,2089.25
540.255,2087.15
540.423,2085.1
540.591,2085.35
540.759,2082.85
540.927,2085.25
541.095,2075.75
541.263,2083.35
541.431,2084.15
541.599,2084.75
541.767,2084.1
541.935,2086.15
542.103,2097.35
542.271,2094.6
542.439,2090.45
542.607,2113.4
542.775,2116.25
542.943,2118.55
543.111,2124.2
543.279,2107.3
543.446,2101.4
543.614,2118.75
543.782,2117.35
543.95,2119.9
544.118,2135.8
544.286,2147.4
544.454,2166.55
544.622,2176.05
544.789,2159.0
544.957,2149.5
545.125,2136.0
545.293,2132.7
545.461,2132.95
545.629,2138.7
545.796,2157.95
545.964,2176.3
546.132,2168.85
546.3,2148.7
546.468,2144.85
546.635,2131.65
546.803,2118.15
546.971,2110.3
547.139,2108.1
547.306,2097.7
547.474,2102.4
547.642,2095.05
547.81,2097.35
547.977,2104.55
548.145,2101.85
548.313,2099.3
548.481,2104.25
548.648,2103.85
548.816,2100.75
548.984,2102.5
549.151,2104.8
549.319,2105.8
549.487,2133.35
549.655,2124.4
549.822,2147.05
549.99,2143.1
550.158,2145.25
550.325,2153.8
550.493,2158.9
550.66,2203.6
550.828,2227.9
550.996,2198.75
551.163,2173.7
551.331,2184.95
551.499,2190.7
551.666,2171.95
551.834,2149.65
552.001,2127.25
552.169,2109.2
552.337,2111.35
552.504,2106.65
552.672,2114.7
552.839,2107.8
553.007,2110.6
553.174,2112.05
553.342,2107.4
553.509,2119.5
553.677,2120.8
553.844,2114.7
554.012,2117.4
554.179,2117.2
554.347,2121.85
554.514,2115.8
554.682,2126.35
554.849,2131.7
555.017,2125.55
555.184,2118.35
555.352,2124.2
555.519,2127.0
555.687,2125.0
555.854,2133.55
556.022,2131.05
556.189,2135.6
556.357,2137.95
556.524,2143.45
556.691,2140.5
556.859,2135.2
557.026,2153.0
557.194,2144.6
557.361,2154.35
557.528,2162.6
557.696,2159.5
557.863,2163.35
558.031,2177.55
558.198,2168.1
558.365,2183.7
558.533,2185.9
558.7,2174.15
558.867,2173.5
559.035,2164.3
559.202,2163.15
559.369,2158.9
559.537,2170.8
559.704,2159.45
559.871,2159.6
560.038,2157.7
560.206,2150.65
560.373,2157.5
560.54,2166.2
560.708,2170.1
560.875,2174.95
561.042,2189.0
561.209,2189.75
561.377,2196.3
561.544,2240.6
561.711,2322.5
561.878,2473.5
562.045,2753.05
562.213,3110.15
562.38,3350.0
562.547,3120.85
562.714,2663.4
562.881,2386.85
563.049,2265.6
563.216,2254.45
563.383,2252.45
563.55,2271.55
563.717,2331.6
563.884,2464.3
564.052,2555.65
564.219,2482.5
564.386,2359.9
564.553,2343.65
564.72,2341.4
564.887,2347.85
565.054,2328.3
565.221,2308.85
565.388,2310.55
565.556,2321.05
565.723,2367.9
565.89,2479.8
566.057,2631.45
566.224,2643.15
566.391,2483.55
566.558,2394.15
566.725,2363.65
566.892,2342.3
567.059,2351.1
567.226,2339.5
567.393,2336.6
567.56,2320.0
567.727,2311.2
567.894,2281.65
568.061,2277.0
568.228,2269.35
568.395,2281.65
568.562,2270.65
568.729,2277.3
568.896,2285.45
569.063,2276.3
569.23,2291.9
569.396,2286.35
569.563,2288.5
569.73,2284.35
569.897,2289.05
570.064,2300.6
570.231,2310.25
570.398,2322.8
570.565,2333.45
570.732,2348.1
570.898,2358.55
571.065,2401.05
571.232,2487.7
571.399,2719.7
571.566,2930.65
571.733,2777.6
571.9,2557.35
572.066,2476.8
572.233,2449.0
572.4,2423.8
572.567,2392.6
572.734,2372.25
572.9,2361.15
573.067,2355.85
573.234,2353.15
573.401,2336.5
573.567,2337.1
573.734,2354.65
573.901,2380.6
574.068,2374.35
574.234,2354.6
574.401,2323.0
574.568,2322.45
574.734,2316.25
574.901,2328.7
575.068,2350.7
575.235,2359.85
575.401,2450.8
575.568,2533.25
575.735,2568.35
575.901,2609.55
576.068,2782.95
576.235,2883.45
576.401,2917.05
576.568,2790.15
576.734,2750.45
576.901,2748.9
577.068,2688.05
577.234,2606.1
577.401,2518.85
577.567,2435.7
577.734,2386.05
577.901,2395.4
578.067,2371.25
578.234,2358.55
578.4,2361.8
578.567,2354.85
578.733,2357.95
578.9,2366.15
579.066,2365.85
579.233,2366.85
579.399,2353.4
579.566,2357.5
579.732,2366.95
579.899,2370.3
580.065,2367.75
580.232,2377.85
580.398,2369.55
580.565,2381.7
580.731,2381.3
580.898,2379.25
581.064,2388.0
581.231,2373.1
581.397,2394.1
581.563,2383.2
581.73,2404.7
581.896,2392.95
582.063,2394.6
582.229,2389.45
582.395,2404.6
582.562,2408.05
582.728,2399.3
582.895,2389.8
583.061,2407.4
583.227,2398.5
583.394,2395.95
583.56,2421.8
583.726,2417.35
583.893,2426.15
584.059,2424.95
584.225,2427.25
584.391,2414.35
584.558,2420.85
584.724,2426.65
584.89,2435.25
585.057,2425.65
585.223,2429.55
585.389,2447.5
585.555,2440.85
585.722,2424.45
585.888,2438.25
586.054,2446.8
586.22,2439.2
586.386,2456.6
586.553,2455.9
586.719,2465.6
586.885,2457.2
587.051,2478.8
587.217,2488.25
587.384,2500.3
587.55,2495.6
587.716,2502.9
587.882,2507.75
588.048,2521.7
588.214,2512.05
588.38,2524.0
588.546,2509.35
588.713,2508.55
588.879,2536.25
589.045,2535.9
589.211,2521.9
589.377,2528.5
589.543,2549.85
589.709,2552.05
589.875,2528.3
590.041,2544.5
590.207,2563.05
590.373,2556.5
590.539,2543.0
590.705,2574.4
590.871,2544.5
591.037,2574.7
591.203,2598.9
591.369,2582.35
591.535,2578.5
591.701,2572.3
591.867,2587.3
592.033,2617.75
592.199,2599.25
592.365,2600.95
592.531,2587.15
592.697,2594.4
592.863,2618.35
593.029,2591.95
593.195,2606.4
593.361,2630.5
593.526,2614.0
593.692,2613.25
593.858,2598.2
594.024,2628.5
594.19,2607.9
594.356,2633.75
594.522,2621.75
594.687,2630.15
594.853,2629.2
595.019,2632.0
595.185,2638.95
595.351,2652.75
595.516,2658.0
595.682,2660.75
595.848,2658.4
596.014,2683.1
596.18,2683.05
596.345,2677.3
596.511,2690.8
596.677,2700.6
596.843,2686.4
597.008,2694.05
597.174,2709.1
597.34,2724.35
597.505,2726.6
597.671,2719.55
597.837,2742.45
598.002,2746.35
598.168,2758.5
598.334,2735.9
598.499,2767.2
598.665,2763.55
598.831,2781.3
598.996,2779.2
599.162,2791.1
599.328,2777.7
599.493,2794.85
599.659,2805.4
599.824,2796.8
599.99,2818.95
600.156,2793.2
600.321,2811.85
600.487,2816.45
600.652,2841.6
600.818,2818.15
600.983,2830.95
601.149,2804.45
601.314,2818.5
601.48,2831.75
601.645,2819.85
601.811,2838.35
601.976,2834.0
602.142,2830.35
602.307,2832.25
602.473,2800.1
602.638,2790.15
602.804,2792.6
602.969,2776.4
603.135,2795.9
603.3,2795.05
603.466,2797.7
603.631,2764.5
603.796,2770.0
603.962,2759.95
604.127,2743.35
604.293,2741.6
604.458,2736.8
604.623,2737.0
604.789,2729.3
604.954,2732.9
605.119,2727.6
605.285,2690.45
605.45,2695.2
605.615,2681.55
605.781,2668.1
605.946,2687.5
606.111,2659.45
606.277,2667.25
606.442,2672.55
606.607,2659.25
606.772,2649.05
606.938,2649.1
607.103,2644.8
607.268,2640.95
607.433,2628.2
607.599,2625.75
607.764,2629.4
607.929,2622.25
608.094,2601.05
608.259,2598.95
608.425,2596.85
608.59,2582.2
608.755,2587.15
608.92,2587.2
609.085,2578.4
609.25,2555.95
609.415,2573.45
609.581,2593.05
609.746,2567.3
609.911,2562.8
610.076,2571.05
610.241,2594.75
610.406,2556.15
610.571,2556.3
610.736,2572.45
610.901,2553.05
611.066,2560.0
611.231,2557.15
611.396,2561.05
611.561,2534.2
611.727,2545.9
611.892,2526.15
612.057,2537.6
612.222,2527.25
612.386,2541.6
612.551,2531.6
612.716,2513.2
612.881,2527.05
613.046,2528.85
613.211,2513.65
613.376,2511.35
613.541,2507.55
613.706,2517.55
613.871,2525.9
614.036,2514.25
614.201,2521.4
614.366,2496.1
614.531,2504.5
614.695,2492.45
614.86,2511.5
615.025,2514.15
615.19,2499.5
615.355,2480.45
615.52,2492.55
615.684,2512.15
615.849,2501.35
616.014,2485.85
616.179,2488.3
616.344,2505.45
616.508,2510.6
616.673,2512.4
616.838,2493.85
617.003,2529.9
617.168,2506.15
617.332,2498.65
617.497,2519.05
617.662,2512.5
617.826,2516.15
617.991,2501.65
618.156,2522.45
618.32,2529.35
618.485,2500.9
618.65,2497.0
618.814,2530.5
618.979,2510.9
619.144,2519.0
619.308,2512.1
619.473,2521.65
619.638,2523.15
619.802,2535.25
619.967,2526.85
620.131,2541.05
620.296,2531.7
620.461,2536.0
620.625,2535.8
620.79,2543.45
620.954,2575.25
621.119,2564.35
621.283,2569.8
621.448,2587.5
621.612,2612.95
621.777,2670.95
621.941,2704.25
622.106,2726.0
622.27,2748.85
622.435,2733.85
622.599,2666.2
622.764,2652.75
622.928,2580.9
623.093,2562.85
623.257,2553.6
623.422,2530.8
623.586,2523.95
623.75,2512.4
623.915,2500.7
624.079,2500.35
624.244,2492.1
624.408,2493.75
624.572,2500.7
624.737,2517.7
624.901,2495.75
625.065,2518.4
625.23,2539.3
625.394,2526.05
625.558,2550.6
625.723,2598.05
625.887,2574.05
626.051,2625.05
626.215,2685.3
626.38,2848.2
626.544,3053.65
626.708,3590.55
626.872,4544.3
627.037,5889.65
627.201,6305.0
627.365,6226.95
627.529,5896.5
627.693,5398.35
627.858,5030.95
628.022,4849.1
628.186,5258.5
628.35,5928.3
628.514,6468.95
628.678,6266.55
628.843,5615.1
629.007,5299.9
629.171,5181.1
629.335,4881.5
629.499,4608.4
629.663,4477.4
629.827,4287.4
629.991,4183.4
630.155,4124.8
630.319,4086.5
630.483,4020.1
630.647,3834.7
630.812,3629.75
630.976,3299.75
631.14,3073.95
631.304,2889.0
631.468,2828.05
631.632,2726.5
631.796,2674.3
631.959,2643.6
632.123,2585.85
632.287,2565.6
632.451,2502.05
632.615,2500.65
632.779,2514.7
632.943,2496.6
633.107,2476.5
633.271,2451.55
633.435,2458.0
633.599,2442.85
633.763,2447.35
633.926,2439.65
634.09,2424.05
634.254,2414.8
634.418,2422.0
634.582,2419.6
634.746,2414.2
634.909,2404.65
635.073,2418.95
635.237,2403.4
635.401,2387.95
635.564,2379.4
635.728,2393.4
635.892,2397.5
636.056,2383.95
636.219,2397.55
636.383,2391.7
636.547,2393.15
636.711,2382.7
636.874,2374.25
637.038,2379.15
637.202,2366.9
637.365,2364.25
637.529,2357.55
637.693,2370.1
637.856,2362.6
638.02,2359.65
638.184,2368.5
638.347,2363.15
638.511,2353.55
638.674,2357.05
638.838,2371.55
639.002,2372.3
639.165,2353.15
639.329,2362.95
639.492,2369.75
639.656,2372.65
639.819,2344.65
639.983,2342.35
640.146,2366.1
640.31,2351.75
640.473,2366.25
640.637,2346.5
640.8,2372.65
640.964,2360.35
641.127,2372.25
641.291,2359.55
641.454,2362.45
641.618,2352.65
641.781,2361.8
641.944,2342.45
642.108,2353.65
642.271,2349.65
642.435,2359.1
642.598,2351.6
642.761,2364.55
642.925,2358.25
643.088,2355.6
643.251,2374.1
643.415,2354.95
643.578,2348.4
643.741,2355.4
643.905,2371.25
644.068,2379.4
644.231,2369.4
644.394,2355.85
644.558,2348.5
644.721,2347.15
644.884,2349.45
645.047,2345.8
645.211,2342.7
645.374,2365.7
645.537,2346.15
645.7,2350.3
645.863,2341.5
646.027,2361.35
646.19,2354.9
646.353,2357.0
646.516,2356.7
646.679,2338.15
646.842,2338.15
647.005,2332.55
647.169,2342.75
647.332,2346.55
647.495,2359.15
647.658,2351.0
647.821,2350.85
647.984,2334.05
648.147,2333.35
648.31,2344.55
648.473,2323.6
648.636,2335.9
648.799,2355.55
648.962,2333.35
649.125,2327.6
649.288,2334.3
649.451,2334.3
649.614,2351.25
649.777,2340.55
649.94,2346.8
650.103,2337.1
650.266,2334.8
650.429,2329.85
650.592,2356.85
650.755,2336.6
650.918,2340.25
651.08,2343.95
651.243,2361.95
651.406,2344.1
651.569,2333.65
651.732,2336.2
651.895,2333.7
652.058,2343.85
652.22,2352.65
652.383,2343.45
652.546,2324.5
652.709,2329.9
652.872,2334.25
653.034,2324.1
653.197,2339.85
653.36,2341.65
653.523,2329.85
653.685,2335.6
653.848,2344.7
654.011,2338.55
654.173,2340.05
654.336,2324.15
654.499,2325.15
654.662,2333.05
654.824,2330.1
654.987,2316.05
655.149,2304.75
655.312,2301.05
655.475,2335.55
655.637,2314.55
655.8,2313.25
655.963,2314.25
656.125,2318.8
656.288,2298.15
656.45,2311.45
656.613,2300.2
656.775,2306.55
656.938,2290.35
657.1,2288.35
657.263,2270.25
657.425,2270.6
657.588,2268.4
657.75,2262.25
657.913,2277.35
658.075,2263.1
658.238,2242.45
658.4,2238.45
658.563,2244.3
658.725,2249.9
658.888,2229.8
659.05,2229.5
659.212,2213.25
659.375,2206.55
659.537,2213.5
659.7,2222.2
659.862,2225.45
660.024,2210.75
660.187,2207.1
660.349,2205.3
660.511,2207.5
660.674,2200.4
660.836,2182.35
660.998,2178.4
661.079,2183.15