File: spectra/VLFR_07-PET_nobio_Raman_c629f37e.csv
nm,Intensity
791.588,7283.0
791.862,7206.6
792.136,7178.7
792.411,7107.9
792.685,7122.3
792.959,7103.0
793.233,7061.2
793.507,7062.4
793.781,6987.0
794.056,7040.0
794.33,6958.2
794.604,6972.7
794.878,6970.6
795.152,6938.2
795.426,6913.0
795.701,6968.6
795.975,6948.0
796.249,6943.4
796.523,6942.3
796.797,6919.8
797.071,6933.8
797.345,6920.6
797.619,6911.0
797.894,6893.3
798.168,6858.6
798.442,6879.4
798.716,6818.6
798.99,6851.5
799.264,6866.3
799.538,6878.4
799.812,6871.4
800.086,6886.8
800.36,6816.7
800.634,6810.4
800.908,6831.1
801.182,6817.8
801.456,6760.4
801.73,6823.0
802.004,6838.3
802.278,6823.2
802.552,6744.1
802.826,6819.2
803.1,6795.9
803.374,6734.5
803.648,6758.2
803.922,6691.3
804.196,6659.4
804.47,6716.2
804.744,6710.2
805.018,6713.0
805.292,6671.0
805.566,6717.7
805.84,6705.3
806.114,6644.3
806.388,6615.9
806.662,6647.3
806.936,6721.4
807.209,6659.0
807.483,6610.4
807.757,6628.3
808.031,6612.2
808.305,6605.7
808.579,6635.2
808.853,6619.7
809.127,6615.1
809.4,6547.3
809.674,6619.5
809.948,6583.4
810.222,6562.2
810.496,6543.4
810.77,6527.8
811.043,6528.7
811.317,6568.3
811.591,6467.0
811.865,6464.8
812.139,6515.8
812.412,6488.8
812.686,6523.6
812.96,6443.8
813.234,6467.6
813.507,6455.2
813.781,6401.7
814.055,6481.6
814.329,6453.3
814.602,6416.9
814.876,6461.1
815.15,6404.8
815.424,6378.4
815.697,6330.0
815.971,6335.0
816.245,6365.1
816.518,6365.2
816.792,6323.6
817.066,6303.2
817.34,6240.1
817.613,6320.7
817.887,6311.5
818.161,6276.1
818.434,6220.2
818.708,6209.6
818.981,6230.0
819.255,6272.1
819.529,6287.2
819.802,6204.8
820.076,6202.5
820.35,6181.6
820.623,6193.3
820.897,6190.4
821.17,6129.5
821.444,6139.4
821.718,6103.4
821.991,6167.0
822.265,6128.6
822.538,6087.5
822.812,6084.1
823.085,6053.1
823.359,6100.0
823.632,6047.7
823.906,6012.1
824.18,6019.9
824.453,6081.9
824.727,6014.4
825.0,5976.5
825.274,6031.5
825.547,6031.0
825.821,6032.1
826.094,6031.2
826.367,5985.4
826.641,5925.0
826.914,5944.5
827.188,5921.6
827.461,5932.1
827.735,5958.1
828.008,5897.5
828.282,5916.7
828.555,5880.4
828.828,5878.0
829.102,5856.2
829.375,5819.0
829.649,5860.9
829.922,5832.7
830.195,5867.7
830.469,5842.7
830.742,5841.9
831.016,5810.7
831.289,5803.3
831.562,5812.4
831.836,5791.8
832.109,5759.0
832.382,5722.6
832.656,5787.3
832.929,5796.3
833.202,5722.8
833.476,5730.8
833.749,5712.2
834.022,5710.7
834.295,5730.7
834.569,5689.5
834.842,5685.4
835.115,5692.5
835.388,5643.8
835.662,5709.0
835.935,5673.2
836.208,5672.4
836.481,5653.1
836.755,5640.9
837.028,5651.6
837.301,5678.9
837.574,5671.6
837.848,5663.8
838.121,5608.9
838.394,5630.9
838.667,5677.3
838.94,5652.4
839.213,5631.6
839.487,5608.9
839.76,5581.6
840.033,5543.9
840.306,5604.6
840.579,5645.3
840.852,5651.8
841.125,5612.4
841.399,5615.0
841.672,5620.5
841.945,5627.8
842.218,5586.7
842.491,5546.4
842.764,5568.1
843.037,5548.7
843.31,5570.0
843.583,5559.5
843.856,5519.2
844.129,5513.2
844.402,5477.3
844.675,5477.7
844.948,5502.6
845.221,5506.3
845.495,5452.4
845.768,5407.2
846.041,5444.5
846.314,5434.2
846.586,5437.5
846.859,5415.8
847.132,5418.7
847.405,5401.2
847.678,5429.1
847.951,5456.1
848.224,5417.3
848.497,5369.0
848.77,5378.4
849.043,5385.5
849.316,5356.8
849.589,5375.2
849.862,5416.2
850.135,5338.9
850.408,5330.7
850.681,5359.5
850.953,5369.3
851.226,5347.9
851.499,5329.6
851.772,5327.5
852.045,5361.0
852.318,5365.0
852.591,5352.6
852.863,5329.0
853.136,5356.7
853.409,5329.3
853.682,5308.4
853.955,5308.6
854.227,5272.0
854.5,5292.3
854.773,5276.3
855.046,5275.5
855.318,5295.4
855.591,5268.9
855.864,5308.5
856.137,5313.5
856.409,5254.3
856.682,5223.3
856.955,5251.4
857.228,5227.8
857.5,5271.9
857.773,5289.7
858.046,5267.8
858.318,5271.0
858.591,5286.4
858.864,5280.2
859.137,5272.2
859.409,5279.0
859.682,5243.1
859.954,5288.5
860.227,5279.0
860.5,5272.3
860.772,5245.9
861.045,5213.9
861.318,5228.7
861.59,5212.0
861.863,5180.5
862.135,5186.9
862.408,5134.6
862.681,5160.4
862.953,5180.3
863.226,5184.7
863.498,5189.2
863.771,5168.1
864.043,5170.2
864.316,5155.2
864.588,5185.0
864.861,5166.8
865.133,5171.8
865.406,5143.8
865.678,5130.3
865.951,5118.3
866.223,5111.2
866.496,5109.2
866.768,5079.3
867.041,5083.1
867.313,5088.4
867.586,5084.9
867.858,5098.4
868.131,5071.4
868.403,5093.1
868.675,5101.6
868.948,5058.1
869.22,5080.3
869.493,5119.7
869.765,5094.7
870.037,5081.3
870.31,5079.5
870.582,5101.6
870.854,5074.7
871.127,5078.4
871.399,5112.4
871.672,5059.6
871.944,5117.0
872.216,5122.5
872.488,5115.5
872.761,5120.6
873.033,5097.8
873.305,5125.5
873.578,5109.7
873.85,5100.5
874.122,5094.8
874.394,5081.0
874.667,5056.8
874.939,5031.8
875.211,5018.4
875.483,5013.7
875.756,5031.5
876.028,5027.8
876.3,4999.0
876.572,4986.5
876.845,4979.9
877.117,4990.7
877.389,4965.7
877.661,4962.0
877.933,4928.6
878.205,4928.5
878.478,4954.5
878.75,4959.6
879.022,4932.6
879.294,4941.7
879.566,4943.1
879.838,4945.9
880.11,4934.6
880.382,4921.1
880.654,4924.8
880.927,4913.6
881.199,4917.2
881.471,4935.8
881.743,4924.0
882.015,4927.0
882.287,4914.8
882.559,4913.8
882.831,4891.3
883.103,4897.6
883.375,4908.5
883.647,4912.5
883.919,4870.0
884.191,4879.5
884.463,4874.8
884.735,4868.6
885.007,4885.7
885.279,4900.2
885.551,4874.3
885.823,4865.4
886.095,4827.6
886.367,4852.9
886.639,4828.9
886.91,4826.0
887.182,4830.0
887.454,4815.2
887.726,4823.9
887.998,4815.3
888.27,4804.4
888.542,4810.9
888.814,4801.5
889.085,4800.6
889.357,4783.4
889.629,4762.2
889.901,4768.8
890.173,4772.0
890.445,4767.8
890.716,4809.3
890.988,4793.0
891.26,4791.0
891.532,4770.3
891.804,4753.4
892.075,4777.5
892.347,4753.9
892.619,4742.2
892.891,4707.3
893.162,4725.1
893.434,4736.2
893.706,4735.4
893.978,4714.2
894.249,4713.5
894.521,4709.5
894.793,4703.9
895.064,4709.1
895.336,4692.9
895.608,4710.2
895.879,4712.4
896.151,4712.4
896.423,4698.3
896.694,4699.0
896.966,4692.9
897.237,4706.7
897.509,4748.5
897.781,4779.0
898.052,4825.9
898.324,4838.2
898.595,4823.3
898.867,4816.7
899.139,4793.5
899.41,4751.2
899.682,4740.6
899.953,4689.5
900.225,4660.0
900.496,4637.7
900.768,4631.4
901.039,4613.6
901.311,4585.2
901.582,4579.8
901.854,4600.7
902.125,4586.2
902.397,4591.1
902.668,4581.2
902.94,4584.5
903.211,4596.1
903.482,4586.5
903.754,4570.6
904.025,4564.8
904.297,4567.5
904.568,4581.1
904.839,4578.2
905.111,4571.0
905.382,4587.8
905.654,4577.9
905.925,4564.8
906.196,4579.4
906.468,4607.3
906.739,4618.9
907.01,4628.1
907.282,4640.3
907.553,4648.0
907.824,4648.4
908.096,4632.1
908.367,4608.2
908.638,4600.0
908.909,4621.5
909.181,4573.4
909.452,4561.4
909.723,4556.7
909.994,4534.2
910.266,4492.9
910.537,4476.6
910.808,4489.7
911.079,4482.3
911.35,4478.9
911.622,4476.1
911.893,4460.7
912.164,4454.9
912.435,4448.2
912.706,4428.6
912.977,4424.2
913.249,4438.3
913.52,4425.4
913.791,4423.6
914.062,4437.2
914.333,4422.0
914.604,4420.9
914.875,4422.1
915.146,4424.9
915.417,4396.8
915.688,4408.5
915.959,4407.3
916.231,4394.9
916.502,4386.9
916.773,4386.8
917.044,4370.0
917.315,4367.0
917.586,4353.2
917.857,4370.7
918.128,4389.9
918.399,4389.6
918.67,4359.2
918.941,4356.0
919.211,4341.6
919.482,4365.0
919.753,4358.0
920.024,4335.7
920.295,4319.0
920.566,4338.6
920.837,4327.6
921.108,4318.4
921.379,4320.3
921.65,4332.0
921.921,4316.8
922.191,4319.6
922.462,4307.9
922.733,4300.4
923.004,4299.4
923.275,4305.2
923.546,4287.9
923.816,4303.8
924.087,4313.1
924.358,4288.7
924.629,4279.5
924.9,4273.0
925.17,4269.7
925.441,4279.9
925.712,4266.2
925.983,4255.1
926.253,4268.0
926.524,4271.9
926.795,4243.6
927.065,4244.9
927.336,4242.9
927.607,4242.2
927.877,4236.1
928.148,4228.8
928.419,4218.6
928.689,4228.1
928.96,4219.3
929.231,4208.8
929.501,4214.1
929.772,4218.7
930.043,4215.4
930.313,4200.8
930.584,4197.0
930.854,4192.4
931.125,4196.4
931.396,4193.6
931.666,4188.0
931.937,4183.3
932.207,4185.8
932.478,4176.3
932.748,4186.3
933.019,4188.1
933.289,4176.4
933.56,4170.9
933.83,4154.2
934.101,4164.8
934.371,4154.7
934.642,4155.2
934.912,4157.5
935.183,4143.4
935.453,4140.9
935.723,4138.2
935.994,4132.7
936.264,4132.1
936.535,4137.0
936.805,4133.6
937.075,4128.5
937.346,4131.5
937.616,4109.9
937.886,4113.9
938.157,4111.4
938.427,4115.9
938.697,4111.3
938.968,4104.6
939.238,4102.6
939.508,4100.8
939.779,4091.6
940.049,4101.7
940.319,4097.5
940.59,4088.7
940.86,4094.0
941.13,4089.3
941.4,4090.7
941.671,4085.6
941.941,4077.5
942.211,4076.9
942.481,4072.6
942.751,4079.1
943.022,4081.7
943.292,4074.3
943.562,4067.0
943.832,4070.0
944.102,4060.9
944.372,4062.8
944.642,4052.3
944.913,4049.8
945.183,4057.2
945.453,4045.3
945.723,4043.9
945.993,4049.9
946.263,4031.0
946.533,4040.4
946.803,4039.2
947.073,4031.9
947.343,4037.3
947.613,4040.7
947.883,4029.8
948.153,4032.6
948.423,4017.3
948.693,4018.8
948.963,4024.9
949.233,4023.2
949.503,4022.0
949.773,4017.4
950.043,4013.4
950.313,4007.9
950.583,4008.9
950.853,4009.4
951.123,4001.2
951.393,4001.2
951.663,4002.5
951.933,4000.8
952.202,3999.2
952.472,3995.1
952.742,3995.2
953.012,4004.8
953.282,3990.5
953.552,3992.4
953.822,3982.0
954.091,3985.1
954.361,3987.0
954.631,3977.9
954.901,3976.1
955.17,3972.1
955.44,3976.2
955.71,3974.8
955.98,3977.5
956.25,3967.5
956.519,3975.7
956.789,3969.6
957.059,3961.8
957.328,3960.4
957.598,3962.7
957.868,3966.9
958.137,3966.9
958.407,3956.0
958.677,3950.0
958.946,3949.7
959.216,3958.8
959.486,3953.6
959.755,3948.8
960.025,3948.2
960.294,3952.1
960.564,3943.2
960.834,3947.6
961.103,3949.2
961.373,3947.7
961.642,3945.2
961.912,3940.9
962.181,3936.4
962.451,3939.2
962.72,3932.5
962.99,3929.4
963.259,3928.9
963.529,3931.6
963.798,3923.4
964.068,3923.2
964.337,3926.1
964.607,3927.9
964.876,3931.1
965.146,3924.4
965.415,3922.5
965.684,3916.7
965.954,3921.0
966.223,3920.2
966.493,3923.5
966.762,3917.8
967.031,3918.8
967.301,3910.4
967.57,3910.7
967.839,3908.5
968.109,3906.1
968.378,3906.4
968.647,3903.6
968.917,3896.2
969.186,3900.2
969.455,3900.9
969.724,3902.4
969.994,3900.0
970.263,3897.5
970.532,3892.0
970.801,3902.3
971.071,3895.4
971.34,3896.9
971.609,3891.3
971.878,3892.7
972.147,3884.7
972.417,3886.9
972.686,3892.0
972.955,3886.8
973.224,3888.8
973.493,3886.7
973.762,3889.1
974.031,3886.1
974.3,3888.1
974.57,3882.9
974.839,3880.5
975.108,3873.2
975.377,3876.7
975.646,3879.8
975.915,3880.6
976.184,3873.3
976.453,3879.5
976.722,3873.9
976.991,3868.2
977.26,3872.6
977.529,3872.1
977.798,3869.4
978.067,3868.7
978.336,3867.2
978.605,3866.0
978.874,3867.1
979.143,3873.2
979.412,3866.3
979.68,3860.8
979.949,3858.7
980.218,3867.7
980.487,3863.3
980.756,3862.0
981.025,3860.1
981.294,3861.9
981.563,3862.9
981.831,3857.4
982.1,3855.2
982.369,3856.5
982.638,3850.5
982.907,3857.1
983.175,3851.8
983.444,3856.0
983.713,3850.9
983.982,3851.2
984.25,3848.5
984.519,3848.9
984.788,3850.5
985.057,3844.3
985.325,3848.8
985.594,3847.0
985.863,3848.6
986.131,3845.7
986.4,3844.0
986.669,3846.6
986.937,3842.3
987.206,3846.1
987.475,3843.0
987.743,3841.5
988.012,3843.1
988.28,3845.3
988.549,3845.5
988.817,3836.5
989.086,3840.4
989.355,3838.1
989.623,3835.6
989.892,3835.8
990.16,3837.0
990.429,3832.1
990.697,3832.6
990.966,3832.3
991.234,3830.9
991.503,3834.4
991.771,3832.4
992.04,3826.3
992.308,3831.4
992.576,3830.5
992.845,3831.5
993.113,3834.1
993.382,3827.9
993.65,3826.3
993.918,3829.7
994.187,3825.7
994.455,3825.2
994.723,3824.4
994.992,3824.2
995.26,3823.2
995.528,3823.4
995.797,3823.7
996.065,3819.8
996.333,3819.9
996.602,3817.8
996.87,3816.9
997.138,3820.7
997.406,3819.6
997.675,3819.4
997.943,3817.2
998.211,3814.4
998.479,3816.6
998.747,3818.5
999.016,3814.8
999.284,3818.6
999.552,3814.7
999.82,3814.6
1000.09,3818.7
1000.36,3813.3
1000.62,3812.9
1000.89,3815.1
1001.16,3810.9
1001.43,3811.0
1001.7,3811.5
1001.97,3812.6
1002.23,3809.5
1002.5,3808.5
1002.77,3809.7
1003.04,3810.7
1003.31,3811.2
1003.57,3806.5
1003.84,3807.3
1004.11,3806.8
1004.38,3806.3
1004.65,3804.3
1004.91,3803.7
1005.18,3805.2
1005.45,3806.2
1005.72,3804.1
1005.98,3805.0
1006.25,3806.2
1006.52,3799.7
1006.79,3803.4
1007.06,3803.1
1007.32,3804.2
1007.59,3799.4
1007.86,3801.1
1008.13,3799.4
1008.4,3799.8
1008.66,3801.6
1008.93,3796.4
1009.2,3800.0
1009.47,3798.7
1009.73,3795.5
1010.0,3799.7
1010.27,3795.5
1010.54,3796.5
1010.81,3797.7
1011.07,3799.9
1011.34,3796.3
1011.61,3795.5
1011.88,3797.5
1012.14,3796.6
1012.41,3793.8
1012.68,3794.4
1012.95,3793.7
1013.21,3793.3
1013.48,3795.2
1013.75,3793.3
1014.02,3793.4
1014.29,3794.0
1014.55,3792.0
1014.82,3793.3
1015.09,3794.0
1015.36,3792.9
1015.62,3788.8
1015.89,3790.5
1016.16,3789.1
1016.43,3788.8
1016.69,3790.5
1016.96,3792.4
1017.23,3791.8
1017.5,3791.7
1017.76,3792.0
1018.03,3789.7
1018.3,3789.0
1018.57,3791.4
1018.83,3787.5
1019.1,3789.2
1019.37,3786.4
1019.63,3786.8
1019.9,3788.5
1020.17,3789.2
1020.44,3789.9
1020.7,3787.9
1020.97,3790.6
1021.24,3790.7
1021.51,3788.5
1021.77,3788.4
1022.04,3788.8
1022.31,3787.8
1022.58,3785.6
1022.84,3788.8
1023.11,3787.2
1023.38,3787.7
1023.64,3788.1
1023.91,3786.5
1024.18,3787.0
1024.45,3784.9
1024.71,3785.5
1024.98,3785.3
1025.25,3784.6
1025.51,3782.1
1025.78,3781.5
1026.05,3785.4
1026.32,3780.9
1026.58,3781.3
1026.85,3782.0
1027.12,3783.0
1027.38,3782.2
1027.65,3779.4
1027.92,3780.3
1028.19,3780.5
1028.45,3780.0
1028.72,3778.6
1028.99,3781.4
1029.25,3776.1
1029.52,3779.1
1029.79,3780.0
1030.05,3778.4
1030.32,3775.9
1030.59,3774.5
1030.85,3777.6
1031.12,3775.8
1031.39,3777.7
1031.66,3776.1
1031.92,3777.9
1032.19,3776.6
1032.46,3775.1
1032.72,3776.7
1032.99,3776.1
1033.26,3774.0
1033.52,3778.3
1033.79,3778.2
1034.06,3776.2
1034.32,3777.7
1034.59,3776.9
1034.86,3777.9
1035.12,3776.6
1035.39,3775.9
1035.66,3777.9
1035.92,3776.9
1036.19,3776.3
1036.46,3777.5
1036.72,3774.3
1036.99,3773.2
1037.26,3773.8
1037.52,3772.1
1037.79,3773.7
1038.06,3774.4
1038.32,3771.3
1038.59,3774.5
1038.86,3771.4
1039.12,3771.7
1039.39,3770.3
1039.66,3772.8
1039.92,3769.1
1040.19,3774.1
1040.46,3772.0
1040.72,3770.9
1040.99,3771.3
1041.26,3771.4
1041.52,3771.9
1041.79,3770.7
1042.06,3769.1
1042.32,3769.0
1042.59,3768.9
1042.86,3772.1
1043.12,3769.5
1043.39,3769.8
1043.65,3770.4
1043.92,3771.0
1044.19,3769.1
1044.45,3768.5
1044.72,3770.4
1044.99,3770.8
1045.25,3769.2
1045.52,3770.1
1045.79,3769.9
1046.05,3768.8
1046.32,3766.7
1046.58,3767.6
1046.85,3769.2
1047.12,3769.3
1047.38,3768.6
1047.65,3768.8
1047.92,3768.8
1048.18,3767.8
1048.45,3770.3
1048.71,3768.0
1048.98,3766.0
1049.25,3769.2
1049.51,3765.5
1049.78,3767.6
1050.04,3766.6
1050.31,3764.2
1050.58,3765.6
1050.84,3764.6
1051.11,3767.5
1051.37,3767.5
1051.64,3767.3
1051.91,3766.2
1052.17,3767.6
1052.44,3767.4
1052.7,3768.9
1052.97,3767.6
1053.24,3766.8
1053.5,3767.1
1053.77,3767.1
1054.03,3765.9
1054.3,3766.9
1054.57,3767.1
1054.83,3766.8
1055.1,3767.5
1055.36,3767.0
1055.63,3768.7
1055.9,3766.1
1056.16,3767.5
1056.43,3766.4
1056.69,3768.2
1056.96,3766.1
1057.23,3766.8
1057.49,3766.3
1057.76,3767.5
1058.02,3765.7
1058.29,3766.8
1058.55,3764.9
1058.82,3765.8
1059.09,3766.8
1059.35,3765.4
1059.62,3764.1
1059.88,3764.9
1060.15,3765.7
1060.41,3764.7
1060.68,3766.4
1060.95,3766.5
1061.21,3767.3
1061.48,3765.4
1061.74,3765.5
1062.01,3765.0
1062.27,3765.2
1062.54,3765.6
1062.8,3765.6
1063.07,3764.2
1063.34,3763.1
1063.6,3765.2
1063.87,3766.0
1064.13,3765.9
1064.4,3763.4
1064.66,3764.4
1064.93,3763.7
1065.19,3763.7
1065.46,3766.1
1065.73,3764.3
1065.99,3764.5
1066.26,3765.8
1066.52,3763.2
1066.79,3764.4
1067.05,3764.1
1067.32,3765.2
1067.58,3763.2
1067.85,3765.1
1068.11,3763.4