File: spectra/VLFR_08-PLA_nobio_Raman_9c3d25cb.csv
nm,Intensity
526.5,828.7
526.637,827.7
526.774,829.7
526.91,827.6
527.047,829.0
527.184,829.1
527.32,828.4
527.457,828.5
527.594,829.6
527.73,828.6
527.867,829.4
528.004,829.2
528.14,828.0
528.277,828.7
528.414,828.0
528.55,829.1
528.687,828.6
528.823,829.3
528.96,827.4
529.096,829.3
529.233,827.6
529.37,829.0
529.506,828.3
529.643,827.6
529.779,829.4
529.916,829.0
530.052,829.9
530.189,828.3
530.325,828.5
530.462,828.8
530.598,828.0
530.735,830.5
530.871,828.4
531.008,829.4
531.144,828.8
531.28,828.9
531.417,829.7
531.553,829.7
531.69,828.6
531.826,828.7
531.962,836.8
532.099,882.9
532.235,898.1
532.372,843.3
532.508,829.7
532.644,830.2
532.781,827.5
532.917,827.9
533.053,828.9
533.19,829.3
533.326,828.9
533.462,828.8
533.599,829.1
533.735,835.4
533.871,857.2
534.007,895.8
534.144,915.2
534.28,919.4
534.416,917.0
534.552,917.6
534.689,916.1
534.825,916.6
534.961,910.8
535.097,912.4
535.234,910.9
535.37,910.0
535.506,914.0
535.642,911.6
535.778,914.9
535.914,913.7
536.051,913.5
536.187,914.9
536.323,909.1
536.459,913.3
536.595,912.2
536.731,914.4
536.867,915.2
537.003,915.9
537.14,914.0
537.276,915.9
537.412,914.8
537.548,914.2
537.684,918.2
537.82,912.2
537.956,924.4
538.092,918.9
538.228,917.5
538.364,920.8
538.5,918.7
538.636,918.4
538.772,919.1
538.908,920.0
539.044,922.5
539.18,924.8
539.316,922.3
539.452,924.5
539.588,921.3
539.724,926.2
539.86,928.5
539.996,924.6
540.132,922.2
540.268,928.2
540.403,926.9
540.539,927.4
540.675,929.3
540.811,928.2
540.947,929.4
541.083,927.3
541.219,932.8
541.355,932.9
541.49,933.2
541.626,930.9
541.762,930.6
541.898,931.2
542.034,934.0
542.17,931.0
542.305,934.7
542.441,939.2
542.577,934.4
542.713,936.4
542.848,938.5
542.984,938.8
543.12,937.8
543.256,935.3
543.391,938.5
543.527,943.7
543.663,945.6
543.799,943.3
543.934,944.6
544.07,944.2
544.206,947.7
544.341,942.8
544.477,947.7
544.613,944.5
544.748,947.4
544.884,946.5
545.02,949.9
545.155,948.5
545.291,946.0
545.427,949.3
545.562,946.7
545.698,951.5
545.833,952.3
545.969,947.7
546.105,954.1
546.24,948.6
546.376,953.6
546.511,949.5
546.647,956.0
546.782,953.1
546.918,955.5
547.053,957.5
547.189,952.0
547.325,954.4
547.46,954.2
547.596,956.7
547.731,955.7
547.867,964.6
548.002,956.7
548.137,959.8
548.273,958.8
548.408,958.4
548.544,963.1
548.679,959.6
548.815,959.5
548.95,959.4
549.086,964.1
549.221,962.4
549.356,963.3
549.492,964.4
549.627,965.0
549.763,970.0
549.898,967.9
550.033,964.7
550.169,969.3
550.304,971.4
550.439,971.9
550.575,968.5
550.71,967.6
550.845,969.6
550.981,967.4
551.116,974.4
551.251,970.9
551.387,971.7
551.522,972.6
551.657,977.7
551.793,975.8
551.928,978.5
552.063,974.9
552.198,980.6
552.334,977.0
552.469,974.6
552.604,978.4
552.739,976.6
552.874,980.1
553.01,977.8
553.145,980.3
553.28,985.6
553.415,983.4
553.55,987.1
553.686,983.1
553.821,983.3
553.956,985.3
554.091,989.1
554.226,991.0
554.361,990.2
554.497,986.3
554.632,988.9
554.767,987.6
554.902,989.9
555.037,991.2
555.172,988.5
555.307,990.8
555.442,989.8
555.577,990.4
555.712,987.9
555.848,989.7
555.983,990.7
556.118,986.9
556.253,994.0
556.388,995.6
556.523,995.8
556.658,997.7
556.793,993.2
556.928,994.8
557.063,997.0
557.198,999.3
557.333,998.2
557.468,1004.0
557.603,999.7
557.738,1006.9
557.873,1004.2
558.008,1012.2
558.142,1020.7
558.277,1018.5
558.412,1007.1
558.547,1008.7
558.682,1009.0
558.817,1007.2
558.952,1008.4
559.087,1006.9
559.222,1014.3
559.357,1013.7
559.492,1017.0
559.626,1012.6
559.761,1017.1
559.896,1015.5
560.031,1019.7
560.166,1024.4
560.301,1023.2
560.435,1016.0
560.57,1022.6
560.705,1025.2
560.84,1025.7
560.975,1027.4
561.109,1023.2
561.244,1025.6
561.379,1027.8
561.514,1027.6
561.649,1025.5
561.783,1035.2
561.918,1034.3
562.053,1037.3
562.188,1031.5
562.322,1039.2
562.457,1040.6
562.592,1035.9
562.726,1045.1
562.861,1041.7
562.996,1047.2
563.131,1051.2
563.265,1048.6
563.4,1056.0
563.535,1058.7
563.669,1055.2
563.804,1059.4
563.939,1058.5
564.073,1062.3
564.208,1061.3
564.342,1069.7
564.477,1068.4
564.612,1073.3
564.746,1075.1
564.881,1076.0
565.015,1080.4
565.15,1081.5
565.285,1079.7
565.419,1087.8
565.554,1086.3
565.688,1092.5
565.823,1090.6
565.957,1098.7
566.092,1094.1
566.227,1096.4
566.361,1101.1
566.496,1096.2
566.63,1090.1
566.765,1099.4
566.899,1098.1
567.034,1099.0
567.168,1104.5
567.303,1102.5
567.437,1104.2
567.572,1106.8
567.706,1111.8
567.84,1121.4
567.975,1122.3
568.109,1126.8
568.244,1120.0
568.378,1120.1
568.513,1123.7
568.647,1136.1
568.781,1137.8
568.916,1135.7
569.05,1139.2
569.185,1140.4
569.319,1148.4
569.453,1158.4
569.588,1156.1
569.722,1157.0
569.857,1155.3
569.991,1167.2
570.125,1162.3
570.26,1165.8
570.394,1171.6
570.528,1165.4
570.663,1171.9
570.797,1172.7
570.931,1171.5
571.065,1168.8
571.2,1176.7
571.334,1174.3
571.468,1185.0
571.603,1182.6
571.737,1186.1
571.871,1196.2
572.005,1200.8
572.14,1201.7
572.274,1200.2
572.408,1194.0
572.542,1202.9
572.677,1211.2
572.811,1216.6
572.945,1220.6
573.079,1223.2
573.213,1223.9
573.348,1231.8
573.482,1232.5
573.616,1231.1
573.75,1242.2
573.884,1252.8
574.018,1237.3
574.153,1240.0
574.287,1243.3
574.421,1242.0
574.555,1263.2
574.689,1263.7
574.823,1265.4
574.957,1246.8
575.092,1242.1
575.226,1250.8
575.36,1244.4
575.494,1255.1
575.628,1254.5
575.762,1260.0
575.896,1255.1
576.03,1259.0
576.164,1259.6
576.298,1263.3
576.432,1264.8
576.566,1275.2
576.7,1271.0
576.834,1268.7
576.968,1267.5
577.103,1276.7
577.237,1263.9
577.371,1275.8
577.505,1275.7
577.639,1281.6
577.773,1276.9
577.907,1282.6
578.04,1280.8
578.174,1279.6
578.308,1281.0
578.442,1276.0
578.576,1275.7
578.71,1281.9
578.844,1284.2
578.978,1275.4
579.112,1272.2
579.246,1279.3
579.38,1277.2
579.514,1282.0
579.648,1275.1
579.782,1280.7
579.916,1279.9
580.049,1282.1
580.183,1273.4
580.317,1287.9
580.451,1276.3
580.585,1284.4
580.719,1280.5
580.853,1276.5
580.986,1277.4
581.12,1285.1
581.254,1281.9
581.388,1289.5
581.522,1286.8
581.656,1294.7
581.789,1296.7
581.923,1292.4
582.057,1293.0
582.191,1291.9
582.325,1280.8
582.458,1280.4
582.592,1287.5
582.726,1286.3
582.86,1281.8
582.993,1285.4
583.127,1280.1
583.261,1286.4
583.395,1289.3
583.528,1283.3
583.662,1288.8
583.796,1283.2
583.93,1276.4
584.063,1274.4
584.197,1275.9
584.331,1291.0
584.464,1281.7
584.598,1282.4
584.732,1278.6
584.865,1278.2
584.999,1285.5
585.133,1286.3
585.266,1289.5
585.4,1272.3
585.534,1278.8
585.667,1278.3
585.801,1286.0
585.935,1291.0
586.068,1284.0
586.202,1294.1
586.336,1281.2
586.469,1286.4
586.603,1292.9
586.736,1296.7
586.87,1289.9
587.004,1286.0
587.137,1294.7
587.271,1287.0
587.404,1289.7
587.538,1291.5
587.671,1290.6
587.805,1283.5
587.938,1278.0
588.072,1282.3
588.206,1288.4
588.339,1273.3
588.473,1278.6
588.606,1270.0
588.74,1278.5
588.873,1270.1
589.007,1276.1
589.14,1278.1
589.274,1272.2
589.407,1269.4
589.541,1276.5
589.674,1268.0
589.808,1272.3
589.941,1272.8
590.074,1269.0
590.208,1272.5
590.341,1274.4
590.475,1277.3
590.608,1279.5
590.742,1278.8
590.875,1269.4
591.009,1268.3
591.142,1273.6
591.275,1273.0
591.409,1277.0
591.542,1277.4
591.676,1271.1
591.809,1271.3
591.942,1270.9
592.076,1262.2
592.209,1266.6
592.342,1264.7
592.476,1265.6
592.609,1268.1
592.743,1267.9
592.876,1262.4
593.009,1256.8
593.143,1258.9
593.276,1262.0
593.409,1263.6
593.543,1261.6
593.676,1258.2
593.809,1264.4
593.942,1268.3
594.076,1268.1
594.209,1260.3
594.342,1266.2
594.476,1270.4
594.609,1256.6
594.742,1268.1
594.875,1265.9
595.009,1267.2
595.142,1257.7
595.275,1262.4
595.408,1263.1
595.542,1264.5
595.675,1259.2
595.808,1266.4
595.941,1262.0
596.075,1265.0
596.208,1264.0
596.341,1263.9
596.474,1258.9
596.607,1267.2
596.741,1253.1
596.874,1257.9
597.007,1256.7
597.14,1263.5
597.273,1259.7
597.406,1260.6
597.54,1263.4
597.673,1258.9
597.806,1252.2
597.939,1264.1
598.072,1260.8
598.205,1265.6
598.338,1260.4
598.472,1257.6
598.605,1258.6
598.738,1258.3
598.871,1266.8
599.004,1266.0
599.137,1265.0
599.27,1259.9
599.403,1263.6
599.536,1259.3
599.67,1260.8
599.803,1262.4
599.936,1264.9
600.069,1262.3
600.202,1259.2
600.335,1266.2
600.468,1258.4
600.601,1261.7
600.734,1259.2
600.867,1262.3
601.0,1257.0
601.133,1264.2
601.266,1262.3
601.399,1245.0
601.532,1248.1
601.665,1256.5
601.798,1248.2
601.931,1252.3
602.064,1254.4
602.197,1249.5
602.33,1251.0
602.463,1255.3
602.596,1253.0
602.729,1248.4
602.862,1254.1
602.995,1246.8
603.128,1253.4
603.261,1256.5
603.394,1251.4
603.527,1253.5
603.66,1257.8
603.793,1265.0
603.925,1258.5
604.058,1255.2
604.191,1259.9
604.324,1253.8
604.457,1248.7
604.59,1258.6
604.723,1243.1
604.856,1248.8
604.989,1257.8
605.122,1242.2
605.254,1238.6
605.387,1239.9
605.52,1242.5
605.653,1246.0
605.786,1245.9
605.919,1237.2
606.052,1239.6
606.184,1233.9
606.317,1235.5
606.45,1229.7
606.583,1229.6
606.716,1232.3
606.849,1240.8
606.981,1241.2
607.114,1238.0
607.247,1239.9
607.38,1236.1
607.513,1242.1
607.645,1246.2
607.778,1239.6
607.911,1243.9
608.044,1235.3
608.177,1242.8
608.309,1239.3
608.442,1250.0
608.575,1247.8
608.708,1243.2
608.84,1242.5
608.973,1243.4
609.106,1242.0
609.239,1245.7
609.371,1250.7
609.504,1242.5
609.637,1239.0
609.769,1243.5
609.902,1241.3
610.035,1233.5
610.168,1237.3
610.3,1246.6
610.433,1230.6
610.566,1241.0
610.698,1225.0
610.831,1236.0
610.964,1243.2
611.096,1236.9
611.229,1240.2
611.362,1239.9
611.494,1233.3
611.627,1239.5
611.76,1231.6
611.892,1234.9
612.025,1241.8
612.158,1238.6
612.29,1235.4
612.423,1237.2
612.556,1241.6
612.688,1238.4
612.821,1256.2
612.953,1241.5
613.086,1241.1
613.219,1244.9
613.351,1241.8
613.484,1243.1
613.616,1243.5
613.749,1244.2
613.882,1245.6
614.014,1238.2
614.147,1246.9
614.279,1240.6
614.412,1249.1
614.544,1239.1
614.677,1249.1
614.809,1249.5
614.942,1247.0
615.075,1248.7
615.207,1244.2
615.34,1241.1
615.472,1238.9
615.605,1246.0
615.737,1240.1
615.87,1242.6
616.002,1238.1
616.135,1248.4
616.267,1233.2
616.4,1239.1
616.532,1237.6
616.665,1243.5
616.797,1247.0
616.93,1238.4
617.062,1244.9
617.195,1240.3
617.327,1236.0
617.46,1243.5
617.592,1241.8
617.725,1235.8
617.857,1242.4
617.989,1234.6
618.122,1237.6
618.254,1247.6
618.387,1240.4
618.519,1236.3
618.652,1230.0
618.784,1235.0
618.917,1227.8
619.049,1236.8
619.181,1236.6
619.314,1224.9
619.446,1242.7
619.579,1228.7
619.711,1232.1
619.843,1233.6
619.976,1231.5
620.108,1236.3
620.241,1223.5
620.373,1231.5
620.505,1227.8
620.638,1231.9
620.77,1225.5
620.902,1226.5
621.035,1227.0
621.167,1224.6
621.299,1232.1
621.432,1231.2
621.564,1224.5
621.696,1222.8
621.829,1228.0
621.961,1220.9
622.093,1233.7
622.226,1229.1
622.358,1226.1
622.49,1223.3
622.623,1233.1
622.755,1227.5
622.887,1234.9
623.02,1232.8
623.152,1230.7
623.284,1228.7
623.416,1227.2
623.549,1223.0
623.681,1227.9
623.813,1224.4
623.946,1233.5
624.078,1227.7
624.21,1239.3
624.342,1226.8
624.475,1219.8
624.607,1225.9
624.739,1225.6
624.871,1231.1
625.004,1225.2
625.136,1222.0
625.268,1224.7
625.4,1226.0
625.533,1221.3
625.665,1214.0
625.797,1226.9
625.929,1232.9
626.061,1226.7
626.194,1226.6
626.326,1219.4
626.458,1217.1
626.59,1227.0
626.722,1217.0
626.855,1217.2
626.987,1210.3
627.119,1219.6
627.251,1220.3
627.383,1213.7
627.516,1222.9
627.648,1223.5
627.78,1224.6
627.912,1220.0
628.044,1221.1
628.176,1224.0
628.308,1225.2
628.441,1217.6
628.573,1222.4
628.705,1232.0
628.837,1221.4
628.969,1225.6
629.101,1225.2
629.233,1227.4
629.366,1218.3
629.498,1222.1
629.63,1220.5
629.762,1222.2
629.894,1226.8
630.026,1224.8
630.158,1211.1
630.29,1216.8
630.422,1228.2
630.554,1233.0
630.687,1229.4
630.819,1231.4
630.951,1257.6
631.083,1258.0
631.215,1263.0
631.347,1258.3
631.479,1247.0
631.611,1240.0
631.743,1233.3
631.875,1228.4
632.007,1219.6
632.139,1223.0
632.271,1214.1
632.403,1214.4
632.535,1210.7
632.667,1218.8
632.799,1211.0
632.931,1215.3
633.063,1216.3
633.195,1217.2
633.328,1221.6
633.46,1208.0
633.592,1217.1
633.724,1208.7
633.856,1201.5
633.988,1207.9
634.12,1205.4
634.252,1194.7
634.384,1187.6
634.516,1197.4
634.647,1190.2
634.779,1188.3
634.911,1183.9
635.043,1193.0
635.175,1188.7
635.307,1189.0
635.439,1190.0
635.571,1190.6
635.703,1191.3
635.835,1184.5
635.967,1188.2
636.099,1179.7
636.231,1178.4
636.363,1189.9
636.495,1180.5
636.627,1185.2
636.759,1184.3
636.891,1183.9
637.023,1184.2
637.155,1172.4
637.286,1182.1
637.418,1179.8
637.55,1182.2
637.682,1176.1
637.814,1176.7
637.946,1176.0
638.078,1171.4
638.21,1176.9
638.342,1177.9
638.474,1175.1
638.605,1172.8
638.737,1170.2
638.869,1172.8
639.001,1173.4
639.133,1175.6
639.265,1169.4
639.397,1164.6
639.529,1172.2
639.66,1166.8
639.792,1169.3
639.924,1165.8
640.056,1163.2
640.188,1169.6
640.32,1168.2
640.452,1158.0
640.583,1163.2
640.715,1165.2
640.847,1166.7
640.979,1168.7
641.111,1165.9
641.243,1173.2
641.374,1161.1
641.506,1161.2
641.638,1162.8
641.77,1161.1
641.902,1164.8
642.033,1159.7
642.165,1149.8
642.297,1152.9
642.429,1154.5
642.561,1147.9
642.692,1153.6
642.824,1153.1
642.956,1148.7
643.088,1152.6
643.22,1152.4
643.351,1149.3
643.483,1141.9
643.615,1144.2
643.747,1145.6
643.878,1138.8
644.01,1142.3
644.142,1139.8
644.274,1131.9
644.405,1139.1
644.537,1137.7
644.669,1135.1
644.801,1140.4
644.932,1136.3
645.064,1136.5
645.196,1136.9
645.328,1139.9
645.459,1135.5
645.591,1128.3
645.723,1140.2
645.854,1130.4
645.986,1133.0
646.118,1130.6
646.25,1134.6
646.381,1133.0
646.513,1132.3
646.645,1132.2
646.776,1126.3
646.908,1132.6
647.04,1132.8
647.172,1127.1
647.303,1130.7
647.435,1129.8
647.567,1132.7
647.698,1124.3
647.83,1128.5
647.962,1131.7
648.093,1133.3
648.225,1123.5
648.357,1124.4
648.488,1129.2
648.62,1126.5
648.752,1124.5
648.883,1120.5
649.015,1123.0
649.147,1109.9
649.278,1116.2
649.41,1118.5
649.542,1121.0
649.673,1115.5
649.805,1113.5
649.937,1116.5
650.068,1115.0
650.2,1111.6
650.331,1118.1
650.463,1114.7
650.595,1110.1
650.726,1113.0
650.858,1117.5
650.99,1111.2
651.121,1108.4
651.253,1115.7
651.384,1106.3
651.516,1112.4
651.648,1118.1
651.779,1113.6
651.911,1108.4
652.042,1108.7
652.174,1105.3
652.306,1109.0
652.437,1110.6
652.569,1111.1
652.7,1107.8
652.832,1111.2
652.963,1112.2
653.095,1105.8
653.227,1110.1
653.358,1105.5
653.49,1103.8
653.621,1107.6
653.753,1098.9
653.884,1105.6
654.016,1108.4
654.148,1108.7
654.279,1110.5
654.411,1101.5
654.542,1104.0
654.674,1107.0
654.805,1100.1
654.937,1102.9
655.068,1105.0
655.2,1108.8
655.331,1098.9
655.463,1098.9
655.595,1102.7
655.726,1106.0
655.858,1098.6
655.989,1098.3
656.121,1101.3
656.252,1103.1
656.384,1091.5
656.515,1094.4
656.647,1102.6
656.778,1093.1
656.91,1097.2
657.041,1102.4
657.173,1093.2
657.304,1095.5
657.436,1097.6
657.567,1088.5
657.699,1097.7
657.83,1095.8
657.962,1093.1
658.093,1088.2
658.225,1096.0
658.356,1090.5
658.488,1093.2
658.619,1094.5
658.751,1086.9
658.882,1088.8
659.013,1090.3
659.145,1096.7
659.276,1089.5
659.408,1092.2
659.539,1089.8
659.671,1093.1
659.802,1091.4
659.934,1090.8
660.065,1091.6
660.197,1090.7
660.328,1086.1
660.459,1085.5
660.591,1087.4
660.722,1084.0
660.854,1083.3
660.985,1082.2
661.117,1081.7
661.248,1082.2
661.38,1082.1
661.511,1078.0
661.642,1076.0
661.774,1084.6
661.905,1084.3
662.037,1081.8
662.168,1076.2
662.299,1075.6
662.431,1075.9
662.562,1082.2
662.694,1080.6
662.825,1075.1
662.957,1074.5
663.088,1079.0